,SUBID,TRIAL,MOONEYID,MOONEYCATEGORY,LOC,COND,MOONEY_NAME,MOONEY_GENDER,ECCENTRICITY,RESPONSE,ACCURACY,RT,SUBINIT
0,[[17]],[[1]],[[4]],['high holistic'],['left'],['upright'],['U0061.bmp'],['female'],[[12]],['male'],[[0]],[[0.00042288]],AG
1,[[17]],[[2]],[[17]],['low holistic'],['right'],['upright'],['U0346.bmp'],['female'],[[4]],['male'],[[0]],[[5.5104111]],AG
2,[[17]],[[3]],[[6]],['low holistic'],['left'],['inverted'],['U0106.bmp'],['male'],[[12]],['male'],[[1]],[[0.00016646]],AG
3,[[17]],[[4]],[[8]],['low holistic'],['right'],['upright'],['U0137.bmp'],['male'],[[2]],['male'],[[1]],[[0.00010036]],AG
4,[[17]],[[5]],[[18]],['low holistic'],['left'],['inverted'],['U0359.bmp'],['male'],[[6]],['male'],[[1]],[[6.34724332]],AG
5,[[17]],[[6]],[[17]],['high holistic'],['fovea'],['inverted'],['U0346.bmp'],['male'],[[0]],['male'],[[1]],[[0.00010012]],AG
6,[[17]],[[7]],[[1]],['high holistic'],['right'],['inverted'],['U0006.bmp'],['female'],[[12]],['female'],[[1]],[[8.967028]],AG
7,[[17]],[[8]],[[20]],['low holistic'],['right'],['upright'],['U0362.bmp'],['male'],[[10]],['female'],[[0]],[[0.00012157]],AG
8,[[17]],[[9]],[[17]],['low holistic'],['right'],['inverted'],['U0346.bmp'],['female'],[[2]],['female'],[[1]],[[0.00732428]],AG
9,[[17]],[[10]],[[9]],['low holistic'],['left'],['inverted'],['U0155.bmp'],['male'],[[12]],['female'],[[0]],[[0.03139203]],AG
10,[[17]],[[11]],[[18]],['high holistic'],['right'],['upright'],['U0359.bmp'],['male'],[[10]],['male'],[[1]],[[0.05474416]],AG
11,[[17]],[[12]],[[4]],['low holistic'],['fovea'],['upright'],['U0061.bmp'],['female'],[[0]],['female'],[[1]],[[0.00036789]],AG
12,[[17]],[[13]],[[7]],['low holistic'],['left'],['inverted'],['U0107.bmp'],['female'],[[8]],['male'],[[0]],[[0.00010036]],AG
13,[[17]],[[14]],[[10]],['low holistic'],['right'],['inverted'],['U0159.bmp'],['female'],[[12]],['male'],[[0]],[[9.8163262e-05]],AG
14,[[17]],[[15]],[[14]],['low holistic'],['right'],['inverted'],['U0228.bmp'],['male'],[[2]],['male'],[[1]],[[0.00017034]],AG
15,[[17]],[[16]],[[8]],['high holistic'],['left'],['upright'],['U0137.bmp'],['female'],[[6]],['male'],[[0]],[[0.00011371]],AG
16,[[17]],[[17]],[[7]],['low holistic'],['right'],['inverted'],['U0107.bmp'],['female'],[[2]],['female'],[[1]],[[0.01167264]],AG
17,[[17]],[[18]],[[4]],['low holistic'],['right'],['upright'],['U0061.bmp'],['female'],[[2]],['female'],[[1]],[[12.64344453]],AG
18,[[17]],[[19]],[[3]],['high holistic'],['right'],['upright'],['U0020.bmp'],['male'],[[8]],['male'],[[1]],[[0.2091556]],AG
19,[[17]],[[20]],[[18]],['low holistic'],['right'],['inverted'],['U0359.bmp'],['male'],[[12]],['female'],[[0]],[[0.0001071]],AG
20,[[17]],[[21]],[[18]],['high holistic'],['right'],['inverted'],['U0359.bmp'],['male'],[[8]],['female'],[[0]],[[0.00056484]],AG
21,[[17]],[[22]],[[4]],['low holistic'],['left'],['upright'],['U0061.bmp'],['female'],[[6]],['male'],[[0]],[[0.00010088]],AG
22,[[17]],[[23]],[[14]],['low holistic'],['fovea'],['upright'],['U0228.bmp'],['male'],[[0]],['female'],[[0]],[[0.00010017]],AG
23,[[17]],[[24]],[[5]],['high holistic'],['left'],['inverted'],['U0076.bmp'],['female'],[[10]],['female'],[[1]],[[1.69792019]],AG
24,[[17]],[[25]],[[16]],['high holistic'],['left'],['inverted'],['U0335.bmp'],['female'],[[8]],['female'],[[1]],[[0.30146488]],AG
25,[[17]],[[26]],[[10]],['low holistic'],['right'],['upright'],['U0159.bmp'],['female'],[[10]],['female'],[[1]],[[0.00021595]],AG
26,[[17]],[[27]],[[20]],['high holistic'],['left'],['inverted'],['U0362.bmp'],['female'],[[6]],['female'],[[1]],[[0.50616819]],AG
27,[[17]],[[28]],[[8]],['high holistic'],['left'],['upright'],['U0137.bmp'],['female'],[[10]],['female'],[[1]],[[0.22261501]],AG
28,[[17]],[[29]],[[9]],['low holistic'],['right'],['upright'],['U0155.bmp'],['male'],[[12]],['male'],[[1]],[[0.01445776]],AG
29,[[17]],[[30]],[[10]],['high holistic'],['left'],['upright'],['U0159.bmp'],['male'],[[4]],['male'],[[1]],[[9.95211303e-05]],AG
30,[[17]],[[31]],[[7]],['low holistic'],['right'],['upright'],['U0107.bmp'],['female'],[[8]],['female'],[[1]],[[0.00019878]],AG
31,[[17]],[[32]],[[10]],['low holistic'],['left'],['inverted'],['U0159.bmp'],['female'],[[12]],['male'],[[0]],[[0.04538121]],AG
32,[[17]],[[33]],[[10]],['low holistic'],['right'],['upright'],['U0159.bmp'],['female'],[[4]],['female'],[[1]],[[0.00010836]],AG
33,[[17]],[[34]],[[12]],['high holistic'],['right'],['inverted'],['U0178.bmp'],['male'],[[8]],['male'],[[1]],[[0.25245889]],AG
34,[[17]],[[35]],[[11]],['low holistic'],['left'],['upright'],['U0164.bmp'],['female'],[[6]],['female'],[[1]],[[0.00032609]],AG
35,[[17]],[[36]],[[20]],['low holistic'],['right'],['upright'],['U0362.bmp'],['male'],[[2]],['male'],[[1]],[[0.00010772]],AG
36,[[17]],[[37]],[[16]],['low holistic'],['right'],['upright'],['U0335.bmp'],['female'],[[10]],['female'],[[1]],[[0.00011055]],AG
37,[[17]],[[38]],[[16]],['low holistic'],['right'],['inverted'],['U0335.bmp'],['female'],[[8]],['female'],[[1]],[[0.02751213]],AG
38,[[17]],[[39]],[[16]],['high holistic'],['left'],['inverted'],['U0335.bmp'],['female'],[[12]],['female'],[[1]],[[0.48132883]],AG
39,[[17]],[[40]],[[6]],['low holistic'],['right'],['upright'],['U0106.bmp'],['male'],[[8]],['male'],[[1]],[[0.10977458]],AG
40,[[17]],[[41]],[[7]],['low holistic'],['right'],['upright'],['U0107.bmp'],['female'],[[10]],['female'],[[1]],[[0.00012133]],AG
41,[[17]],[[42]],[[2]],['high holistic'],['left'],['upright'],['U0014.bmp'],['male'],[[6]],['male'],[[1]],[[0.000392]],AG
42,[[17]],[[43]],[[19]],['low holistic'],['left'],['upright'],['U0361.bmp'],['female'],[[4]],['female'],[[1]],[[0.00010012]],AG
43,[[17]],[[44]],[[2]],['high holistic'],['left'],['upright'],['U0014.bmp'],['male'],[[8]],['male'],[[1]],[[0.00038871]],AG
44,[[17]],[[45]],[[18]],['high holistic'],['left'],['upright'],['U0359.bmp'],['male'],[[4]],['male'],[[1]],[[0.10599853]],AG
45,[[17]],[[46]],[[8]],['high holistic'],['left'],['inverted'],['U0137.bmp'],['female'],[[2]],['female'],[[1]],[[0.38175669]],AG
46,[[17]],[[47]],[[12]],['low holistic'],['right'],['upright'],['U0178.bmp'],['female'],[[4]],['female'],[[1]],[[0.00011426]],AG
47,[[17]],[[48]],[[9]],['high holistic'],['left'],['inverted'],['U0155.bmp'],['female'],[[10]],['female'],[[1]],[[0.00010848]],AG
48,[[17]],[[49]],[[15]],['high holistic'],['left'],['inverted'],['U0312.bmp'],['male'],[[6]],['female'],[[0]],[[0.04728418]],AG
49,[[17]],[[50]],[[2]],['low holistic'],['left'],['upright'],['U0014.bmp'],['male'],[[4]],['male'],[[1]],[[0.00032381]],AG
50,[[17]],[[51]],[[6]],['low holistic'],['left'],['upright'],['U0106.bmp'],['male'],[[6]],['female'],[[0]],[[0.00010867]],AG
51,[[17]],[[52]],[[2]],['high holistic'],['right'],['upright'],['U0014.bmp'],['male'],[[4]],['male'],[[1]],[[0.00010588]],AG
52,[[17]],[[53]],[[1]],['high holistic'],['left'],['inverted'],['U0006.bmp'],['female'],[[4]],['female'],[[1]],[[6.07617337]],AG
53,[[17]],[[54]],[[4]],['high holistic'],['left'],['inverted'],['U0061.bmp'],['female'],[[4]],['female'],[[1]],[[9.84389335e-05]],AG
54,[[17]],[[55]],[[1]],['high holistic'],['fovea'],['inverted'],['U0006.bmp'],['female'],[[0]],['female'],[[1]],[[0.00091598]],AG
55,[[17]],[[56]],[[17]],['high holistic'],['left'],['inverted'],['U0346.bmp'],['male'],[[4]],['female'],[[0]],[[2.48108296]],AG
56,[[17]],[[57]],[[2]],['high holistic'],['right'],['inverted'],['U0014.bmp'],['male'],[[4]],['female'],[[0]],[[0.0004766]],AG
57,[[17]],[[58]],[[1]],['low holistic'],['right'],['inverted'],['U0006.bmp'],['female'],[[6]],['male'],[[0]],[[0.00010587]],AG
58,[[17]],[[59]],[[19]],['high holistic'],['left'],['upright'],['U0361.bmp'],['female'],[[2]],['male'],[[0]],[[0.04634414]],AG
59,[[17]],[[60]],[[9]],['low holistic'],['right'],['upright'],['U0155.bmp'],['male'],[[6]],['male'],[[1]],[[1.50129351]],AG
60,[[17]],[[61]],[[7]],['low holistic'],['left'],['upright'],['U0107.bmp'],['female'],[[8]],['female'],[[1]],[[0.00010062]],AG
61,[[17]],[[62]],[[17]],['high holistic'],['right'],['inverted'],['U0346.bmp'],['male'],[[10]],['male'],[[1]],[[0.00012061]],AG
62,[[17]],[[63]],[[13]],['low holistic'],['right'],['inverted'],['U0181.bmp'],['male'],[[2]],['female'],[[0]],[[0.00011149]],AG
63,[[17]],[[64]],[[2]],['high holistic'],['right'],['inverted'],['U0014.bmp'],['male'],[[6]],['male'],[[1]],[[8.04823272]],AG
64,[[17]],[[65]],[[12]],['high holistic'],['left'],['upright'],['U0178.bmp'],['male'],[[10]],['female'],[[0]],[[0.00010727]],AG
65,[[17]],[[66]],[[1]],['high holistic'],['left'],['upright'],['U0006.bmp'],['female'],[[12]],['female'],[[1]],[[0.00010034]],AG
66,[[17]],[[67]],[[1]],['low holistic'],['left'],['upright'],['U0006.bmp'],['female'],[[12]],['male'],[[0]],[[0.14189621]],AG
67,[[17]],[[68]],[[14]],['low holistic'],['right'],['inverted'],['U0228.bmp'],['male'],[[6]],['male'],[[1]],[[0.00034602]],AG
68,[[17]],[[69]],[[5]],['high holistic'],['right'],['upright'],['U0076.bmp'],['female'],[[6]],['male'],[[0]],[[0.88979212]],AG
69,[[17]],[[70]],[[10]],['low holistic'],['left'],['upright'],['U0159.bmp'],['female'],[[8]],['female'],[[1]],[[0.00010003]],AG
70,[[17]],[[71]],[[3]],['low holistic'],['right'],['inverted'],['U0020.bmp'],['female'],[[4]],['female'],[[1]],[[0.00025162]],AG
71,[[17]],[[72]],[[8]],['high holistic'],['left'],['inverted'],['U0137.bmp'],['female'],[[8]],['male'],[[0]],[[0.00011575]],AG
72,[[17]],[[73]],[[11]],['high holistic'],['left'],['upright'],['U0164.bmp'],['female'],[[4]],['male'],[[0]],[[0.00010042]],AG
73,[[17]],[[74]],[[8]],['low holistic'],['right'],['inverted'],['U0137.bmp'],['male'],[[4]],['male'],[[1]],[[2.99857873]],AG
74,[[17]],[[75]],[[7]],['high holistic'],['left'],['inverted'],['U0107.bmp'],['female'],[[2]],['female'],[[1]],[[0.00011279]],AG
75,[[17]],[[76]],[[16]],['high holistic'],['left'],['inverted'],['U0335.bmp'],['female'],[[8]],['male'],[[0]],[[3.62831728]],AG
76,[[17]],[[77]],[[14]],['high holistic'],['left'],['inverted'],['U0228.bmp'],['male'],[[12]],['male'],[[1]],[[0.76363573]],AG
77,[[17]],[[78]],[[18]],['high holistic'],['right'],['inverted'],['U0359.bmp'],['male'],[[6]],['male'],[[1]],[[0.00010017]],AG
78,[[17]],[[79]],[[19]],['high holistic'],['left'],['upright'],['U0361.bmp'],['female'],[[2]],['male'],[[0]],[[5.5427486]],AG
79,[[17]],[[80]],[[9]],['low holistic'],['left'],['inverted'],['U0155.bmp'],['male'],[[8]],['female'],[[0]],[[0.00010035]],AG
80,[[17]],[[81]],[[13]],['high holistic'],['left'],['upright'],['U0181.bmp'],['female'],[[2]],['male'],[[0]],[[4.31869818]],AG
81,[[17]],[[82]],[[12]],['high holistic'],['fovea'],['upright'],['U0178.bmp'],['male'],[[0]],['male'],[[1]],[[0.00010819]],AG
82,[[17]],[[83]],[[4]],['high holistic'],['left'],['upright'],['U0061.bmp'],['female'],[[12]],['female'],[[1]],[[0.35481307]],AG
83,[[17]],[[84]],[[11]],['low holistic'],['left'],['inverted'],['U0164.bmp'],['female'],[[2]],['female'],[[1]],[[0.00018352]],AG
84,[[17]],[[85]],[[17]],['low holistic'],['right'],['upright'],['U0346.bmp'],['female'],[[10]],['female'],[[1]],[[0.00015911]],AG
85,[[17]],[[86]],[[15]],['low holistic'],['left'],['inverted'],['U0312.bmp'],['male'],[[8]],['male'],[[1]],[[0.00036672]],AG
86,[[17]],[[87]],[[4]],['high holistic'],['left'],['upright'],['U0061.bmp'],['female'],[[10]],['female'],[[1]],[[0.14823433]],AG
87,[[17]],[[88]],[[19]],['low holistic'],['right'],['upright'],['U0361.bmp'],['female'],[[10]],['female'],[[1]],[[0.00011512]],AG
88,[[17]],[[89]],[[17]],['high holistic'],['left'],['upright'],['U0346.bmp'],['male'],[[4]],['male'],[[1]],[[0.00010058]],AG
89,[[17]],[[90]],[[5]],['low holistic'],['left'],['inverted'],['U0076.bmp'],['male'],[[12]],['male'],[[1]],[[0.06341154]],AG
90,[[17]],[[91]],[[10]],['low holistic'],['left'],['inverted'],['U0159.bmp'],['female'],[[8]],['female'],[[1]],[[0.00413206]],AG
91,[[17]],[[92]],[[15]],['high holistic'],['right'],['inverted'],['U0312.bmp'],['male'],[[2]],['male'],[[1]],[[0.27730498]],AG
92,[[17]],[[93]],[[19]],['high holistic'],['right'],['inverted'],['U0361.bmp'],['female'],[[6]],['female'],[[1]],[[0.03246001]],AG
93,[[17]],[[94]],[[13]],['high holistic'],['left'],['upright'],['U0181.bmp'],['female'],[[8]],['female'],[[1]],[[9.86158848e-05]],AG
94,[[17]],[[95]],[[18]],['low holistic'],['left'],['upright'],['U0359.bmp'],['male'],[[6]],['female'],[[0]],[[7.05576039]],AG
95,[[17]],[[96]],[[7]],['low holistic'],['left'],['upright'],['U0107.bmp'],['female'],[[10]],['female'],[[1]],[[9.95602459e-05]],AG
96,[[17]],[[97]],[[2]],['high holistic'],['right'],['inverted'],['U0014.bmp'],['male'],[[10]],['female'],[[0]],[[0.90951286]],AG
97,[[17]],[[98]],[[14]],['high holistic'],['left'],['inverted'],['U0228.bmp'],['male'],[[12]],['female'],[[0]],[[1.07305708]],AG
98,[[17]],[[99]],[[20]],['low holistic'],['right'],['upright'],['U0362.bmp'],['male'],[[2]],['female'],[[0]],[[0.0001064]],AG
99,[[17]],[[100]],[[11]],['low holistic'],['left'],['upright'],['U0164.bmp'],['female'],[[4]],['female'],[[1]],[[0.0001009]],AG
100,[[17]],[[101]],[[12]],['low holistic'],['fovea'],['inverted'],['U0178.bmp'],['female'],[[0]],['male'],[[0]],[[0.95191113]],AG
101,[[17]],[[102]],[[13]],['high holistic'],['left'],['upright'],['U0181.bmp'],['female'],[[6]],['female'],[[1]],[[1.57721358]],AG
102,[[17]],[[103]],[[17]],['high holistic'],['right'],['inverted'],['U0346.bmp'],['male'],[[4]],['male'],[[1]],[[0.12853526]],AG
103,[[17]],[[104]],[[5]],['low holistic'],['right'],['upright'],['U0076.bmp'],['male'],[[2]],['female'],[[0]],[[9.60306342]],AG
104,[[17]],[[105]],[[6]],['low holistic'],['left'],['inverted'],['U0106.bmp'],['male'],[[8]],['male'],[[1]],[[9.88282263e-05]],AG
105,[[17]],[[106]],[[1]],['low holistic'],['fovea'],['upright'],['U0006.bmp'],['female'],[[0]],['female'],[[1]],[[0.17114498]],AG
106,[[17]],[[107]],[[14]],['low holistic'],['left'],['inverted'],['U0228.bmp'],['male'],[[10]],['male'],[[1]],[[0.17225471]],AG
107,[[17]],[[108]],[[12]],['low holistic'],['right'],['inverted'],['U0178.bmp'],['female'],[[4]],['female'],[[1]],[[0.00460114]],AG
108,[[17]],[[109]],[[8]],['high holistic'],['right'],['upright'],['U0137.bmp'],['female'],[[4]],['male'],[[0]],[[0.08443088]],AG
109,[[17]],[[110]],[[10]],['high holistic'],['left'],['inverted'],['U0159.bmp'],['male'],[[6]],['female'],[[0]],[[0.63576403]],AG
110,[[17]],[[111]],[[15]],['low holistic'],['right'],['inverted'],['U0312.bmp'],['male'],[[4]],['male'],[[1]],[[0.00010664]],AG
111,[[17]],[[112]],[[11]],['low holistic'],['left'],['upright'],['U0164.bmp'],['female'],[[12]],['male'],[[0]],[[0.00012856]],AG
112,[[17]],[[113]],[[18]],['low holistic'],['left'],['inverted'],['U0359.bmp'],['male'],[[10]],['male'],[[1]],[[0.00010031]],AG
113,[[17]],[[114]],[[4]],['low holistic'],['left'],['upright'],['U0061.bmp'],['female'],[[8]],['female'],[[1]],[[0.00010607]],AG
114,[[17]],[[115]],[[2]],['low holistic'],['left'],['inverted'],['U0014.bmp'],['male'],[[2]],['female'],[[0]],[[0.02359349]],AG
115,[[17]],[[116]],[[13]],['low holistic'],['right'],['upright'],['U0181.bmp'],['male'],[[6]],['female'],[[0]],[[9.7187236e-05]],AG
116,[[17]],[[117]],[[17]],['low holistic'],['left'],['inverted'],['U0346.bmp'],['female'],[[10]],['male'],[[0]],[[0.05523069]],AG
117,[[17]],[[118]],[[19]],['low holistic'],['right'],['inverted'],['U0361.bmp'],['female'],[[2]],['male'],[[0]],[[0.11857038]],AG
118,[[17]],[[119]],[[14]],['high holistic'],['right'],['inverted'],['U0228.bmp'],['male'],[[2]],['male'],[[1]],[[1.24096376]],AG
119,[[17]],[[120]],[[6]],['low holistic'],['left'],['inverted'],['U0106.bmp'],['male'],[[6]],['female'],[[0]],[[0.07111332]],AG
120,[[17]],[[121]],[[5]],['low holistic'],['left'],['inverted'],['U0076.bmp'],['male'],[[12]],['female'],[[0]],[[0.02001093]],AG
121,[[17]],[[122]],[[7]],['low holistic'],['right'],['upright'],['U0107.bmp'],['female'],[[8]],['male'],[[0]],[[0.31562782]],AG
122,[[17]],[[123]],[[7]],['low holistic'],['left'],['inverted'],['U0107.bmp'],['female'],[[10]],['female'],[[1]],[[0.07033361]],AG
123,[[17]],[[124]],[[20]],['low holistic'],['left'],['inverted'],['U0362.bmp'],['male'],[[2]],['male'],[[1]],[[0.00010026]],AG
124,[[17]],[[125]],[[2]],['high holistic'],['right'],['upright'],['U0014.bmp'],['male'],[[4]],['female'],[[0]],[[0.50814022]],AG
125,[[17]],[[126]],[[7]],['low holistic'],['right'],['inverted'],['U0107.bmp'],['female'],[[4]],['male'],[[0]],[[0.04719735]],AG
126,[[17]],[[127]],[[6]],['high holistic'],['right'],['upright'],['U0106.bmp'],['female'],[[4]],['female'],[[1]],[[0.10941087]],AG
127,[[17]],[[128]],[[6]],['low holistic'],['right'],['upright'],['U0106.bmp'],['male'],[[8]],['male'],[[1]],[[0.00041558]],AG
128,[[17]],[[129]],[[13]],['low holistic'],['fovea'],['inverted'],['U0181.bmp'],['male'],[[0]],['male'],[[1]],[[0.69073195]],AG
129,[[17]],[[130]],[[12]],['high holistic'],['right'],['upright'],['U0178.bmp'],['male'],[[12]],['male'],[[1]],[[0.11061198]],AG
130,[[17]],[[131]],[[1]],['low holistic'],['left'],['upright'],['U0006.bmp'],['female'],[[10]],['female'],[[1]],[[0.53956707]],AG
131,[[17]],[[132]],[[20]],['high holistic'],['right'],['upright'],['U0362.bmp'],['female'],[[4]],['male'],[[0]],[[0.18353063]],AG
132,[[17]],[[133]],[[8]],['high holistic'],['left'],['upright'],['U0137.bmp'],['female'],[[2]],['male'],[[0]],[[0.30388292]],AG
133,[[17]],[[134]],[[16]],['high holistic'],['left'],['upright'],['U0335.bmp'],['female'],[[12]],['male'],[[0]],[[0.00010067]],AG
134,[[17]],[[135]],[[9]],['low holistic'],['right'],['upright'],['U0155.bmp'],['male'],[[8]],['female'],[[0]],[[0.16888811]],AG
135,[[17]],[[136]],[[20]],['high holistic'],['left'],['inverted'],['U0362.bmp'],['female'],[[12]],['female'],[[1]],[[0.00010001]],AG
136,[[17]],[[137]],[[18]],['low holistic'],['right'],['inverted'],['U0359.bmp'],['male'],[[10]],['female'],[[0]],[[9.94186848e-05]],AG
137,[[17]],[[138]],[[18]],['low holistic'],['right'],['upright'],['U0359.bmp'],['male'],[[12]],['female'],[[0]],[[0.35196077]],AG
138,[[17]],[[139]],[[3]],['low holistic'],['right'],['upright'],['U0020.bmp'],['female'],[[12]],['female'],[[1]],[[9.9921599e-05]],AG
139,[[17]],[[140]],[[16]],['low holistic'],['fovea'],['inverted'],['U0335.bmp'],['female'],[[0]],['male'],[[0]],[[0.14699908]],AG
140,[[17]],[[141]],[[6]],['high holistic'],['right'],['inverted'],['U0106.bmp'],['female'],[[2]],['female'],[[1]],[[9.97092575e-05]],AG
141,[[17]],[[142]],[[17]],['high holistic'],['right'],['inverted'],['U0346.bmp'],['male'],[[6]],['male'],[[1]],[[0.2209919]],AG
142,[[17]],[[143]],[[18]],['high holistic'],['left'],['inverted'],['U0359.bmp'],['male'],[[10]],['male'],[[1]],[[0.16315884]],AG
143,[[17]],[[144]],[[17]],['low holistic'],['fovea'],['inverted'],['U0346.bmp'],['female'],[[0]],['female'],[[1]],[[0.00010177]],AG
144,[[17]],[[145]],[[1]],['low holistic'],['fovea'],['upright'],['U0006.bmp'],['female'],[[0]],['male'],[[0]],[[0.00010118]],AG
145,[[17]],[[146]],[[10]],['low holistic'],['right'],['upright'],['U0159.bmp'],['female'],[[10]],['male'],[[0]],[[0.38017403]],AG
146,[[17]],[[147]],[[13]],['low holistic'],['right'],['upright'],['U0181.bmp'],['male'],[[8]],['male'],[[1]],[[0.00023821]],AG
147,[[17]],[[148]],[[1]],['high holistic'],['right'],['inverted'],['U0006.bmp'],['female'],[[12]],['female'],[[1]],[[0.56719226]],AG
148,[[17]],[[149]],[[9]],['high holistic'],['right'],['inverted'],['U0155.bmp'],['female'],[[10]],['male'],[[0]],[[0.10266985]],AG
149,[[17]],[[150]],[[3]],['low holistic'],['left'],['inverted'],['U0020.bmp'],['female'],[[12]],['male'],[[0]],[[0.06779042]],AG
150,[[17]],[[151]],[[15]],['low holistic'],['right'],['upright'],['U0312.bmp'],['male'],[[8]],['female'],[[0]],[[0.00010111]],AG
151,[[17]],[[152]],[[14]],['high holistic'],['right'],['inverted'],['U0228.bmp'],['male'],[[6]],['male'],[[1]],[[0.00010916]],AG
152,[[17]],[[153]],[[15]],['low holistic'],['left'],['upright'],['U0312.bmp'],['male'],[[10]],['female'],[[0]],[[0.11310472]],AG
153,[[17]],[[154]],[[20]],['low holistic'],['right'],['inverted'],['U0362.bmp'],['male'],[[4]],['male'],[[1]],[[0.00013793]],AG
154,[[17]],[[155]],[[19]],['high holistic'],['right'],['inverted'],['U0361.bmp'],['female'],[[12]],['female'],[[1]],[[0.00010663]],AG
155,[[17]],[[156]],[[3]],['low holistic'],['right'],['upright'],['U0020.bmp'],['female'],[[4]],['female'],[[1]],[[0.20387384]],AG
156,[[17]],[[157]],[[16]],['low holistic'],['right'],['upright'],['U0335.bmp'],['female'],[[10]],['female'],[[1]],[[0.00010035]],AG
157,[[17]],[[158]],[[18]],['low holistic'],['right'],['upright'],['U0359.bmp'],['male'],[[12]],['male'],[[1]],[[0.00010667]],AG
158,[[17]],[[159]],[[8]],['high holistic'],['left'],['upright'],['U0137.bmp'],['female'],[[4]],['female'],[[1]],[[0.00033335]],AG
159,[[17]],[[160]],[[13]],['high holistic'],['left'],['upright'],['U0181.bmp'],['female'],[[4]],['female'],[[1]],[[0.00010031]],AG
160,[[17]],[[161]],[[20]],['high holistic'],['right'],['inverted'],['U0362.bmp'],['female'],[[6]],['male'],[[0]],[[0.00010598]],AG
161,[[17]],[[162]],[[15]],['high holistic'],['left'],['upright'],['U0312.bmp'],['male'],[[8]],['female'],[[0]],[[0.10100016]],AG
162,[[17]],[[163]],[[8]],['low holistic'],['left'],['upright'],['U0137.bmp'],['male'],[[8]],['male'],[[1]],[[9.9780038e-05]],AG
163,[[17]],[[164]],[[4]],['low holistic'],['left'],['upright'],['U0061.bmp'],['female'],[[2]],['male'],[[0]],[[9.99663025e-05]],AG
164,[[17]],[[165]],[[9]],['low holistic'],['left'],['inverted'],['U0155.bmp'],['male'],[[6]],['female'],[[0]],[[0.12035675]],AG
165,[[17]],[[166]],[[13]],['high holistic'],['right'],['inverted'],['U0181.bmp'],['female'],[[8]],['female'],[[1]],[[0.00011069]],AG
166,[[17]],[[167]],[[8]],['low holistic'],['left'],['upright'],['U0137.bmp'],['male'],[[2]],['male'],[[1]],[[0.53945414]],AG
167,[[17]],[[168]],[[1]],['high holistic'],['right'],['inverted'],['U0006.bmp'],['female'],[[4]],['male'],[[0]],[[0.31713995]],AG
168,[[17]],[[169]],[[2]],['low holistic'],['right'],['inverted'],['U0014.bmp'],['male'],[[12]],['female'],[[0]],[[7.42473251]],AG
169,[[17]],[[170]],[[9]],['high holistic'],['right'],['upright'],['U0155.bmp'],['female'],[[4]],['male'],[[0]],[[9.9979341e-05]],AG
170,[[17]],[[171]],[[20]],['high holistic'],['right'],['inverted'],['U0362.bmp'],['female'],[[2]],['male'],[[0]],[[0.0001009]],AG
171,[[17]],[[172]],[[14]],['low holistic'],['left'],['inverted'],['U0228.bmp'],['male'],[[8]],['female'],[[0]],[[0.06345278]],AG
172,[[17]],[[173]],[[12]],['low holistic'],['right'],['upright'],['U0178.bmp'],['female'],[[2]],['female'],[[1]],[[9.95341688e-05]],AG
173,[[17]],[[174]],[[20]],['low holistic'],['left'],['inverted'],['U0362.bmp'],['male'],[[12]],['female'],[[0]],[[0.00010227]],AG
174,[[17]],[[175]],[[9]],['low holistic'],['right'],['inverted'],['U0155.bmp'],['male'],[[6]],['female'],[[0]],[[0.00010768]],AG
175,[[17]],[[176]],[[16]],['low holistic'],['left'],['inverted'],['U0335.bmp'],['female'],[[4]],['female'],[[1]],[[0.00010113]],AG
176,[[17]],[[177]],[[5]],['high holistic'],['left'],['upright'],['U0076.bmp'],['female'],[[6]],['female'],[[1]],[[9.95974988e-05]],AG
177,[[17]],[[178]],[[10]],['low holistic'],['left'],['inverted'],['U0159.bmp'],['female'],[[8]],['male'],[[0]],[[0.60636103]],AG
178,[[17]],[[179]],[[19]],['low holistic'],['left'],['inverted'],['U0361.bmp'],['female'],[[6]],['male'],[[0]],[[2.8531692]],AG
179,[[17]],[[180]],[[20]],['high holistic'],['left'],['inverted'],['U0362.bmp'],['female'],[[2]],['male'],[[0]],[[1.13086918]],AG
180,[[17]],[[181]],[[16]],['high holistic'],['right'],['inverted'],['U0335.bmp'],['female'],[[6]],['male'],[[0]],[[0.07740691]],AG
181,[[17]],[[182]],[[1]],['high holistic'],['left'],['upright'],['U0006.bmp'],['female'],[[2]],['male'],[[0]],[[0.03415941]],AG
182,[[17]],[[183]],[[14]],['high holistic'],['right'],['inverted'],['U0228.bmp'],['male'],[[4]],['female'],[[0]],[[0.12968855]],AG
183,[[17]],[[184]],[[20]],['high holistic'],['right'],['inverted'],['U0362.bmp'],['female'],[[8]],['male'],[[0]],[[9.84109938e-05]],AG
184,[[17]],[[185]],[[4]],['low holistic'],['right'],['inverted'],['U0061.bmp'],['female'],[[10]],['female'],[[1]],[[0.348435]],AG
185,[[17]],[[186]],[[19]],['low holistic'],['left'],['inverted'],['U0361.bmp'],['female'],[[8]],['female'],[[1]],[[0.2149777]],AG
186,[[17]],[[187]],[[18]],['high holistic'],['right'],['upright'],['U0359.bmp'],['male'],[[12]],['female'],[[0]],[[0.00010009]],AG
187,[[17]],[[188]],[[13]],['high holistic'],['right'],['inverted'],['U0181.bmp'],['female'],[[4]],['male'],[[0]],[[3.51686635]],AG
188,[[17]],[[189]],[[14]],['low holistic'],['right'],['upright'],['U0228.bmp'],['male'],[[12]],['male'],[[1]],[[0.90548857]],AG
189,[[17]],[[190]],[[19]],['low holistic'],['left'],['upright'],['U0361.bmp'],['female'],[[12]],['female'],[[1]],[[1.15559687]],AG
190,[[17]],[[191]],[[1]],['high holistic'],['left'],['inverted'],['U0006.bmp'],['female'],[[8]],['male'],[[0]],[[0.00010692]],AG
191,[[17]],[[192]],[[12]],['low holistic'],['right'],['upright'],['U0178.bmp'],['female'],[[4]],['male'],[[0]],[[0.25278128]],AG
192,[[17]],[[193]],[[18]],['high holistic'],['right'],['upright'],['U0359.bmp'],['male'],[[8]],['male'],[[1]],[[0.3073105]],AG
193,[[17]],[[194]],[[12]],['high holistic'],['left'],['upright'],['U0178.bmp'],['male'],[[4]],['male'],[[1]],[[0.74376958]],AG
194,[[17]],[[195]],[[3]],['high holistic'],['right'],['upright'],['U0020.bmp'],['male'],[[12]],['male'],[[1]],[[0.37707868]],AG
195,[[17]],[[196]],[[4]],['high holistic'],['right'],['inverted'],['U0061.bmp'],['female'],[[4]],['male'],[[0]],[[0.06039302]],AG
196,[[17]],[[197]],[[12]],['low holistic'],['left'],['inverted'],['U0178.bmp'],['female'],[[8]],['male'],[[0]],[[2.55400194]],AG
197,[[17]],[[198]],[[6]],['low holistic'],['right'],['upright'],['U0106.bmp'],['male'],[[10]],['male'],[[1]],[[0.96234946]],AG
198,[[17]],[[199]],[[7]],['high holistic'],['right'],['upright'],['U0107.bmp'],['female'],[[10]],['female'],[[1]],[[0.15484215]],AG
199,[[17]],[[200]],[[7]],['high holistic'],['left'],['inverted'],['U0107.bmp'],['female'],[[4]],['male'],[[0]],[[0.38280532]],AG
200,[[17]],[[201]],[[17]],['low holistic'],['right'],['inverted'],['U0346.bmp'],['female'],[[2]],['female'],[[1]],[[0.00010678]],AG
201,[[17]],[[202]],[[20]],['low holistic'],['right'],['upright'],['U0362.bmp'],['male'],[[8]],['female'],[[0]],[[1.20688783]],AG
202,[[17]],[[203]],[[14]],['low holistic'],['right'],['inverted'],['U0228.bmp'],['male'],[[12]],['female'],[[0]],[[0.20691345]],AG
203,[[17]],[[204]],[[4]],['high holistic'],['left'],['inverted'],['U0061.bmp'],['female'],[[4]],['male'],[[0]],[[0.00010083]],AG
204,[[17]],[[205]],[[12]],['low holistic'],['left'],['inverted'],['U0178.bmp'],['female'],[[4]],['male'],[[0]],[[0.00010013]],AG
205,[[17]],[[206]],[[9]],['high holistic'],['right'],['inverted'],['U0155.bmp'],['female'],[[6]],['male'],[[0]],[[0.38988219]],AG
206,[[17]],[[207]],[[12]],['low holistic'],['left'],['inverted'],['U0178.bmp'],['female'],[[4]],['male'],[[0]],[[0.41415627]],AG
207,[[17]],[[208]],[[18]],['low holistic'],['left'],['upright'],['U0359.bmp'],['male'],[[2]],['female'],[[0]],[[0.10124853]],AG
208,[[17]],[[209]],[[4]],['low holistic'],['right'],['inverted'],['U0061.bmp'],['female'],[[4]],['male'],[[0]],[[0.00010096]],AG
209,[[17]],[[210]],[[14]],['low holistic'],['fovea'],['inverted'],['U0228.bmp'],['male'],[[0]],['male'],[[1]],[[0.0001002]],AG
210,[[17]],[[211]],[[13]],['low holistic'],['right'],['inverted'],['U0181.bmp'],['male'],[[6]],['male'],[[1]],[[0.1040273]],AG
211,[[17]],[[212]],[[2]],['low holistic'],['right'],['inverted'],['U0014.bmp'],['male'],[[6]],['female'],[[0]],[[0.00010001]],AG
212,[[17]],[[213]],[[4]],['low holistic'],['left'],['upright'],['U0061.bmp'],['female'],[[10]],['female'],[[1]],[[0.0001085]],AG
213,[[17]],[[214]],[[4]],['high holistic'],['right'],['upright'],['U0061.bmp'],['female'],[[10]],['female'],[[1]],[[9.95546579e-05]],AG
214,[[17]],[[215]],[[19]],['high holistic'],['right'],['upright'],['U0361.bmp'],['female'],[[8]],['female'],[[1]],[[9.95434821e-05]],AG
215,[[17]],[[216]],[[2]],['low holistic'],['left'],['inverted'],['U0014.bmp'],['male'],[[4]],['female'],[[0]],[[2.02999786]],AG
216,[[17]],[[217]],[[14]],['low holistic'],['right'],['inverted'],['U0228.bmp'],['male'],[[12]],['female'],[[0]],[[0.00010023]],AG
217,[[17]],[[218]],[[6]],['low holistic'],['right'],['upright'],['U0106.bmp'],['male'],[[12]],['male'],[[1]],[[0.01252373]],AG
218,[[17]],[[219]],[[20]],['high holistic'],['left'],['inverted'],['U0362.bmp'],['female'],[[8]],['female'],[[1]],[[0.39541559]],AG
219,[[17]],[[220]],[[17]],['low holistic'],['left'],['inverted'],['U0346.bmp'],['female'],[[6]],['female'],[[1]],[[0.06011931]],AG
220,[[17]],[[221]],[[7]],['high holistic'],['left'],['upright'],['U0107.bmp'],['female'],[[6]],['female'],[[1]],[[0.00011279]],AG
221,[[17]],[[222]],[[10]],['high holistic'],['left'],['upright'],['U0159.bmp'],['male'],[[10]],['male'],[[1]],[[0.00010636]],AG
222,[[17]],[[223]],[[5]],['low holistic'],['left'],['upright'],['U0076.bmp'],['male'],[[2]],['male'],[[1]],[[0.00010904]],AG
223,[[17]],[[224]],[[17]],['low holistic'],['left'],['upright'],['U0346.bmp'],['female'],[[2]],['female'],[[1]],[[0.41681828]],AG
224,[[17]],[[225]],[[7]],['low holistic'],['right'],['upright'],['U0107.bmp'],['female'],[[12]],['male'],[[0]],[[0.03225475]],AG
225,[[17]],[[226]],[[7]],['low holistic'],['right'],['inverted'],['U0107.bmp'],['female'],[[2]],['female'],[[1]],[[0.21453247]],AG
226,[[17]],[[227]],[[8]],['high holistic'],['right'],['inverted'],['U0137.bmp'],['female'],[[8]],['female'],[[1]],[[8.54916015]],AG
227,[[17]],[[228]],[[8]],['low holistic'],['left'],['upright'],['U0137.bmp'],['male'],[[10]],['male'],[[1]],[[0.04098764]],AG
228,[[17]],[[229]],[[14]],['low holistic'],['right'],['inverted'],['U0228.bmp'],['male'],[[2]],['male'],[[1]],[[0.0001619]],AG
229,[[17]],[[230]],[[13]],['low holistic'],['right'],['inverted'],['U0181.bmp'],['male'],[[10]],['female'],[[0]],[[0.0001012]],AG
230,[[17]],[[231]],[[4]],['high holistic'],['left'],['upright'],['U0061.bmp'],['female'],[[4]],['male'],[[0]],[[0.00010771]],AG
231,[[17]],[[232]],[[9]],['low holistic'],['right'],['inverted'],['U0155.bmp'],['male'],[[6]],['female'],[[0]],[[0.00010757]],AG
232,[[17]],[[233]],[[13]],['high holistic'],['right'],['inverted'],['U0181.bmp'],['female'],[[4]],['female'],[[1]],[[0.00013193]],AG
233,[[17]],[[234]],[[20]],['high holistic'],['right'],['upright'],['U0362.bmp'],['female'],[[4]],['male'],[[0]],[[0.02171914]],AG
234,[[17]],[[235]],[[10]],['high holistic'],['right'],['upright'],['U0159.bmp'],['male'],[[2]],['male'],[[1]],[[0.44706164]],AG
235,[[17]],[[236]],[[10]],['high holistic'],['right'],['inverted'],['U0159.bmp'],['male'],[[12]],['male'],[[1]],[[0.63670136]],AG
236,[[17]],[[237]],[[17]],['low holistic'],['right'],['upright'],['U0346.bmp'],['female'],[[4]],['male'],[[0]],[[1.34683689]],AG
237,[[17]],[[238]],[[10]],['high holistic'],['left'],['upright'],['U0159.bmp'],['male'],[[8]],['male'],[[1]],[[2.16501082]],AG
238,[[17]],[[239]],[[10]],['high holistic'],['right'],['upright'],['U0159.bmp'],['male'],[[8]],['male'],[[1]],[[0.00010726]],AG
239,[[17]],[[240]],[[14]],['high holistic'],['left'],['inverted'],['U0228.bmp'],['male'],[[4]],['female'],[[0]],[[0.00017957]],AG
240,[[17]],[[241]],[[20]],['low holistic'],['right'],['upright'],['U0362.bmp'],['male'],[[12]],['male'],[[1]],[[1.8142473]],AG
241,[[17]],[[242]],[[6]],['high holistic'],['left'],['upright'],['U0106.bmp'],['female'],[[10]],['male'],[[0]],[[0.00035687]],AG
242,[[17]],[[243]],[[18]],['high holistic'],['left'],['upright'],['U0359.bmp'],['male'],[[10]],['male'],[[1]],[[0.47720881]],AG
243,[[17]],[[244]],[[8]],['low holistic'],['left'],['inverted'],['U0137.bmp'],['male'],[[10]],['female'],[[0]],[[0.09040546]],AG
244,[[17]],[[245]],[[6]],['high holistic'],['right'],['inverted'],['U0106.bmp'],['female'],[[10]],['male'],[[0]],[[0.26925168]],AG
245,[[17]],[[246]],[[5]],['low holistic'],['fovea'],['upright'],['U0076.bmp'],['male'],[[0]],['female'],[[0]],[[0.05219613]],AG
246,[[17]],[[247]],[[17]],['low holistic'],['left'],['upright'],['U0346.bmp'],['female'],[[8]],['female'],[[1]],[[0.26556159]],AG
247,[[17]],[[248]],[[20]],['high holistic'],['left'],['upright'],['U0362.bmp'],['female'],[[10]],['female'],[[1]],[[0.00015902]],AG
248,[[17]],[[249]],[[7]],['high holistic'],['left'],['upright'],['U0107.bmp'],['female'],[[8]],['male'],[[0]],[[0.27180022]],AG
249,[[17]],[[250]],[[18]],['high holistic'],['left'],['inverted'],['U0359.bmp'],['male'],[[6]],['male'],[[1]],[[0.0001015]],AG
250,[[17]],[[251]],[[19]],['low holistic'],['right'],['upright'],['U0361.bmp'],['female'],[[2]],['female'],[[1]],[[0.31686954]],AG
251,[[17]],[[252]],[[18]],['low holistic'],['right'],['upright'],['U0359.bmp'],['male'],[[10]],['female'],[[0]],[[0.00017675]],AG
252,[[17]],[[253]],[[10]],['high holistic'],['right'],['inverted'],['U0159.bmp'],['male'],[[12]],['female'],[[0]],[[0.0786131]],AG
253,[[17]],[[254]],[[17]],['high holistic'],['left'],['inverted'],['U0346.bmp'],['male'],[[12]],['female'],[[0]],[[0.85080196]],AG
254,[[17]],[[255]],[[11]],['low holistic'],['right'],['inverted'],['U0164.bmp'],['female'],[[6]],['male'],[[0]],[[0.00012295]],AG
255,[[17]],[[256]],[[20]],['high holistic'],['left'],['upright'],['U0362.bmp'],['female'],[[10]],['male'],[[0]],[[0.00010809]],AG
256,[[17]],[[257]],[[13]],['high holistic'],['right'],['upright'],['U0181.bmp'],['female'],[[6]],['female'],[[1]],[[0.36915755]],AG
257,[[17]],[[258]],[[20]],['low holistic'],['right'],['upright'],['U0362.bmp'],['male'],[[12]],['female'],[[0]],[[1.09209715]],AG
258,[[17]],[[259]],[[9]],['low holistic'],['left'],['inverted'],['U0155.bmp'],['male'],[[2]],['female'],[[0]],[[0.08053135]],AG
259,[[17]],[[260]],[[14]],['low holistic'],['right'],['upright'],['U0228.bmp'],['male'],[[8]],['male'],[[1]],[[0.00011077]],AG
260,[[17]],[[261]],[[19]],['low holistic'],['right'],['upright'],['U0361.bmp'],['female'],[[10]],['female'],[[1]],[[0.00010057]],AG
261,[[17]],[[262]],[[5]],['high holistic'],['right'],['inverted'],['U0076.bmp'],['female'],[[8]],['female'],[[1]],[[0.00011686]],AG
262,[[17]],[[263]],[[14]],['low holistic'],['left'],['upright'],['U0228.bmp'],['male'],[[6]],['male'],[[1]],[[0.29333481]],AG
263,[[17]],[[264]],[[11]],['high holistic'],['right'],['upright'],['U0164.bmp'],['female'],[[6]],['female'],[[1]],[[0.23955103]],AG
264,[[17]],[[265]],[[7]],['high holistic'],['left'],['upright'],['U0107.bmp'],['female'],[[10]],['male'],[[0]],[[0.00017412]],AG
265,[[17]],[[266]],[[6]],['high holistic'],['right'],['upright'],['U0106.bmp'],['female'],[[6]],['male'],[[0]],[[0.11083057]],AG
266,[[17]],[[267]],[[17]],['low holistic'],['right'],['inverted'],['U0346.bmp'],['female'],[[2]],['male'],[[0]],[[0.77927922]],AG
267,[[17]],[[268]],[[12]],['low holistic'],['left'],['upright'],['U0178.bmp'],['female'],[[10]],['female'],[[1]],[[1.2751186]],AG
268,[[17]],[[269]],[[16]],['high holistic'],['left'],['inverted'],['U0335.bmp'],['female'],[[6]],['female'],[[1]],[[4.4080518]],AG
269,[[17]],[[270]],[[18]],['low holistic'],['right'],['upright'],['U0359.bmp'],['male'],[[10]],['female'],[[0]],[[8.15229113]],AG
270,[[17]],[[271]],[[12]],['high holistic'],['right'],['inverted'],['U0178.bmp'],['male'],[[2]],['male'],[[1]],[[0.00010609]],AG
271,[[17]],[[272]],[[2]],['low holistic'],['fovea'],['upright'],['U0014.bmp'],['male'],[[0]],['female'],[[0]],[[0.06467013]],AG
272,[[17]],[[273]],[[11]],['high holistic'],['right'],['inverted'],['U0164.bmp'],['female'],[[4]],['male'],[[0]],[[0.20669629]],AG
273,[[17]],[[274]],[[17]],['low holistic'],['right'],['inverted'],['U0346.bmp'],['female'],[[8]],['male'],[[0]],[[0.26372347]],AG
274,[[17]],[[275]],[[11]],['high holistic'],['left'],['inverted'],['U0164.bmp'],['female'],[[4]],['male'],[[0]],[[0.01079302]],AG
275,[[17]],[[276]],[[16]],['high holistic'],['right'],['inverted'],['U0335.bmp'],['female'],[[2]],['male'],[[0]],[[0.00010927]],AG
276,[[17]],[[277]],[[14]],['high holistic'],['right'],['inverted'],['U0228.bmp'],['male'],[[8]],['male'],[[1]],[[9.94093716e-05]],AG
277,[[17]],[[278]],[[3]],['low holistic'],['right'],['upright'],['U0020.bmp'],['female'],[[12]],['male'],[[0]],[[0.00010193]],AG
278,[[17]],[[279]],[[8]],['low holistic'],['right'],['inverted'],['U0137.bmp'],['male'],[[10]],['male'],[[1]],[[0.48210459]],AG
279,[[17]],[[280]],[[11]],['low holistic'],['left'],['inverted'],['U0164.bmp'],['female'],[[12]],['male'],[[0]],[[9.98880714e-05]],AG
280,[[17]],[[281]],[[1]],['high holistic'],['left'],['inverted'],['U0006.bmp'],['female'],[[10]],['male'],[[0]],[[9.88058746e-05]],AG
281,[[17]],[[282]],[[1]],['low holistic'],['left'],['inverted'],['U0006.bmp'],['female'],[[8]],['male'],[[0]],[[0.46302563]],AG
282,[[17]],[[283]],[[6]],['high holistic'],['right'],['upright'],['U0106.bmp'],['female'],[[8]],['male'],[[0]],[[0.00010048]],AG
283,[[17]],[[284]],[[6]],['low holistic'],['right'],['inverted'],['U0106.bmp'],['male'],[[6]],['female'],[[0]],[[0.19612593]],AG
284,[[17]],[[285]],[[17]],['low holistic'],['right'],['inverted'],['U0346.bmp'],['female'],[[12]],['female'],[[1]],[[0.00012255]],AG
285,[[17]],[[286]],[[9]],['low holistic'],['right'],['upright'],['U0155.bmp'],['male'],[[6]],['female'],[[0]],[[0.00010749]],AG
286,[[17]],[[287]],[[11]],['low holistic'],['left'],['inverted'],['U0164.bmp'],['female'],[[6]],['female'],[[1]],[[6.9000248]],AG
287,[[17]],[[288]],[[17]],['high holistic'],['right'],['inverted'],['U0346.bmp'],['male'],[[4]],['male'],[[1]],[[1.39127145]],AG
288,[[17]],[[289]],[[12]],['low holistic'],['fovea'],['upright'],['U0178.bmp'],['female'],[[0]],['female'],[[1]],[[0.00011314]],AG
289,[[17]],[[290]],[[11]],['low holistic'],['right'],['inverted'],['U0164.bmp'],['female'],[[8]],['female'],[[1]],[[0.00010137]],AG
290,[[17]],[[291]],[[18]],['high holistic'],['left'],['upright'],['U0359.bmp'],['male'],[[8]],['female'],[[0]],[[0.00025036]],AG
291,[[17]],[[292]],[[14]],['high holistic'],['left'],['upright'],['U0228.bmp'],['male'],[[12]],['female'],[[0]],[[0.00042224]],AG
292,[[17]],[[293]],[[4]],['low holistic'],['left'],['inverted'],['U0061.bmp'],['female'],[[10]],['male'],[[0]],[[0.03154388]],AG
293,[[17]],[[294]],[[18]],['high holistic'],['left'],['upright'],['U0359.bmp'],['male'],[[2]],['male'],[[1]],[[0.60595206]],AG
294,[[17]],[[295]],[[8]],['high holistic'],['right'],['inverted'],['U0137.bmp'],['female'],[[2]],['male'],[[0]],[[0.18980362]],AG
295,[[17]],[[296]],[[9]],['high holistic'],['left'],['upright'],['U0155.bmp'],['female'],[[12]],['male'],[[0]],[[0.0001066]],AG
296,[[17]],[[297]],[[15]],['low holistic'],['right'],['upright'],['U0312.bmp'],['male'],[[8]],['female'],[[0]],[[0.11937515]],AG
297,[[17]],[[298]],[[12]],['low holistic'],['right'],['upright'],['U0178.bmp'],['female'],[[12]],['male'],[[0]],[[9.98079777e-05]],AG
298,[[17]],[[299]],[[6]],['low holistic'],['right'],['inverted'],['U0106.bmp'],['male'],[[6]],['male'],[[1]],[[0.00010882]],AG
299,[[17]],[[300]],[[6]],['high holistic'],['right'],['inverted'],['U0106.bmp'],['female'],[[6]],['male'],[[0]],[[0.00010851]],AG
300,[[17]],[[301]],[[6]],['low holistic'],['right'],['inverted'],['U0106.bmp'],['male'],[[2]],['female'],[[0]],[[0.17677704]],AG
301,[[17]],[[302]],[[1]],['high holistic'],['left'],['inverted'],['U0006.bmp'],['female'],[[10]],['male'],[[0]],[[0.05710467]],AG
302,[[17]],[[303]],[[5]],['high holistic'],['right'],['inverted'],['U0076.bmp'],['female'],[[2]],['female'],[[1]],[[0.00010181]],AG
303,[[17]],[[304]],[[6]],['high holistic'],['left'],['upright'],['U0106.bmp'],['female'],[[2]],['female'],[[1]],[[0.01495687]],AG
304,[[17]],[[305]],[[6]],['low holistic'],['left'],['inverted'],['U0106.bmp'],['male'],[[8]],['male'],[[1]],[[0.08745917]],AG
305,[[17]],[[306]],[[12]],['high holistic'],['left'],['upright'],['U0178.bmp'],['male'],[[8]],['female'],[[0]],[[0.00032166]],AG
306,[[17]],[[307]],[[8]],['low holistic'],['right'],['upright'],['U0137.bmp'],['male'],[[6]],['female'],[[0]],[[0.00013851]],AG
307,[[17]],[[308]],[[4]],['low holistic'],['right'],['upright'],['U0061.bmp'],['female'],[[2]],['male'],[[0]],[[0.0917772]],AG
308,[[17]],[[309]],[[7]],['low holistic'],['left'],['upright'],['U0107.bmp'],['female'],[[2]],['female'],[[1]],[[5.86292747]],AG
309,[[17]],[[310]],[[12]],['high holistic'],['fovea'],['inverted'],['U0178.bmp'],['male'],[[0]],['male'],[[1]],[[0.00010002]],AG
310,[[17]],[[311]],[[8]],['high holistic'],['right'],['upright'],['U0137.bmp'],['female'],[[2]],['female'],[[1]],[[0.00010056]],AG
311,[[17]],[[312]],[[18]],['high holistic'],['left'],['inverted'],['U0359.bmp'],['male'],[[12]],['male'],[[1]],[[3.1561974]],AG
312,[[17]],[[313]],[[3]],['high holistic'],['right'],['inverted'],['U0020.bmp'],['male'],[[4]],['male'],[[1]],[[0.00034264]],AG
313,[[17]],[[314]],[[2]],['high holistic'],['right'],['inverted'],['U0014.bmp'],['male'],[[8]],['male'],[[1]],[[9.95993614e-05]],AG
314,[[17]],[[315]],[[9]],['high holistic'],['left'],['inverted'],['U0155.bmp'],['female'],[[10]],['female'],[[1]],[[0.14985943]],AG
315,[[17]],[[316]],[[11]],['high holistic'],['left'],['inverted'],['U0164.bmp'],['female'],[[8]],['female'],[[1]],[[1.20752191]],AG
316,[[17]],[[317]],[[11]],['low holistic'],['right'],['inverted'],['U0164.bmp'],['female'],[[6]],['female'],[[1]],[[0.88729361]],AG
317,[[17]],[[318]],[[7]],['high holistic'],['right'],['upright'],['U0107.bmp'],['female'],[[12]],['male'],[[0]],[[0.30891294]],AG
318,[[17]],[[319]],[[5]],['high holistic'],['right'],['inverted'],['U0076.bmp'],['female'],[[4]],['female'],[[1]],[[0.00010071]],AG
319,[[17]],[[320]],[[14]],['low holistic'],['left'],['inverted'],['U0228.bmp'],['male'],[[10]],['male'],[[1]],[[0.00010307]],AG
320,[[17]],[[321]],[[4]],['high holistic'],['left'],['upright'],['U0061.bmp'],['female'],[[12]],['female'],[[1]],[[0.00011827]],AG
321,[[17]],[[322]],[[19]],['low holistic'],['right'],['inverted'],['U0361.bmp'],['female'],[[2]],['female'],[[1]],[[0.00010075]],AG
322,[[17]],[[323]],[[19]],['high holistic'],['right'],['upright'],['U0361.bmp'],['female'],[[2]],['male'],[[0]],[[9.93590802e-05]],AG
323,[[17]],[[324]],[[3]],['low holistic'],['left'],['upright'],['U0020.bmp'],['female'],[[4]],['female'],[[1]],[[0.13709848]],AG
324,[[17]],[[325]],[[12]],['high holistic'],['right'],['inverted'],['U0178.bmp'],['male'],[[2]],['male'],[[1]],[[0.32905981]],AG
325,[[17]],[[326]],[[5]],['high holistic'],['right'],['upright'],['U0076.bmp'],['female'],[[4]],['female'],[[1]],[[0.20351723]],AG
326,[[17]],[[327]],[[8]],['high holistic'],['left'],['inverted'],['U0137.bmp'],['female'],[[6]],['female'],[[1]],[[0.71536154]],AG
327,[[17]],[[328]],[[13]],['low holistic'],['left'],['inverted'],['U0181.bmp'],['male'],[[4]],['female'],[[0]],[[10.57567301]],AG
328,[[17]],[[329]],[[14]],['high holistic'],['right'],['inverted'],['U0228.bmp'],['male'],[[10]],['male'],[[1]],[[9.86848027e-05]],AG
329,[[17]],[[330]],[[14]],['high holistic'],['left'],['upright'],['U0228.bmp'],['male'],[[12]],['male'],[[1]],[[0.00010046]],AG
330,[[17]],[[331]],[[11]],['high holistic'],['left'],['inverted'],['U0164.bmp'],['female'],[[4]],['male'],[[0]],[[0.00010892]],AG
331,[[17]],[[332]],[[10]],['high holistic'],['fovea'],['upright'],['U0159.bmp'],['male'],[[0]],['female'],[[0]],[[8.85466248]],AG
332,[[17]],[[333]],[[4]],['high holistic'],['right'],['inverted'],['U0061.bmp'],['female'],[[10]],['female'],[[1]],[[9.95714217e-05]],AG
333,[[17]],[[334]],[[5]],['low holistic'],['left'],['upright'],['U0076.bmp'],['male'],[[2]],['female'],[[0]],[[0.25413457]],AG
334,[[17]],[[335]],[[6]],['low holistic'],['right'],['inverted'],['U0106.bmp'],['male'],[[2]],['female'],[[0]],[[0.05133921]],AG
335,[[17]],[[336]],[[9]],['high holistic'],['right'],['inverted'],['U0155.bmp'],['female'],[[4]],['female'],[[1]],[[0.00290811]],AG
336,[[17]],[[337]],[[5]],['low holistic'],['right'],['upright'],['U0076.bmp'],['male'],[[10]],['male'],[[1]],[[0.18670613]],AG
337,[[17]],[[338]],[[4]],['high holistic'],['left'],['upright'],['U0061.bmp'],['female'],[[8]],['female'],[[1]],[[1.46548522]],AG
338,[[17]],[[339]],[[8]],['high holistic'],['left'],['inverted'],['U0137.bmp'],['female'],[[4]],['male'],[[0]],[[0.00010716]],AG
339,[[17]],[[340]],[[8]],['low holistic'],['right'],['upright'],['U0137.bmp'],['male'],[[8]],['male'],[[1]],[[0.00010093]],AG
340,[[17]],[[341]],[[19]],['high holistic'],['fovea'],['inverted'],['U0361.bmp'],['female'],[[0]],['male'],[[0]],[[0.13600907]],AG
341,[[17]],[[342]],[[9]],['low holistic'],['left'],['inverted'],['U0155.bmp'],['male'],[[6]],['male'],[[1]],[[2.40334149]],AG
342,[[17]],[[343]],[[14]],['high holistic'],['right'],['upright'],['U0228.bmp'],['male'],[[10]],['male'],[[1]],[[0.00010735]],AG
343,[[17]],[[344]],[[16]],['low holistic'],['right'],['upright'],['U0335.bmp'],['female'],[[6]],['female'],[[1]],[[0.00048639]],AG
344,[[17]],[[345]],[[16]],['high holistic'],['right'],['inverted'],['U0335.bmp'],['female'],[[4]],['male'],[[0]],[[0.07454751]],AG
345,[[17]],[[346]],[[13]],['high holistic'],['left'],['inverted'],['U0181.bmp'],['female'],[[4]],['male'],[[0]],[[0.05523177]],AG
346,[[17]],[[347]],[[12]],['high holistic'],['right'],['inverted'],['U0178.bmp'],['male'],[[10]],['female'],[[0]],[[0.00010651]],AG
347,[[17]],[[348]],[[6]],['high holistic'],['right'],['inverted'],['U0106.bmp'],['female'],[[4]],['male'],[[0]],[[0.00015382]],AG
348,[[17]],[[349]],[[6]],['high holistic'],['right'],['inverted'],['U0106.bmp'],['female'],[[6]],['female'],[[1]],[[13.12463591]],AG
349,[[17]],[[350]],[[7]],['high holistic'],['left'],['inverted'],['U0107.bmp'],['female'],[[6]],['female'],[[1]],[[0.38296896]],AG
350,[[17]],[[351]],[[13]],['high holistic'],['left'],['upright'],['U0181.bmp'],['female'],[[4]],['female'],[[1]],[[0.13655281]],AG
351,[[17]],[[352]],[[2]],['high holistic'],['left'],['upright'],['U0014.bmp'],['male'],[[2]],['female'],[[0]],[[0.00010071]],AG
352,[[17]],[[353]],[[4]],['high holistic'],['left'],['inverted'],['U0061.bmp'],['female'],[[2]],['female'],[[1]],[[0.29890775]],AG
353,[[17]],[[354]],[[5]],['low holistic'],['left'],['upright'],['U0076.bmp'],['male'],[[8]],['male'],[[1]],[[0.00010719]],AG
354,[[17]],[[355]],[[17]],['high holistic'],['left'],['upright'],['U0346.bmp'],['male'],[[8]],['male'],[[1]],[[0.30944007]],AG
355,[[17]],[[356]],[[10]],['high holistic'],['left'],['inverted'],['U0159.bmp'],['male'],[[2]],['female'],[[0]],[[0.00010768]],AG
356,[[17]],[[357]],[[10]],['high holistic'],['left'],['inverted'],['U0159.bmp'],['male'],[[10]],['female'],[[0]],[[0.00010762]],AG
357,[[17]],[[358]],[[12]],['high holistic'],['right'],['upright'],['U0178.bmp'],['male'],[[8]],['female'],[[0]],[[0.4110652]],AG
358,[[17]],[[359]],[[1]],['low holistic'],['right'],['upright'],['U0006.bmp'],['female'],[[6]],['female'],[[1]],[[1.17852279]],AG
359,[[17]],[[360]],[[19]],['high holistic'],['right'],['upright'],['U0361.bmp'],['female'],[[4]],['female'],[[1]],[[2.95331313]],AG
360,[[17]],[[361]],[[15]],['high holistic'],['right'],['upright'],['U0312.bmp'],['male'],[[10]],['female'],[[0]],[[0.00010223]],AG
361,[[17]],[[362]],[[9]],['high holistic'],['right'],['inverted'],['U0155.bmp'],['female'],[[12]],['male'],[[0]],[[0.0001008]],AG
362,[[17]],[[363]],[[7]],['low holistic'],['right'],['inverted'],['U0107.bmp'],['female'],[[6]],['female'],[[1]],[[0.00010672]],AG
363,[[17]],[[364]],[[5]],['low holistic'],['left'],['inverted'],['U0076.bmp'],['male'],[[2]],['female'],[[0]],[[0.00011017]],AG
364,[[17]],[[365]],[[18]],['high holistic'],['left'],['inverted'],['U0359.bmp'],['male'],[[8]],['female'],[[0]],[[0.76389267]],AG
365,[[17]],[[366]],[[8]],['low holistic'],['left'],['upright'],['U0137.bmp'],['male'],[[12]],['male'],[[1]],[[0.26180893]],AG
366,[[17]],[[367]],[[3]],['high holistic'],['left'],['inverted'],['U0020.bmp'],['male'],[[4]],['male'],[[1]],[[0.0001005]],AG
367,[[17]],[[368]],[[6]],['low holistic'],['left'],['inverted'],['U0106.bmp'],['male'],[[6]],['female'],[[0]],[[0.00010762]],AG
368,[[17]],[[369]],[[18]],['low holistic'],['left'],['upright'],['U0359.bmp'],['male'],[[12]],['male'],[[1]],[[0.27578988]],AG
369,[[17]],[[370]],[[3]],['low holistic'],['right'],['upright'],['U0020.bmp'],['female'],[[2]],['female'],[[1]],[[6.12750845]],AG
370,[[17]],[[371]],[[19]],['high holistic'],['left'],['upright'],['U0361.bmp'],['female'],[[8]],['male'],[[0]],[[0.24308961]],AG
371,[[17]],[[372]],[[19]],['low holistic'],['right'],['inverted'],['U0361.bmp'],['female'],[[12]],['male'],[[0]],[[0.00010042]],AG
372,[[17]],[[373]],[[10]],['low holistic'],['right'],['inverted'],['U0159.bmp'],['female'],[[4]],['male'],[[0]],[[3.52076286]],AG
373,[[17]],[[374]],[[12]],['low holistic'],['left'],['upright'],['U0178.bmp'],['female'],[[4]],['male'],[[0]],[[0.30023301]],AG
374,[[17]],[[375]],[[18]],['high holistic'],['left'],['inverted'],['U0359.bmp'],['male'],[[2]],['female'],[[0]],[[0.09586334]],AG
375,[[17]],[[376]],[[19]],['low holistic'],['left'],['upright'],['U0361.bmp'],['female'],[[8]],['female'],[[1]],[[0.00010026]],AG
376,[[17]],[[377]],[[4]],['high holistic'],['right'],['inverted'],['U0061.bmp'],['female'],[[6]],['female'],[[1]],[[2.31531944]],AG
377,[[17]],[[378]],[[10]],['low holistic'],['right'],['inverted'],['U0159.bmp'],['female'],[[12]],['female'],[[1]],[[0.07955832]],AG
378,[[17]],[[379]],[[15]],['high holistic'],['right'],['inverted'],['U0312.bmp'],['male'],[[2]],['female'],[[0]],[[0.00010065]],AG
379,[[17]],[[380]],[[10]],['low holistic'],['left'],['upright'],['U0159.bmp'],['female'],[[12]],['female'],[[1]],[[1.84222706]],AG
380,[[17]],[[381]],[[18]],['high holistic'],['left'],['inverted'],['U0359.bmp'],['male'],[[6]],['male'],[[1]],[[9.93851572e-05]],AG
381,[[17]],[[382]],[[14]],['low holistic'],['right'],['upright'],['U0228.bmp'],['male'],[[12]],['male'],[[1]],[[0.00163768]],AG
382,[[17]],[[383]],[[10]],['high holistic'],['right'],['inverted'],['U0159.bmp'],['male'],[[12]],['female'],[[0]],[[0.1363295]],AG
383,[[17]],[[384]],[[20]],['high holistic'],['fovea'],['upright'],['U0362.bmp'],['female'],[[0]],['female'],[[1]],[[9.89567488e-05]],AG
384,[[17]],[[385]],[[20]],['low holistic'],['left'],['inverted'],['U0362.bmp'],['male'],[[8]],['female'],[[0]],[[9.97819006e-05]],AG
385,[[17]],[[386]],[[7]],['high holistic'],['right'],['upright'],['U0107.bmp'],['female'],[[6]],['male'],[[0]],[[0.0654148]],AG
386,[[17]],[[387]],[[19]],['low holistic'],['fovea'],['upright'],['U0361.bmp'],['female'],[[0]],['male'],[[0]],[[0.29544204]],AG
387,[[17]],[[388]],[[9]],['low holistic'],['right'],['inverted'],['U0155.bmp'],['male'],[[8]],['female'],[[0]],[[0.00010613]],AG
388,[[17]],[[389]],[[9]],['high holistic'],['left'],['inverted'],['U0155.bmp'],['female'],[[12]],['male'],[[0]],[[0.21074341]],AG
389,[[17]],[[390]],[[15]],['low holistic'],['left'],['inverted'],['U0312.bmp'],['male'],[[10]],['female'],[[0]],[[9.95025039e-05]],AG
390,[[17]],[[391]],[[7]],['high holistic'],['right'],['inverted'],['U0107.bmp'],['female'],[[6]],['male'],[[0]],[[0.25079707]],AG
391,[[17]],[[392]],[[20]],['high holistic'],['right'],['upright'],['U0362.bmp'],['female'],[[10]],['male'],[[0]],[[0.11204237]],AG
392,[[17]],[[393]],[[11]],['low holistic'],['right'],['inverted'],['U0164.bmp'],['female'],[[8]],['female'],[[1]],[[0.00019397]],AG
393,[[17]],[[394]],[[13]],['high holistic'],['left'],['upright'],['U0181.bmp'],['female'],[[8]],['female'],[[1]],[[0.02905751]],AG
394,[[17]],[[395]],[[8]],['low holistic'],['right'],['inverted'],['U0137.bmp'],['male'],[[8]],['female'],[[0]],[[0.00014838]],AG
395,[[17]],[[396]],[[12]],['low holistic'],['right'],['inverted'],['U0178.bmp'],['female'],[[2]],['female'],[[1]],[[0.00021683]],AG
396,[[17]],[[397]],[[3]],['high holistic'],['left'],['upright'],['U0020.bmp'],['male'],[[12]],['female'],[[0]],[[0.00010067]],AG
397,[[17]],[[398]],[[7]],['high holistic'],['right'],['upright'],['U0107.bmp'],['female'],[[12]],['female'],[[1]],[[0.20195839]],AG
398,[[17]],[[399]],[[18]],['low holistic'],['right'],['inverted'],['U0359.bmp'],['male'],[[10]],['female'],[[0]],[[0.00020963]],AG
399,[[17]],[[400]],[[19]],['high holistic'],['left'],['upright'],['U0361.bmp'],['female'],[[4]],['female'],[[1]],[[0.00032751]],AG
400,[[17]],[[401]],[[10]],['low holistic'],['fovea'],['upright'],['U0159.bmp'],['female'],[[0]],['female'],[[1]],[[0.00016097]],AG
401,[[17]],[[402]],[[12]],['high holistic'],['left'],['upright'],['U0178.bmp'],['male'],[[2]],['female'],[[0]],[[9.95118171e-05]],AG
402,[[17]],[[403]],[[2]],['high holistic'],['left'],['inverted'],['U0014.bmp'],['male'],[[6]],['female'],[[0]],[[0.00013245]],AG
403,[[17]],[[404]],[[12]],['low holistic'],['left'],['upright'],['U0178.bmp'],['female'],[[10]],['female'],[[1]],[[0.00010056]],AG
404,[[17]],[[405]],[[2]],['high holistic'],['right'],['upright'],['U0014.bmp'],['male'],[[4]],['female'],[[0]],[[0.00010023]],AG
405,[[17]],[[406]],[[4]],['high holistic'],['right'],['upright'],['U0061.bmp'],['female'],[[10]],['female'],[[1]],[[0.00010808]],AG
406,[[17]],[[407]],[[7]],['low holistic'],['fovea'],['inverted'],['U0107.bmp'],['female'],[[0]],['female'],[[1]],[[9.99420881e-05]],AG
407,[[17]],[[408]],[[17]],['high holistic'],['left'],['inverted'],['U0346.bmp'],['male'],[[12]],['female'],[[0]],[[0.00010777]],AG
408,[[17]],[[409]],[[9]],['high holistic'],['left'],['inverted'],['U0155.bmp'],['female'],[[10]],['female'],[[1]],[[0.00010814]],AG
409,[[17]],[[410]],[[18]],['low holistic'],['right'],['inverted'],['U0359.bmp'],['male'],[[6]],['female'],[[0]],[[9.82452184e-05]],AG
410,[[17]],[[411]],[[7]],['low holistic'],['fovea'],['upright'],['U0107.bmp'],['female'],[[0]],['female'],[[1]],[[0.00010058]],AG
411,[[17]],[[412]],[[14]],['low holistic'],['left'],['inverted'],['U0228.bmp'],['male'],[[8]],['female'],[[0]],[[0.00015433]],AG
412,[[17]],[[413]],[[15]],['high holistic'],['fovea'],['inverted'],['U0312.bmp'],['male'],[[0]],['female'],[[0]],[[9.86866653e-05]],AG
413,[[17]],[[414]],[[16]],['low holistic'],['fovea'],['upright'],['U0335.bmp'],['female'],[[0]],['female'],[[1]],[[0.0001122]],AG
414,[[17]],[[415]],[[7]],['high holistic'],['left'],['upright'],['U0107.bmp'],['female'],[[10]],['female'],[[1]],[[9.90889966e-05]],AG
415,[[17]],[[416]],[[15]],['low holistic'],['right'],['upright'],['U0312.bmp'],['male'],[[6]],['female'],[[0]],[[0.00010026]],AG
416,[[17]],[[417]],[[9]],['high holistic'],['left'],['inverted'],['U0155.bmp'],['female'],[[10]],['female'],[[1]],[[0.04588563]],AG
417,[[17]],[[418]],[[9]],['low holistic'],['left'],['upright'],['U0155.bmp'],['male'],[[8]],['male'],[[1]],[[0.00010133]],AG
418,[[17]],[[419]],[[18]],['high holistic'],['right'],['upright'],['U0359.bmp'],['male'],[[8]],['female'],[[0]],[[2.75574686]],AG
419,[[17]],[[420]],[[10]],['high holistic'],['fovea'],['upright'],['U0159.bmp'],['male'],[[0]],['male'],[[1]],[[0.12582582]],AG
420,[[17]],[[421]],[[3]],['high holistic'],['left'],['upright'],['U0020.bmp'],['male'],[[8]],['female'],[[0]],[[0.10372418]],AG
421,[[17]],[[422]],[[2]],['low holistic'],['fovea'],['inverted'],['U0014.bmp'],['male'],[[0]],['female'],[[0]],[[0.00010162]],AG
422,[[17]],[[423]],[[12]],['low holistic'],['right'],['inverted'],['U0178.bmp'],['female'],[[8]],['female'],[[1]],[[9.9780038e-05]],AG
423,[[17]],[[424]],[[2]],['high holistic'],['fovea'],['upright'],['U0014.bmp'],['male'],[[0]],['female'],[[0]],[[0.00017351]],AG
424,[[17]],[[425]],[[7]],['low holistic'],['right'],['inverted'],['U0107.bmp'],['female'],[[10]],['male'],[[0]],[[0.25942244]],AG
425,[[17]],[[426]],[[6]],['high holistic'],['left'],['inverted'],['U0106.bmp'],['female'],[[2]],['male'],[[0]],[[0.00010583]],AG
426,[[17]],[[427]],[[13]],['low holistic'],['right'],['inverted'],['U0181.bmp'],['male'],[[8]],['female'],[[0]],[[0.24741856]],AG
427,[[17]],[[428]],[[12]],['high holistic'],['right'],['inverted'],['U0178.bmp'],['male'],[[8]],['female'],[[0]],[[0.00010064]],AG
428,[[17]],[[429]],[[19]],['low holistic'],['right'],['upright'],['U0361.bmp'],['female'],[[4]],['female'],[[1]],[[0.07738982]],AG
429,[[17]],[[430]],[[18]],['low holistic'],['right'],['inverted'],['U0359.bmp'],['male'],[[10]],['male'],[[1]],[[4.44311802]],AG
430,[[17]],[[431]],[[17]],['high holistic'],['left'],['upright'],['U0346.bmp'],['male'],[[6]],['female'],[[0]],[[9.94317234e-05]],AG
431,[[17]],[[432]],[[8]],['high holistic'],['right'],['inverted'],['U0137.bmp'],['female'],[[4]],['female'],[[1]],[[0.00017445]],AG
432,[[17]],[[433]],[[2]],['high holistic'],['left'],['inverted'],['U0014.bmp'],['male'],[[2]],['female'],[[0]],[[9.98806208e-05]],AG
433,[[17]],[[434]],[[7]],['high holistic'],['left'],['inverted'],['U0107.bmp'],['female'],[[2]],['female'],[[1]],[[0.00010075]],AG
434,[[17]],[[435]],[[18]],['low holistic'],['right'],['upright'],['U0359.bmp'],['male'],[[12]],['female'],[[0]],[[0.0001002]],AG
435,[[17]],[[436]],[[9]],['low holistic'],['right'],['inverted'],['U0155.bmp'],['male'],[[6]],['female'],[[0]],[[0.00010069]],AG
436,[[17]],[[437]],[[20]],['low holistic'],['right'],['upright'],['U0362.bmp'],['male'],[[2]],['female'],[[0]],[[0.15917114]],AG
437,[[17]],[[438]],[[4]],['low holistic'],['right'],['inverted'],['U0061.bmp'],['female'],[[10]],['female'],[[1]],[[0.00010597]],AG
438,[[17]],[[439]],[[7]],['low holistic'],['right'],['upright'],['U0107.bmp'],['female'],[[6]],['female'],[[1]],[[0.00010634]],AG
439,[[17]],[[440]],[[9]],['low holistic'],['left'],['inverted'],['U0155.bmp'],['male'],[[4]],['male'],[[1]],[[0.00010118]],AG
440,[[17]],[[441]],[[18]],['high holistic'],['left'],['upright'],['U0359.bmp'],['male'],[[12]],['female'],[[0]],[[0.02410723]],AG
441,[[17]],[[442]],[[15]],['low holistic'],['left'],['upright'],['U0312.bmp'],['male'],[[10]],['female'],[[0]],[[0.58210354]],AG
442,[[17]],[[443]],[[3]],['high holistic'],['left'],['upright'],['U0020.bmp'],['male'],[[12]],['male'],[[1]],[[0.00037834]],AG
443,[[17]],[[444]],[[5]],['low holistic'],['fovea'],['upright'],['U0076.bmp'],['male'],[[0]],['female'],[[0]],[[9.8509714e-05]],AG
444,[[17]],[[445]],[[2]],['low holistic'],['right'],['upright'],['U0014.bmp'],['male'],[[4]],['female'],[[0]],[[0.10278051]],AG
445,[[17]],[[446]],[[8]],['high holistic'],['right'],['upright'],['U0137.bmp'],['female'],[[10]],['male'],[[0]],[[0.0502006]],AG
446,[[17]],[[447]],[[3]],['high holistic'],['left'],['inverted'],['U0020.bmp'],['male'],[[10]],['male'],[[1]],[[0.20766833]],AG
447,[[17]],[[448]],[[4]],['low holistic'],['fovea'],['inverted'],['U0061.bmp'],['female'],[[0]],['female'],[[1]],[[8.13500345]],AG
448,[[17]],[[449]],[[15]],['low holistic'],['left'],['upright'],['U0312.bmp'],['male'],[[4]],['female'],[[0]],[[0.04799946]],AG
449,[[17]],[[450]],[[5]],['low holistic'],['left'],['upright'],['U0076.bmp'],['male'],[[6]],['female'],[[0]],[[0.05583451]],AG
450,[[17]],[[451]],[[6]],['high holistic'],['right'],['upright'],['U0106.bmp'],['female'],[[6]],['male'],[[0]],[[9.95583832e-05]],AG
451,[[17]],[[452]],[[3]],['high holistic'],['fovea'],['inverted'],['U0020.bmp'],['male'],[[0]],['female'],[[0]],[[1.25249414]],AG
452,[[17]],[[453]],[[13]],['low holistic'],['left'],['inverted'],['U0181.bmp'],['male'],[[6]],['female'],[[0]],[[0.00012125]],AG
453,[[17]],[[454]],[[20]],['low holistic'],['left'],['inverted'],['U0362.bmp'],['male'],[[4]],['female'],[[0]],[[9.99439508e-05]],AG
454,[[17]],[[455]],[[5]],['high holistic'],['right'],['upright'],['U0076.bmp'],['female'],[[4]],['female'],[[1]],[[0.00010662]],AG
455,[[17]],[[456]],[[18]],['high holistic'],['left'],['upright'],['U0359.bmp'],['male'],[[12]],['male'],[[1]],[[0.07286238]],AG
456,[[17]],[[457]],[[10]],['low holistic'],['right'],['upright'],['U0159.bmp'],['female'],[[2]],['male'],[[0]],[[9.96422023e-05]],AG
457,[[17]],[[458]],[[1]],['low holistic'],['right'],['upright'],['U0006.bmp'],['female'],[[8]],['female'],[[1]],[[0.00010198]],AG
458,[[17]],[[459]],[[8]],['high holistic'],['left'],['inverted'],['U0137.bmp'],['female'],[[4]],['female'],[[1]],[[0.00010067]],AG
459,[[17]],[[460]],[[2]],['high holistic'],['left'],['inverted'],['U0014.bmp'],['male'],[[6]],['female'],[[0]],[[0.00010208]],AG
460,[[17]],[[461]],[[6]],['low holistic'],['fovea'],['upright'],['U0106.bmp'],['male'],[[0]],['female'],[[0]],[[0.00010825]],AG
461,[[17]],[[462]],[[8]],['low holistic'],['right'],['upright'],['U0137.bmp'],['male'],[[2]],['female'],[[0]],[[0.0001088]],AG
462,[[17]],[[463]],[[10]],['high holistic'],['fovea'],['inverted'],['U0159.bmp'],['male'],[[0]],['female'],[[0]],[[9.98042524e-05]],AG
463,[[17]],[[464]],[[12]],['high holistic'],['left'],['upright'],['U0178.bmp'],['male'],[[8]],['female'],[[0]],[[0.01837567]],AG
464,[[17]],[[465]],[[3]],['low holistic'],['right'],['upright'],['U0020.bmp'],['female'],[[8]],['female'],[[1]],[[0.00014621]],AG
465,[[17]],[[466]],[[16]],['low holistic'],['left'],['inverted'],['U0335.bmp'],['female'],[[6]],['female'],[[1]],[[0.00010703]],AG
466,[[17]],[[467]],[[6]],['low holistic'],['right'],['upright'],['U0106.bmp'],['male'],[[6]],['female'],[[0]],[[9.99141484e-05]],AG
467,[[17]],[[468]],[[14]],['low holistic'],['right'],['upright'],['U0228.bmp'],['male'],[[6]],['female'],[[0]],[[9.99644399e-05]],AG
468,[[17]],[[469]],[[19]],['high holistic'],['right'],['inverted'],['U0361.bmp'],['female'],[[6]],['female'],[[1]],[[0.00010078]],AG
469,[[17]],[[470]],[[18]],['high holistic'],['right'],['inverted'],['U0359.bmp'],['male'],[[4]],['female'],[[0]],[[0.00010102]],AG
470,[[17]],[[471]],[[4]],['high holistic'],['left'],['upright'],['U0061.bmp'],['female'],[[2]],['female'],[[1]],[[0.00010032]],AG
471,[[17]],[[472]],[[16]],['high holistic'],['right'],['upright'],['U0335.bmp'],['female'],[[4]],['female'],[[1]],[[0.16637739]],AG
472,[[17]],[[473]],[[5]],['high holistic'],['left'],['upright'],['U0076.bmp'],['female'],[[4]],['male'],[[0]],[[0.0001001]],AG
473,[[17]],[[474]],[[10]],['high holistic'],['left'],['inverted'],['U0159.bmp'],['male'],[[10]],['female'],[[0]],[[0.00010128]],AG
474,[[17]],[[475]],[[4]],['low holistic'],['right'],['upright'],['U0061.bmp'],['female'],[[12]],['female'],[[1]],[[0.00010064]],AG
475,[[17]],[[476]],[[9]],['low holistic'],['left'],['inverted'],['U0155.bmp'],['male'],[[12]],['female'],[[0]],[[0.00010711]],AG
476,[[17]],[[477]],[[20]],['low holistic'],['left'],['inverted'],['U0362.bmp'],['male'],[[12]],['male'],[[1]],[[9.85749066e-05]],AG
477,[[17]],[[478]],[[4]],['high holistic'],['right'],['upright'],['U0061.bmp'],['female'],[[2]],['male'],[[0]],[[0.00011682]],AG
478,[[17]],[[479]],[[6]],['high holistic'],['right'],['upright'],['U0106.bmp'],['female'],[[8]],['female'],[[1]],[[22.2932243]],AG
479,[[17]],[[480]],[[19]],['high holistic'],['left'],['inverted'],['U0361.bmp'],['female'],[[8]],['female'],[[1]],[[0.0001666]],AG
480,[[17]],[[481]],[[19]],['high holistic'],['left'],['upright'],['U0361.bmp'],['female'],[[8]],['female'],[[1]],[[0.07468463]],AG
481,[[17]],[[482]],[[19]],['high holistic'],['right'],['inverted'],['U0361.bmp'],['female'],[[2]],['female'],[[1]],[[0.08626989]],AG
482,[[17]],[[483]],[[10]],['high holistic'],['right'],['upright'],['U0159.bmp'],['male'],[[6]],['female'],[[0]],[[48.8517147]],AG
483,[[17]],[[484]],[[13]],['low holistic'],['right'],['inverted'],['U0181.bmp'],['male'],[[8]],['female'],[[0]],[[0.00010073]],AG
484,[[17]],[[485]],[[4]],['low holistic'],['right'],['upright'],['U0061.bmp'],['female'],[[4]],['female'],[[1]],[[0.0001016]],AG
485,[[17]],[[486]],[[7]],['low holistic'],['right'],['inverted'],['U0107.bmp'],['female'],[[4]],['female'],[[1]],[[0.00010047]],AG
486,[[17]],[[487]],[[16]],['high holistic'],['right'],['inverted'],['U0335.bmp'],['female'],[[10]],['female'],[[1]],[[0.0001073]],AG
487,[[17]],[[488]],[[17]],['high holistic'],['left'],['upright'],['U0346.bmp'],['male'],[[12]],['female'],[[0]],[[9.88505781e-05]],AG
488,[[17]],[[489]],[[3]],['low holistic'],['left'],['inverted'],['U0020.bmp'],['female'],[[10]],['female'],[[1]],[[9.91746783e-05]],AG
489,[[17]],[[490]],[[17]],['low holistic'],['left'],['upright'],['U0346.bmp'],['female'],[[10]],['female'],[[1]],[[0.0001003]],AG
490,[[17]],[[491]],[[12]],['low holistic'],['left'],['upright'],['U0178.bmp'],['female'],[[4]],['female'],[[1]],[[0.00016909]],AG
491,[[17]],[[492]],[[20]],['high holistic'],['left'],['upright'],['U0362.bmp'],['female'],[[4]],['female'],[[1]],[[9.97669995e-05]],AG
492,[[17]],[[493]],[[1]],['low holistic'],['left'],['upright'],['U0006.bmp'],['female'],[[8]],['female'],[[1]],[[0.00010166]],AG
493,[[17]],[[494]],[[9]],['high holistic'],['right'],['inverted'],['U0155.bmp'],['female'],[[10]],['female'],[[1]],[[0.00010172]],AG
494,[[17]],[[495]],[[14]],['low holistic'],['right'],['inverted'],['U0228.bmp'],['male'],[[10]],['female'],[[0]],[[0.00010733]],AG
495,[[17]],[[496]],[[7]],['low holistic'],['fovea'],['upright'],['U0107.bmp'],['female'],[[0]],['female'],[[1]],[[0.00010783]],AG
496,[[17]],[[497]],[[9]],['low holistic'],['right'],['inverted'],['U0155.bmp'],['male'],[[6]],['female'],[[0]],[[0.00010986]],AG
497,[[17]],[[498]],[[13]],['high holistic'],['left'],['upright'],['U0181.bmp'],['female'],[[6]],['female'],[[1]],[[0.00010242]],AG
498,[[17]],[[499]],[[11]],['low holistic'],['left'],['upright'],['U0164.bmp'],['female'],[[8]],['female'],[[1]],[[0.00010782]],AG
499,[[17]],[[500]],[[15]],['high holistic'],['left'],['upright'],['U0312.bmp'],['male'],[[10]],['female'],[[0]],[[0.0002187]],AG
500,[[17]],[[501]],[[10]],['low holistic'],['left'],['inverted'],['U0159.bmp'],['female'],[[6]],['female'],[[1]],[[0.0001016]],AG
501,[[17]],[[502]],[[1]],['high holistic'],['left'],['upright'],['U0006.bmp'],['female'],[[12]],['female'],[[1]],[[0.00010666]],AG
502,[[17]],[[503]],[[19]],['low holistic'],['left'],['inverted'],['U0361.bmp'],['female'],[[8]],['female'],[[1]],[[0.00010562]],AG
503,[[17]],[[504]],[[9]],['low holistic'],['left'],['upright'],['U0155.bmp'],['male'],[[8]],['female'],[[0]],[[0.00010092]],AG
504,[[17]],[[505]],[[15]],['low holistic'],['right'],['inverted'],['U0312.bmp'],['male'],[[6]],['female'],[[0]],[[0.0001064]],AG
505,[[17]],[[506]],[[20]],['low holistic'],['left'],['inverted'],['U0362.bmp'],['male'],[[10]],['female'],[[0]],[[0.00010825]],AG
506,[[17]],[[507]],[[6]],['low holistic'],['left'],['upright'],['U0106.bmp'],['male'],[[8]],['female'],[[0]],[[0.0001004]],AG
507,[[17]],[[508]],[[18]],['low holistic'],['left'],['upright'],['U0359.bmp'],['male'],[[6]],['female'],[[0]],[[0.00010121]],AG
508,[[17]],[[509]],[[11]],['high holistic'],['right'],['upright'],['U0164.bmp'],['female'],[[12]],['female'],[[1]],[[0.0001078]],AG
509,[[17]],[[510]],[[1]],['high holistic'],['right'],['upright'],['U0006.bmp'],['female'],[[8]],['female'],[[1]],[[9.86233354e-05]],AG
510,[[17]],[[511]],[[20]],['high holistic'],['left'],['inverted'],['U0362.bmp'],['female'],[[12]],['female'],[[1]],[[0.00010713]],AG
511,[[17]],[[512]],[[2]],['high holistic'],['left'],['inverted'],['U0014.bmp'],['male'],[[6]],['female'],[[0]],[[0.0001069]],AG
512,[[17]],[[513]],[[10]],['low holistic'],['left'],['upright'],['U0159.bmp'],['female'],[[4]],['female'],[[1]],[[0.00010136]],AG
513,[[17]],[[514]],[[17]],['low holistic'],['right'],['upright'],['U0346.bmp'],['female'],[[8]],['female'],[[1]],[[0.00010087]],AG
514,[[17]],[[515]],[[20]],['low holistic'],['left'],['inverted'],['U0362.bmp'],['male'],[[4]],['female'],[[0]],[[0.00010738]],AG
515,[[17]],[[516]],[[13]],['high holistic'],['right'],['upright'],['U0181.bmp'],['female'],[[8]],['female'],[[1]],[[0.00010655]],AG
516,[[17]],[[517]],[[9]],['high holistic'],['fovea'],['upright'],['U0155.bmp'],['female'],[[0]],['female'],[[1]],[[0.00024489]],AG
517,[[17]],[[518]],[[17]],['low holistic'],['left'],['inverted'],['U0346.bmp'],['female'],[[2]],['female'],[[1]],[[9.88766551e-05]],AG
518,[[17]],[[519]],[[7]],['low holistic'],['fovea'],['inverted'],['U0107.bmp'],['female'],[[0]],['female'],[[1]],[[0.00010055]],AG
519,[[17]],[[520]],[[12]],['high holistic'],['left'],['inverted'],['U0178.bmp'],['male'],[[12]],['female'],[[0]],[[0.00027879]],AG
520,[[17]],[[521]],[[7]],['low holistic'],['left'],['upright'],['U0107.bmp'],['female'],[[10]],['male'],[[0]],[[0.76173317]],AG
521,[[17]],[[522]],[[13]],['low holistic'],['right'],['inverted'],['U0181.bmp'],['male'],[[2]],['male'],[[1]],[[0.09925008]],AG
522,[[17]],[[523]],[[17]],['high holistic'],['right'],['upright'],['U0346.bmp'],['male'],[[6]],['male'],[[1]],[[0.00010026]],AG
523,[[17]],[[524]],[[16]],['high holistic'],['right'],['inverted'],['U0335.bmp'],['female'],[[10]],['female'],[[1]],[[0.00021019]],AG
524,[[17]],[[525]],[[10]],['high holistic'],['fovea'],['upright'],['U0159.bmp'],['male'],[[0]],['female'],[[0]],[[0.60452719]],AG
525,[[17]],[[526]],[[4]],['low holistic'],['right'],['inverted'],['U0061.bmp'],['female'],[[10]],['male'],[[0]],[[0.00015625]],AG
526,[[17]],[[527]],[[7]],['high holistic'],['right'],['upright'],['U0107.bmp'],['female'],[[10]],['female'],[[1]],[[26.1314157]],AG
527,[[17]],[[528]],[[5]],['high holistic'],['left'],['inverted'],['U0076.bmp'],['female'],[[10]],['male'],[[0]],[[0.00010025]],AG
528,[[17]],[[529]],[[18]],['low holistic'],['left'],['upright'],['U0359.bmp'],['male'],[[2]],['male'],[[1]],[[0.03883957]],AG
529,[[17]],[[530]],[[9]],['low holistic'],['fovea'],['upright'],['U0155.bmp'],['male'],[[0]],['male'],[[1]],[[0.00043978]],AG
530,[[17]],[[531]],[[11]],['low holistic'],['left'],['inverted'],['U0164.bmp'],['female'],[[6]],['male'],[[0]],[[0.23673256]],AG
531,[[17]],[[532]],[[14]],['low holistic'],['right'],['inverted'],['U0228.bmp'],['male'],[[6]],['male'],[[1]],[[0.00016541]],AG
532,[[17]],[[533]],[[16]],['low holistic'],['right'],['inverted'],['U0335.bmp'],['female'],[[2]],['male'],[[0]],[[0.45628247]],AG
533,[[17]],[[534]],[[19]],['high holistic'],['right'],['upright'],['U0361.bmp'],['female'],[[6]],['female'],[[1]],[[0.00011069]],AG
534,[[17]],[[535]],[[17]],['high holistic'],['left'],['upright'],['U0346.bmp'],['male'],[[2]],['male'],[[1]],[[0.00010164]],AG
535,[[17]],[[536]],[[9]],['high holistic'],['left'],['inverted'],['U0155.bmp'],['female'],[[10]],['female'],[[1]],[[0.00010647]],AG
536,[[17]],[[537]],[[1]],['low holistic'],['right'],['inverted'],['U0006.bmp'],['female'],[[8]],['female'],[[1]],[[0.00010625]],AG
537,[[17]],[[538]],[[20]],['high holistic'],['left'],['inverted'],['U0362.bmp'],['female'],[[10]],['male'],[[0]],[[0.04568176]],AG
538,[[17]],[[539]],[[10]],['high holistic'],['right'],['upright'],['U0159.bmp'],['male'],[[8]],['female'],[[0]],[[15.15591618]],AG
539,[[17]],[[540]],[[8]],['high holistic'],['left'],['upright'],['U0137.bmp'],['female'],[[10]],['female'],[[1]],[[0.00011284]],AG
540,[[17]],[[541]],[[16]],['low holistic'],['right'],['upright'],['U0335.bmp'],['female'],[[8]],['female'],[[1]],[[0.05320937]],AG
541,[[17]],[[542]],[[8]],['high holistic'],['left'],['inverted'],['U0137.bmp'],['female'],[[2]],['female'],[[1]],[[0.00011621]],AG
542,[[17]],[[543]],[[19]],['low holistic'],['left'],['inverted'],['U0361.bmp'],['female'],[[4]],['male'],[[0]],[[0.83462471]],AG
543,[[17]],[[544]],[[17]],['low holistic'],['left'],['inverted'],['U0346.bmp'],['female'],[[2]],['female'],[[1]],[[0.20122405]],AG
544,[[17]],[[545]],[[18]],['high holistic'],['left'],['inverted'],['U0359.bmp'],['male'],[[2]],['female'],[[0]],[[9.90945846e-05]],AG
545,[[17]],[[546]],[[15]],['high holistic'],['left'],['upright'],['U0312.bmp'],['male'],[[12]],['male'],[[1]],[[0.72674025]],AG
546,[[17]],[[547]],[[12]],['high holistic'],['left'],['inverted'],['U0178.bmp'],['male'],[[8]],['male'],[[1]],[[0.93004863]],AG
547,[[17]],[[548]],[[6]],['high holistic'],['left'],['inverted'],['U0106.bmp'],['female'],[[6]],['female'],[[1]],[[5.44345254]],AG
548,[[17]],[[549]],[[20]],['low holistic'],['left'],['inverted'],['U0362.bmp'],['male'],[[2]],['male'],[[1]],[[0.15375045]],AG
549,[[17]],[[550]],[[10]],['low holistic'],['right'],['upright'],['U0159.bmp'],['female'],[[8]],['female'],[[1]],[[0.00027046]],AG
550,[[17]],[[551]],[[12]],['low holistic'],['left'],['upright'],['U0178.bmp'],['female'],[[6]],['male'],[[0]],[[0.00035719]],AG
551,[[17]],[[552]],[[6]],['high holistic'],['left'],['upright'],['U0106.bmp'],['female'],[[6]],['female'],[[1]],[[0.00014976]],AG
552,[[17]],[[553]],[[17]],['high holistic'],['right'],['inverted'],['U0346.bmp'],['male'],[[2]],['female'],[[0]],[[48.5625224]],AG
553,[[17]],[[554]],[[6]],['low holistic'],['left'],['inverted'],['U0106.bmp'],['male'],[[2]],['female'],[[0]],[[19.04388207]],AG
554,[[17]],[[555]],[[9]],['low holistic'],['left'],['inverted'],['U0155.bmp'],['male'],[[12]],['female'],[[0]],[[0.12046637]],AG
555,[[17]],[[556]],[[12]],['high holistic'],['left'],['upright'],['U0178.bmp'],['male'],[[8]],['female'],[[0]],[[0.25303845]],AG
556,[[17]],[[557]],[[7]],['high holistic'],['right'],['upright'],['U0107.bmp'],['female'],[[2]],['male'],[[0]],[[1.70649786]],AG
557,[[17]],[[558]],[[8]],['high holistic'],['right'],['upright'],['U0137.bmp'],['female'],[[12]],['female'],[[1]],[[0.00010055]],AG
558,[[17]],[[559]],[[20]],['low holistic'],['right'],['upright'],['U0362.bmp'],['male'],[[12]],['male'],[[1]],[[0.00018065]],AG
559,[[17]],[[560]],[[13]],['low holistic'],['left'],['inverted'],['U0181.bmp'],['male'],[[12]],['female'],[[0]],[[0.00037646]],AG
560,[[17]],[[561]],[[14]],['high holistic'],['left'],['inverted'],['U0228.bmp'],['male'],[[8]],['male'],[[1]],[[0.05216048]],AG
561,[[17]],[[562]],[[5]],['low holistic'],['left'],['inverted'],['U0076.bmp'],['male'],[[2]],['female'],[[0]],[[0.00094175]],AG
562,[[17]],[[563]],[[13]],['high holistic'],['left'],['inverted'],['U0181.bmp'],['female'],[[10]],['female'],[[1]],[[0.10463036]],AG
563,[[17]],[[564]],[[18]],['high holistic'],['left'],['inverted'],['U0359.bmp'],['male'],[[8]],['male'],[[1]],[[0.00010146]],AG
564,[[17]],[[565]],[[18]],['high holistic'],['right'],['upright'],['U0359.bmp'],['male'],[[10]],['female'],[[0]],[[0.36483254]],AG
565,[[17]],[[566]],[[12]],['low holistic'],['left'],['upright'],['U0178.bmp'],['female'],[[10]],['male'],[[0]],[[0.00010826]],AG
566,[[17]],[[567]],[[18]],['high holistic'],['right'],['upright'],['U0359.bmp'],['male'],[[10]],['female'],[[0]],[[0.00049327]],AG
567,[[17]],[[568]],[[10]],['low holistic'],['left'],['upright'],['U0159.bmp'],['female'],[[12]],['male'],[[0]],[[0.07697917]],AG
568,[[17]],[[569]],[[13]],['low holistic'],['right'],['upright'],['U0181.bmp'],['male'],[[10]],['male'],[[1]],[[0.1772591]],AG
569,[[17]],[[570]],[[10]],['high holistic'],['right'],['inverted'],['U0159.bmp'],['male'],[[12]],['female'],[[0]],[[0.00230558]],AG
570,[[17]],[[571]],[[8]],['high holistic'],['right'],['inverted'],['U0137.bmp'],['female'],[[10]],['female'],[[1]],[[0.00013043]],AG
571,[[17]],[[572]],[[6]],['low holistic'],['left'],['upright'],['U0106.bmp'],['male'],[[4]],['female'],[[0]],[[0.04147201]],AG
572,[[17]],[[573]],[[19]],['low holistic'],['left'],['upright'],['U0361.bmp'],['female'],[[6]],['male'],[[0]],[[0.00010155]],AG
573,[[17]],[[574]],[[15]],['high holistic'],['left'],['upright'],['U0312.bmp'],['male'],[[6]],['female'],[[0]],[[0.00010741]],AG
574,[[17]],[[575]],[[2]],['high holistic'],['right'],['inverted'],['U0014.bmp'],['male'],[[12]],['female'],[[0]],[[0.00011132]],AG
575,[[17]],[[576]],[[4]],['high holistic'],['right'],['upright'],['U0061.bmp'],['female'],[[4]],['male'],[[0]],[[0.00534465]],AG
576,[[17]],[[577]],[[14]],['high holistic'],['right'],['upright'],['U0228.bmp'],['male'],[[2]],['female'],[[0]],[[2.64583542]],AG
577,[[17]],[[578]],[[9]],['high holistic'],['left'],['upright'],['U0155.bmp'],['female'],[[4]],['female'],[[1]],[[1.08377834]],AG
578,[[17]],[[579]],[[3]],['high holistic'],['right'],['inverted'],['U0020.bmp'],['male'],[[10]],['female'],[[0]],[[0.03877448]],AG
579,[[17]],[[580]],[[2]],['low holistic'],['right'],['inverted'],['U0014.bmp'],['male'],[[12]],['female'],[[0]],[[0.00026651]],AG
580,[[17]],[[581]],[[12]],['high holistic'],['fovea'],['inverted'],['U0178.bmp'],['male'],[[0]],['male'],[[1]],[[0.24500573]],AG
581,[[17]],[[582]],[[19]],['low holistic'],['left'],['inverted'],['U0361.bmp'],['female'],[[6]],['male'],[[0]],[[0.000105]],AG
582,[[17]],[[583]],[[16]],['high holistic'],['left'],['inverted'],['U0335.bmp'],['female'],[[2]],['female'],[[1]],[[0.0001002]],AG
583,[[17]],[[584]],[[13]],['low holistic'],['left'],['inverted'],['U0181.bmp'],['male'],[[8]],['female'],[[0]],[[5.84363824]],AG
584,[[17]],[[585]],[[13]],['high holistic'],['left'],['upright'],['U0181.bmp'],['female'],[[4]],['male'],[[0]],[[0.01737426]],AG
585,[[17]],[[586]],[[18]],['high holistic'],['right'],['upright'],['U0359.bmp'],['male'],[[2]],['male'],[[1]],[[0.00010065]],AG
586,[[17]],[[587]],[[15]],['high holistic'],['left'],['inverted'],['U0312.bmp'],['male'],[[12]],['male'],[[1]],[[0.00010056]],AG
587,[[17]],[[588]],[[12]],['low holistic'],['left'],['inverted'],['U0178.bmp'],['female'],[[12]],['male'],[[0]],[[0.00010053]],AG
588,[[17]],[[589]],[[8]],['high holistic'],['left'],['upright'],['U0137.bmp'],['female'],[[2]],['male'],[[0]],[[0.00019927]],AG
589,[[17]],[[590]],[[4]],['high holistic'],['left'],['inverted'],['U0061.bmp'],['female'],[[12]],['male'],[[0]],[[0.00010567]],AG
590,[[17]],[[591]],[[9]],['low holistic'],['left'],['upright'],['U0155.bmp'],['male'],[[10]],['male'],[[1]],[[4.45288707]],AG
591,[[17]],[[592]],[[4]],['low holistic'],['right'],['inverted'],['U0061.bmp'],['female'],[[2]],['female'],[[1]],[[0.12323621]],AG
592,[[17]],[[593]],[[7]],['high holistic'],['left'],['inverted'],['U0107.bmp'],['female'],[[10]],['male'],[[0]],[[0.00010025]],AG
593,[[17]],[[594]],[[14]],['low holistic'],['left'],['inverted'],['U0228.bmp'],['male'],[[6]],['female'],[[0]],[[4.0228987]],AG
594,[[17]],[[595]],[[14]],['high holistic'],['right'],['inverted'],['U0228.bmp'],['male'],[[4]],['female'],[[0]],[[0.21290987]],AG
595,[[17]],[[596]],[[10]],['low holistic'],['left'],['upright'],['U0159.bmp'],['female'],[[6]],['male'],[[0]],[[0.09303145]],AG
596,[[17]],[[597]],[[17]],['high holistic'],['right'],['upright'],['U0346.bmp'],['male'],[[6]],['female'],[[0]],[[0.00010075]],AG
597,[[17]],[[598]],[[18]],['high holistic'],['right'],['inverted'],['U0359.bmp'],['male'],[[4]],['female'],[[0]],[[0.00011415]],AG
598,[[17]],[[599]],[[7]],['high holistic'],['fovea'],['upright'],['U0107.bmp'],['female'],[[0]],['female'],[[1]],[[0.00010253]],AG
599,[[17]],[[600]],[[5]],['low holistic'],['right'],['upright'],['U0076.bmp'],['male'],[[12]],['female'],[[0]],[[0.00010093]],AG
600,[[17]],[[601]],[[17]],['high holistic'],['left'],['upright'],['U0346.bmp'],['male'],[[12]],['female'],[[0]],[[0.0001088]],AG
601,[[17]],[[602]],[[4]],['low holistic'],['left'],['inverted'],['U0061.bmp'],['female'],[[6]],['female'],[[1]],[[0.0001009]],AG
602,[[17]],[[603]],[[10]],['low holistic'],['left'],['upright'],['U0159.bmp'],['female'],[[2]],['male'],[[0]],[[9.99458134e-05]],AG
603,[[17]],[[604]],[[4]],['high holistic'],['right'],['inverted'],['U0061.bmp'],['female'],[[8]],['female'],[[1]],[[0.0001078]],AG
604,[[17]],[[605]],[[4]],['high holistic'],['left'],['upright'],['U0061.bmp'],['female'],[[8]],['female'],[[1]],[[0.38009173]],AG
605,[[17]],[[606]],[[8]],['high holistic'],['left'],['upright'],['U0137.bmp'],['female'],[[6]],['female'],[[1]],[[0.00663206]],AG
606,[[17]],[[607]],[[13]],['low holistic'],['left'],['upright'],['U0181.bmp'],['male'],[[2]],['female'],[[0]],[[0.09195744]],AG
607,[[17]],[[608]],[[14]],['low holistic'],['left'],['inverted'],['U0228.bmp'],['male'],[[2]],['male'],[[1]],[[9.93460417e-05]],AG
608,[[17]],[[609]],[[6]],['low holistic'],['left'],['inverted'],['U0106.bmp'],['male'],[[4]],['female'],[[0]],[[0.12719542]],AG
609,[[17]],[[610]],[[5]],['low holistic'],['left'],['inverted'],['U0076.bmp'],['male'],[[10]],['female'],[[0]],[[0.04421252]],AG
610,[[17]],[[611]],[[7]],['low holistic'],['left'],['upright'],['U0107.bmp'],['female'],[[2]],['male'],[[0]],[[0.0001484]],AG
611,[[17]],[[612]],[[2]],['high holistic'],['right'],['upright'],['U0014.bmp'],['male'],[[8]],['male'],[[1]],[[0.08194794]],AG
612,[[17]],[[613]],[[16]],['high holistic'],['left'],['inverted'],['U0335.bmp'],['female'],[[12]],['male'],[[0]],[[0.88433284]],AG
613,[[17]],[[614]],[[4]],['low holistic'],['left'],['inverted'],['U0061.bmp'],['female'],[[10]],['female'],[[1]],[[20.63444546]],AG
614,[[17]],[[615]],[[15]],['high holistic'],['left'],['upright'],['U0312.bmp'],['male'],[[10]],['male'],[[1]],[[0.00026089]],AG
615,[[17]],[[616]],[[14]],['high holistic'],['fovea'],['upright'],['U0228.bmp'],['male'],[[0]],['female'],[[0]],[[0.00011368]],AG
616,[[17]],[[617]],[[5]],['high holistic'],['left'],['upright'],['U0076.bmp'],['female'],[[6]],['female'],[[1]],[[0.03906782]],AG
617,[[17]],[[618]],[[18]],['low holistic'],['left'],['inverted'],['U0359.bmp'],['male'],[[2]],['female'],[[0]],[[0.00029816]],AG
618,[[17]],[[619]],[[20]],['high holistic'],['right'],['upright'],['U0362.bmp'],['female'],[[2]],['female'],[[1]],[[0.07612909]],AG
619,[[17]],[[620]],[[12]],['high holistic'],['left'],['inverted'],['U0178.bmp'],['male'],[[10]],['male'],[[1]],[[0.01761092]],AG
620,[[17]],[[621]],[[11]],['low holistic'],['left'],['upright'],['U0164.bmp'],['female'],[[2]],['male'],[[0]],[[9.99607146e-05]],AG
621,[[17]],[[622]],[[8]],['high holistic'],['left'],['upright'],['U0137.bmp'],['female'],[[2]],['male'],[[0]],[[0.00018521]],AG
622,[[17]],[[623]],[[2]],['high holistic'],['fovea'],['inverted'],['U0014.bmp'],['male'],[[0]],['male'],[[1]],[[0.00740181]],AG
623,[[17]],[[624]],[[18]],['low holistic'],['left'],['inverted'],['U0359.bmp'],['male'],[[2]],['male'],[[1]],[[0.00010668]],AG
624,[[17]],[[625]],[[11]],['low holistic'],['left'],['inverted'],['U0164.bmp'],['female'],[[12]],['male'],[[0]],[[2.70241678]],AG
625,[[17]],[[626]],[[5]],['high holistic'],['left'],['upright'],['U0076.bmp'],['female'],[[10]],['male'],[[0]],[[0.02515308]],AG
626,[[17]],[[627]],[[4]],['high holistic'],['right'],['upright'],['U0061.bmp'],['female'],[[6]],['male'],[[0]],[[0.02443744]],AG
627,[[17]],[[628]],[[14]],['high holistic'],['left'],['inverted'],['U0228.bmp'],['male'],[[2]],['female'],[[0]],[[0.29517695]],AG
628,[[17]],[[629]],[[10]],['high holistic'],['right'],['upright'],['U0159.bmp'],['male'],[[8]],['male'],[[1]],[[0.02683228]],AG
629,[[17]],[[630]],[[15]],['high holistic'],['right'],['upright'],['U0312.bmp'],['male'],[[8]],['female'],[[0]],[[0.09969988]],AG
630,[[17]],[[631]],[[7]],['low holistic'],['left'],['inverted'],['U0107.bmp'],['female'],[[4]],['female'],[[1]],[[0.00010072]],AG
631,[[17]],[[632]],[[15]],['high holistic'],['left'],['upright'],['U0312.bmp'],['male'],[[2]],['female'],[[0]],[[8.79861157]],AG
632,[[17]],[[633]],[[4]],['high holistic'],['left'],['inverted'],['U0061.bmp'],['female'],[[8]],['female'],[[1]],[[0.00010055]],AG
633,[[17]],[[634]],[[14]],['high holistic'],['right'],['inverted'],['U0228.bmp'],['male'],[[8]],['female'],[[0]],[[0.63735476]],AG
634,[[17]],[[635]],[[2]],['low holistic'],['right'],['inverted'],['U0014.bmp'],['male'],[[4]],['female'],[[0]],[[0.04214977]],AG
635,[[17]],[[636]],[[20]],['low holistic'],['right'],['inverted'],['U0362.bmp'],['male'],[[6]],['female'],[[0]],[[0.00013867]],AG
636,[[17]],[[637]],[[2]],['low holistic'],['left'],['upright'],['U0014.bmp'],['male'],[[4]],['female'],[[0]],[[9.82545316e-05]],AG
637,[[17]],[[638]],[[6]],['low holistic'],['right'],['upright'],['U0106.bmp'],['male'],[[8]],['male'],[[1]],[[9.91597772e-05]],AG
638,[[17]],[[639]],[[8]],['low holistic'],['right'],['inverted'],['U0137.bmp'],['male'],[[10]],['female'],[[0]],[[0.1113723]],AG
639,[[17]],[[640]],[[20]],['low holistic'],['left'],['upright'],['U0362.bmp'],['male'],[[6]],['female'],[[0]],[[0.13938796]],AG
640,[[17]],[[641]],[[9]],['high holistic'],['left'],['upright'],['U0155.bmp'],['female'],[[6]],['female'],[[1]],[[0.00014002]],AG
641,[[17]],[[642]],[[3]],['low holistic'],['fovea'],['upright'],['U0020.bmp'],['female'],[[0]],['male'],[[0]],[[0.02893205]],AG
642,[[17]],[[643]],[[1]],['low holistic'],['left'],['inverted'],['U0006.bmp'],['female'],[[6]],['male'],[[0]],[[0.3326858]],AG
643,[[17]],[[644]],[[13]],['high holistic'],['right'],['inverted'],['U0181.bmp'],['female'],[[12]],['male'],[[0]],[[0.00609407]],AG
644,[[17]],[[645]],[[6]],['low holistic'],['left'],['upright'],['U0106.bmp'],['male'],[[6]],['male'],[[1]],[[0.00017677]],AG
645,[[17]],[[646]],[[1]],['low holistic'],['left'],['upright'],['U0006.bmp'],['female'],[[10]],['male'],[[0]],[[0.00010142]],AG
646,[[17]],[[647]],[[6]],['high holistic'],['right'],['upright'],['U0106.bmp'],['female'],[[12]],['female'],[[1]],[[0.47549994]],AG
647,[[17]],[[648]],[[18]],['high holistic'],['left'],['inverted'],['U0359.bmp'],['male'],[[6]],['male'],[[1]],[[0.34428014]],AG
648,[[17]],[[649]],[[6]],['high holistic'],['left'],['inverted'],['U0106.bmp'],['female'],[[4]],['female'],[[1]],[[5.45933091]],AG
649,[[17]],[[650]],[[11]],['high holistic'],['right'],['inverted'],['U0164.bmp'],['female'],[[12]],['female'],[[1]],[[0.23940488]],AG
650,[[17]],[[651]],[[11]],['high holistic'],['left'],['upright'],['U0164.bmp'],['female'],[[6]],['male'],[[0]],[[0.00010081]],AG
651,[[17]],[[652]],[[3]],['low holistic'],['left'],['inverted'],['U0020.bmp'],['female'],[[12]],['male'],[[0]],[[0.06623238]],AG
652,[[17]],[[653]],[[7]],['low holistic'],['left'],['inverted'],['U0107.bmp'],['female'],[[4]],['male'],[[0]],[[0.05418826]],AG
653,[[17]],[[654]],[[4]],['high holistic'],['right'],['upright'],['U0061.bmp'],['female'],[[4]],['female'],[[1]],[[0.10649798]],AG
654,[[17]],[[655]],[[6]],['high holistic'],['left'],['upright'],['U0106.bmp'],['female'],[[10]],['female'],[[1]],[[9.87891108e-05]],AG
655,[[17]],[[656]],[[11]],['high holistic'],['left'],['upright'],['U0164.bmp'],['female'],[[6]],['male'],[[0]],[[0.00020675]],AG
656,[[17]],[[657]],[[13]],['high holistic'],['left'],['inverted'],['U0181.bmp'],['female'],[[6]],['female'],[[1]],[[0.21263349]],AG
657,[[17]],[[658]],[[13]],['high holistic'],['right'],['inverted'],['U0181.bmp'],['female'],[[12]],['male'],[[0]],[[0.30144108]],AG
658,[[17]],[[659]],[[12]],['low holistic'],['right'],['upright'],['U0178.bmp'],['female'],[[12]],['male'],[[0]],[[0.00015892]],AG
659,[[17]],[[660]],[[18]],['low holistic'],['left'],['upright'],['U0359.bmp'],['male'],[[2]],['male'],[[1]],[[0.00010536]],AG
660,[[17]],[[661]],[[14]],['low holistic'],['right'],['upright'],['U0228.bmp'],['male'],[[4]],['female'],[[0]],[[0.00018546]],AG
661,[[17]],[[662]],[[8]],['low holistic'],['right'],['upright'],['U0137.bmp'],['male'],[[2]],['male'],[[1]],[[0.00010016]],AG
662,[[17]],[[663]],[[6]],['low holistic'],['left'],['upright'],['U0106.bmp'],['male'],[[6]],['female'],[[0]],[[0.12565201]],AG
663,[[17]],[[664]],[[7]],['high holistic'],['right'],['inverted'],['U0107.bmp'],['female'],[[10]],['male'],[[0]],[[0.00017512]],AG
664,[[17]],[[665]],[[6]],['high holistic'],['right'],['upright'],['U0106.bmp'],['female'],[[2]],['male'],[[0]],[[0.00013313]],AG
665,[[17]],[[666]],[[6]],['low holistic'],['left'],['inverted'],['U0106.bmp'],['male'],[[8]],['female'],[[0]],[[0.23285641]],AG
666,[[17]],[[667]],[[13]],['high holistic'],['left'],['inverted'],['U0181.bmp'],['female'],[[10]],['male'],[[0]],[[3.89472221]],AG
667,[[17]],[[668]],[[4]],['low holistic'],['right'],['upright'],['U0061.bmp'],['female'],[[12]],['male'],[[0]],[[0.26588568]],AG
668,[[17]],[[669]],[[7]],['high holistic'],['left'],['inverted'],['U0107.bmp'],['female'],[[6]],['female'],[[1]],[[0.00021306]],AG
669,[[17]],[[670]],[[6]],['low holistic'],['right'],['upright'],['U0106.bmp'],['male'],[[6]],['male'],[[1]],[[0.02254693]],AG
670,[[17]],[[671]],[[12]],['high holistic'],['fovea'],['inverted'],['U0178.bmp'],['male'],[[0]],['male'],[[1]],[[9.99886543e-05]],AG
671,[[17]],[[672]],[[9]],['high holistic'],['left'],['upright'],['U0155.bmp'],['female'],[[2]],['male'],[[0]],[[0.00010123]],AG
672,[[17]],[[673]],[[3]],['high holistic'],['right'],['upright'],['U0020.bmp'],['male'],[[10]],['female'],[[0]],[[0.00014422]],AG
673,[[17]],[[674]],[[5]],['high holistic'],['left'],['inverted'],['U0076.bmp'],['female'],[[6]],['male'],[[0]],[[0.00028822]],AG
674,[[17]],[[675]],[[3]],['high holistic'],['right'],['upright'],['U0020.bmp'],['male'],[[10]],['male'],[[1]],[[0.23538263]],AG
675,[[17]],[[676]],[[5]],['high holistic'],['right'],['inverted'],['U0076.bmp'],['female'],[[8]],['male'],[[0]],[[0.05775433]],AG
676,[[17]],[[677]],[[14]],['high holistic'],['right'],['upright'],['U0228.bmp'],['male'],[[6]],['male'],[[1]],[[0.00010658]],AG
677,[[17]],[[678]],[[13]],['high holistic'],['left'],['inverted'],['U0181.bmp'],['female'],[[12]],['male'],[[0]],[[0.09300774]],AG
678,[[17]],[[679]],[[7]],['low holistic'],['left'],['upright'],['U0107.bmp'],['female'],[[10]],['female'],[[1]],[[9.94447619e-05]],AG
679,[[17]],[[680]],[[17]],['high holistic'],['right'],['inverted'],['U0346.bmp'],['male'],[[8]],['female'],[[0]],[[0.0339842]],AG
680,[[17]],[[681]],[[16]],['low holistic'],['fovea'],['inverted'],['U0335.bmp'],['female'],[[0]],['female'],[[1]],[[0.07165072]],AG
681,[[17]],[[682]],[[6]],['high holistic'],['right'],['upright'],['U0106.bmp'],['female'],[[10]],['male'],[[0]],[[0.00011019]],AG
682,[[17]],[[683]],[[9]],['low holistic'],['right'],['upright'],['U0155.bmp'],['male'],[[6]],['male'],[[1]],[[0.15692557]],AG
683,[[17]],[[684]],[[3]],['low holistic'],['left'],['inverted'],['U0020.bmp'],['female'],[[2]],['male'],[[0]],[[0.19680768]],AG
684,[[17]],[[685]],[[13]],['high holistic'],['right'],['upright'],['U0181.bmp'],['female'],[[10]],['female'],[[1]],[[0.17233517]],AG
685,[[17]],[[686]],[[16]],['low holistic'],['right'],['upright'],['U0335.bmp'],['female'],[[6]],['male'],[[0]],[[0.34166064]],AG
686,[[17]],[[687]],[[14]],['high holistic'],['left'],['inverted'],['U0228.bmp'],['male'],[[4]],['female'],[[0]],[[0.00020447]],AG
687,[[17]],[[688]],[[3]],['low holistic'],['right'],['upright'],['U0020.bmp'],['female'],[[8]],['female'],[[1]],[[0.06336377]],AG
688,[[17]],[[689]],[[17]],['high holistic'],['right'],['inverted'],['U0346.bmp'],['male'],[[2]],['male'],[[1]],[[0.36439512]],AG
689,[[17]],[[690]],[[10]],['high holistic'],['left'],['inverted'],['U0159.bmp'],['male'],[[8]],['female'],[[0]],[[4.28378464]],AG
690,[[17]],[[691]],[[2]],['high holistic'],['right'],['inverted'],['U0014.bmp'],['male'],[[4]],['female'],[[0]],[[0.00010111]],AG
691,[[17]],[[692]],[[19]],['low holistic'],['left'],['inverted'],['U0361.bmp'],['female'],[[2]],['male'],[[0]],[[0.02499682]],AG
692,[[17]],[[693]],[[9]],['low holistic'],['left'],['upright'],['U0155.bmp'],['male'],[[2]],['male'],[[1]],[[9.98340547e-05]],AG
693,[[17]],[[694]],[[4]],['low holistic'],['left'],['upright'],['U0061.bmp'],['female'],[[8]],['female'],[[1]],[[0.11034233]],AG
694,[[17]],[[695]],[[1]],['low holistic'],['left'],['inverted'],['U0006.bmp'],['female'],[[10]],['female'],[[1]],[[0.15599868]],AG
695,[[17]],[[696]],[[1]],['high holistic'],['left'],['upright'],['U0006.bmp'],['female'],[[10]],['male'],[[0]],[[9.99625772e-05]],AG
696,[[17]],[[697]],[[10]],['low holistic'],['right'],['inverted'],['U0159.bmp'],['female'],[[6]],['female'],[[1]],[[0.0754584]],AG
697,[[17]],[[698]],[[9]],['high holistic'],['right'],['inverted'],['U0155.bmp'],['female'],[[10]],['male'],[[0]],[[0.72680701]],AG
698,[[17]],[[699]],[[20]],['high holistic'],['left'],['inverted'],['U0362.bmp'],['female'],[[12]],['male'],[[0]],[[0.48885587]],AG
699,[[17]],[[700]],[[8]],['low holistic'],['right'],['inverted'],['U0137.bmp'],['male'],[[10]],['male'],[[1]],[[0.52690098]],AG
700,[[17]],[[701]],[[6]],['high holistic'],['right'],['upright'],['U0106.bmp'],['female'],[[6]],['male'],[[0]],[[0.63216068]],AG
701,[[17]],[[702]],[[19]],['low holistic'],['left'],['inverted'],['U0361.bmp'],['female'],[[12]],['male'],[[0]],[[0.30966367]],AG
702,[[17]],[[703]],[[13]],['low holistic'],['left'],['upright'],['U0181.bmp'],['male'],[[12]],['male'],[[1]],[[0.00010112]],AG
703,[[17]],[[704]],[[9]],['high holistic'],['right'],['upright'],['U0155.bmp'],['female'],[[12]],['male'],[[0]],[[0.00018434]],AG
704,[[17]],[[705]],[[19]],['low holistic'],['left'],['upright'],['U0361.bmp'],['female'],[[2]],['male'],[[0]],[[0.27406742]],AG
705,[[17]],[[706]],[[7]],['low holistic'],['left'],['inverted'],['U0107.bmp'],['female'],[[10]],['male'],[[0]],[[9.96049494e-05]],AG
706,[[17]],[[707]],[[20]],['high holistic'],['right'],['upright'],['U0362.bmp'],['female'],[[6]],['male'],[[0]],[[0.7017755]],AG
707,[[17]],[[708]],[[1]],['high holistic'],['right'],['upright'],['U0006.bmp'],['female'],[[12]],['female'],[[1]],[[0.00013233]],AG
708,[[17]],[[709]],[[11]],['low holistic'],['left'],['upright'],['U0164.bmp'],['female'],[[4]],['male'],[[0]],[[0.16177232]],AG
709,[[17]],[[710]],[[19]],['high holistic'],['left'],['inverted'],['U0361.bmp'],['female'],[[12]],['female'],[[1]],[[0.03326662]],AG
710,[[17]],[[711]],[[1]],['low holistic'],['fovea'],['inverted'],['U0006.bmp'],['female'],[[0]],['female'],[[1]],[[9.85246152e-05]],AG
711,[[17]],[[712]],[[10]],['low holistic'],['right'],['upright'],['U0159.bmp'],['female'],[[6]],['male'],[[0]],[[0.00017437]],AG
712,[[17]],[[713]],[[19]],['high holistic'],['right'],['upright'],['U0361.bmp'],['female'],[[6]],['female'],[[1]],[[9.87295061e-05]],AG
713,[[17]],[[714]],[[15]],['low holistic'],['right'],['inverted'],['U0312.bmp'],['male'],[[12]],['female'],[[0]],[[0.00021244]],AG
714,[[17]],[[715]],[[12]],['low holistic'],['right'],['inverted'],['U0178.bmp'],['female'],[[8]],['male'],[[0]],[[0.15969947]],AG
715,[[17]],[[716]],[[20]],['low holistic'],['fovea'],['inverted'],['U0362.bmp'],['male'],[[0]],['female'],[[0]],[[0.00036694]],AG
716,[[17]],[[717]],[[6]],['high holistic'],['fovea'],['inverted'],['U0106.bmp'],['female'],[[0]],['male'],[[0]],[[0.02254695]],AG
717,[[17]],[[718]],[[14]],['high holistic'],['right'],['upright'],['U0228.bmp'],['male'],[[4]],['female'],[[0]],[[0.00033586]],AG
718,[[17]],[[719]],[[6]],['low holistic'],['fovea'],['upright'],['U0106.bmp'],['male'],[[0]],['male'],[[1]],[[0.00010878]],AG
719,[[17]],[[720]],[[7]],['high holistic'],['right'],['inverted'],['U0107.bmp'],['female'],[[10]],['female'],[[1]],[[0.00010092]],AG
720,[[17]],[[721]],[[5]],['low holistic'],['right'],['inverted'],['U0076.bmp'],['male'],[[4]],['male'],[[1]],[[0.12623446]],AG
721,[[17]],[[722]],[[9]],['high holistic'],['right'],['upright'],['U0155.bmp'],['female'],[[4]],['male'],[[0]],[[0.16800639]],AG
722,[[17]],[[723]],[[9]],['low holistic'],['left'],['inverted'],['U0155.bmp'],['male'],[[2]],['female'],[[0]],[[9.97669995e-05]],AG
723,[[17]],[[724]],[[19]],['high holistic'],['right'],['upright'],['U0361.bmp'],['female'],[[8]],['male'],[[0]],[[0.0001062]],AG
724,[[17]],[[725]],[[17]],['high holistic'],['right'],['inverted'],['U0346.bmp'],['male'],[[12]],['female'],[[0]],[[0.35195713]],AG
725,[[17]],[[726]],[[20]],['high holistic'],['fovea'],['upright'],['U0362.bmp'],['female'],[[0]],['female'],[[1]],[[0.29623013]],AG
726,[[17]],[[727]],[[4]],['high holistic'],['left'],['upright'],['U0061.bmp'],['female'],[[4]],['male'],[[0]],[[0.57929407]],AG
727,[[17]],[[728]],[[20]],['low holistic'],['left'],['upright'],['U0362.bmp'],['male'],[[8]],['female'],[[0]],[[9.91988927e-05]],AG
728,[[17]],[[729]],[[8]],['low holistic'],['left'],['inverted'],['U0137.bmp'],['male'],[[4]],['female'],[[0]],[[0.27595294]],AG
729,[[17]],[[730]],[[18]],['low holistic'],['fovea'],['upright'],['U0359.bmp'],['male'],[[0]],['female'],[[0]],[[0.00010746]],AG
730,[[17]],[[731]],[[15]],['high holistic'],['right'],['upright'],['U0312.bmp'],['male'],[[8]],['male'],[[1]],[[0.56761299]],AG
731,[[17]],[[732]],[[12]],['high holistic'],['left'],['inverted'],['U0178.bmp'],['male'],[[8]],['male'],[[1]],[[0.61772577]],AG
732,[[17]],[[733]],[[2]],['high holistic'],['left'],['upright'],['U0014.bmp'],['male'],[[6]],['male'],[[1]],[[0.82556943]],AG
733,[[17]],[[734]],[[18]],['high holistic'],['left'],['inverted'],['U0359.bmp'],['male'],[[12]],['male'],[[1]],[[0.00010064]],AG
734,[[17]],[[735]],[[15]],['high holistic'],['left'],['upright'],['U0312.bmp'],['male'],[[2]],['male'],[[1]],[[0.17376034]],AG
735,[[17]],[[736]],[[15]],['low holistic'],['right'],['upright'],['U0312.bmp'],['male'],[[10]],['male'],[[1]],[[0.00010037]],AG
736,[[17]],[[737]],[[9]],['high holistic'],['left'],['upright'],['U0155.bmp'],['female'],[[2]],['female'],[[1]],[[1.1024766]],AG
737,[[17]],[[738]],[[8]],['high holistic'],['left'],['upright'],['U0137.bmp'],['female'],[[6]],['male'],[[0]],[[0.9837997]],AG
738,[[17]],[[739]],[[11]],['low holistic'],['right'],['upright'],['U0164.bmp'],['female'],[[12]],['male'],[[0]],[[3.22404463]],AG
739,[[17]],[[740]],[[6]],['high holistic'],['left'],['inverted'],['U0106.bmp'],['female'],[[2]],['male'],[[0]],[[0.29570387]],AG
740,[[17]],[[741]],[[13]],['high holistic'],['right'],['inverted'],['U0181.bmp'],['female'],[[2]],['male'],[[0]],[[0.11528952]],AG
741,[[17]],[[742]],[[4]],['low holistic'],['left'],['upright'],['U0061.bmp'],['female'],[[10]],['male'],[[0]],[[0.5248627]],AG
742,[[17]],[[743]],[[7]],['low holistic'],['fovea'],['inverted'],['U0107.bmp'],['female'],[[0]],['male'],[[0]],[[9.97874886e-05]],AG
743,[[17]],[[744]],[[5]],['high holistic'],['fovea'],['upright'],['U0076.bmp'],['female'],[[0]],['male'],[[0]],[[9.96142626e-05]],AG
744,[[17]],[[745]],[[8]],['high holistic'],['right'],['inverted'],['U0137.bmp'],['female'],[[12]],['male'],[[0]],[[0.0226748]],AG
745,[[17]],[[746]],[[19]],['high holistic'],['right'],['inverted'],['U0361.bmp'],['female'],[[12]],['male'],[[0]],[[0.00011319]],AG
746,[[17]],[[747]],[[3]],['low holistic'],['fovea'],['inverted'],['U0020.bmp'],['female'],[[0]],['female'],[[1]],[[0.28556024]],AG
747,[[17]],[[748]],[[16]],['low holistic'],['left'],['upright'],['U0335.bmp'],['female'],[[12]],['male'],[[0]],[[0.09854867]],AG
748,[[17]],[[749]],[[10]],['low holistic'],['left'],['upright'],['U0159.bmp'],['female'],[[6]],['female'],[[1]],[[0.28508461]],AG
749,[[17]],[[750]],[[11]],['low holistic'],['right'],['upright'],['U0164.bmp'],['female'],[[6]],['male'],[[0]],[[0.00010142]],AG
750,[[17]],[[751]],[[16]],['low holistic'],['right'],['upright'],['U0335.bmp'],['female'],[[4]],['female'],[[1]],[[0.94549386]],AG
751,[[17]],[[752]],[[8]],['low holistic'],['left'],['inverted'],['U0137.bmp'],['male'],[[12]],['male'],[[1]],[[9.89604741e-05]],AG
752,[[17]],[[753]],[[9]],['low holistic'],['left'],['upright'],['U0155.bmp'],['male'],[[10]],['male'],[[1]],[[0.80197201]],AG
753,[[17]],[[754]],[[20]],['high holistic'],['left'],['upright'],['U0362.bmp'],['female'],[[2]],['male'],[[0]],[[0.3458489]],AG
754,[[17]],[[755]],[[4]],['high holistic'],['right'],['upright'],['U0061.bmp'],['female'],[[10]],['male'],[[0]],[[0.99509342]],AG
755,[[17]],[[756]],[[4]],['high holistic'],['fovea'],['upright'],['U0061.bmp'],['female'],[[0]],['female'],[[1]],[[0.00010591]],AG
756,[[17]],[[757]],[[3]],['high holistic'],['right'],['upright'],['U0020.bmp'],['male'],[[8]],['male'],[[1]],[[0.00010064]],AG
757,[[17]],[[758]],[[14]],['low holistic'],['left'],['inverted'],['U0228.bmp'],['male'],[[4]],['male'],[[1]],[[0.05726634]],AG
758,[[17]],[[759]],[[5]],['high holistic'],['left'],['upright'],['U0076.bmp'],['female'],[[4]],['male'],[[0]],[[9.9638477e-05]],AG
759,[[17]],[[760]],[[17]],['low holistic'],['right'],['upright'],['U0346.bmp'],['female'],[[4]],['male'],[[0]],[[0.02315945]],AG
760,[[17]],[[761]],[[14]],['high holistic'],['left'],['inverted'],['U0228.bmp'],['male'],[[6]],['female'],[[0]],[[0.42850792]],AG
761,[[17]],[[762]],[[9]],['low holistic'],['right'],['upright'],['U0155.bmp'],['male'],[[10]],['female'],[[0]],[[0.25950619]],AG
762,[[17]],[[763]],[[6]],['low holistic'],['fovea'],['inverted'],['U0106.bmp'],['male'],[[0]],['female'],[[0]],[[0.0001085]],AG
763,[[17]],[[764]],[[18]],['high holistic'],['left'],['upright'],['U0359.bmp'],['male'],[[10]],['male'],[[1]],[[0.10513049]],AG
764,[[17]],[[765]],[[4]],['high holistic'],['fovea'],['upright'],['U0061.bmp'],['female'],[[0]],['male'],[[0]],[[0.00010767]],AG
765,[[17]],[[766]],[[5]],['high holistic'],['right'],['inverted'],['U0076.bmp'],['female'],[[8]],['male'],[[0]],[[0.35554293]],AG
766,[[17]],[[767]],[[4]],['high holistic'],['right'],['inverted'],['U0061.bmp'],['female'],[[10]],['male'],[[0]],[[0.00010698]],AG
767,[[17]],[[768]],[[7]],['high holistic'],['right'],['upright'],['U0107.bmp'],['female'],[[8]],['male'],[[0]],[[0.18718571]],AG
768,[[17]],[[769]],[[1]],['low holistic'],['left'],['inverted'],['U0006.bmp'],['female'],[[8]],['male'],[[0]],[[0.23573747]],AG
769,[[17]],[[770]],[[7]],['high holistic'],['fovea'],['inverted'],['U0107.bmp'],['female'],[[0]],['male'],[[0]],[[0.16889963]],AG
