,SUBID,TRIAL,MOONEYID,MOONEYCATEGORY,LOC,COND,MOONEY_NAME,MOONEY_GENDER,ECCENTRICITY,RESPONSE,ACCURACY,RT,SUBINIT
0,[[18]],[[1]],[[12]],['low holistic'],['right'],['upright'],['U0178.bmp'],['female'],[[2]],['female'],[[1]],[[2.42715195]],AW
1,[[18]],[[2]],[[7]],['high holistic'],['left'],['inverted'],['U0107.bmp'],['female'],[[4]],['male'],[[0]],[[0.22648993]],AW
2,[[18]],[[3]],[[15]],['low holistic'],['left'],['upright'],['U0312.bmp'],['male'],[[8]],['male'],[[1]],[[0.2113391]],AW
3,[[18]],[[4]],[[6]],['low holistic'],['right'],['upright'],['U0106.bmp'],['male'],[[6]],['female'],[[0]],[[0.67353349]],AW
4,[[18]],[[5]],[[19]],['high holistic'],['right'],['upright'],['U0361.bmp'],['female'],[[12]],['male'],[[0]],[[0.9368352]],AW
5,[[18]],[[6]],[[14]],['low holistic'],['left'],['inverted'],['U0228.bmp'],['male'],[[12]],['male'],[[1]],[[0.41046895]],AW
6,[[18]],[[7]],[[19]],['low holistic'],['right'],['inverted'],['U0361.bmp'],['female'],[[8]],['male'],[[0]],[[0.69084006]],AW
7,[[18]],[[8]],[[9]],['low holistic'],['right'],['inverted'],['U0155.bmp'],['male'],[[12]],['female'],[[0]],[[0.59994472]],AW
8,[[18]],[[9]],[[8]],['low holistic'],['fovea'],['upright'],['U0137.bmp'],['male'],[[0]],['male'],[[1]],[[0.77528189]],AW
9,[[18]],[[10]],[[10]],['low holistic'],['left'],['upright'],['U0159.bmp'],['female'],[[2]],['female'],[[1]],[[0.17627654]],AW
10,[[18]],[[11]],[[2]],['high holistic'],['left'],['inverted'],['U0014.bmp'],['male'],[[6]],['male'],[[1]],[[0.31361468]],AW
11,[[18]],[[12]],[[13]],['low holistic'],['left'],['inverted'],['U0181.bmp'],['male'],[[8]],['male'],[[1]],[[0.05308873]],AW
12,[[18]],[[13]],[[18]],['high holistic'],['left'],['upright'],['U0359.bmp'],['male'],[[12]],['male'],[[1]],[[0.00044803]],AW
13,[[18]],[[14]],[[8]],['low holistic'],['left'],['upright'],['U0137.bmp'],['male'],[[4]],['male'],[[1]],[[0.50039912]],AW
14,[[18]],[[15]],[[2]],['low holistic'],['right'],['inverted'],['U0014.bmp'],['male'],[[8]],['male'],[[1]],[[0.29411567]],AW
15,[[18]],[[16]],[[11]],['high holistic'],['right'],['inverted'],['U0164.bmp'],['female'],[[8]],['male'],[[0]],[[0.01178421]],AW
16,[[18]],[[17]],[[18]],['high holistic'],['left'],['upright'],['U0359.bmp'],['male'],[[6]],['female'],[[0]],[[0.29902964]],AW
17,[[18]],[[18]],[[10]],['low holistic'],['left'],['inverted'],['U0159.bmp'],['female'],[[10]],['female'],[[1]],[[0.36062996]],AW
18,[[18]],[[19]],[[7]],['high holistic'],['left'],['upright'],['U0107.bmp'],['female'],[[6]],['female'],[[1]],[[0.33669417]],AW
19,[[18]],[[20]],[[2]],['high holistic'],['left'],['inverted'],['U0014.bmp'],['male'],[[4]],['male'],[[1]],[[0.07672496]],AW
20,[[18]],[[21]],[[14]],['low holistic'],['left'],['inverted'],['U0228.bmp'],['male'],[[8]],['male'],[[1]],[[0.12165412]],AW
21,[[18]],[[22]],[[19]],['high holistic'],['right'],['upright'],['U0361.bmp'],['female'],[[4]],['female'],[[1]],[[0.41400512]],AW
22,[[18]],[[23]],[[16]],['low holistic'],['left'],['inverted'],['U0335.bmp'],['female'],[[2]],['male'],[[0]],[[0.40511218]],AW
23,[[18]],[[24]],[[18]],['high holistic'],['right'],['upright'],['U0359.bmp'],['male'],[[10]],['male'],[[1]],[[0.24332459]],AW
24,[[18]],[[25]],[[17]],['low holistic'],['left'],['inverted'],['U0346.bmp'],['female'],[[4]],['male'],[[0]],[[0.57059604]],AW
25,[[18]],[[26]],[[2]],['low holistic'],['right'],['inverted'],['U0014.bmp'],['male'],[[2]],['male'],[[1]],[[0.36403304]],AW
26,[[18]],[[27]],[[3]],['high holistic'],['right'],['upright'],['U0020.bmp'],['male'],[[8]],['female'],[[0]],[[0.63685774]],AW
27,[[18]],[[28]],[[4]],['low holistic'],['right'],['upright'],['U0061.bmp'],['female'],[[10]],['female'],[[1]],[[0.44419008]],AW
28,[[18]],[[29]],[[16]],['low holistic'],['left'],['upright'],['U0335.bmp'],['female'],[[4]],['female'],[[1]],[[0.24970661]],AW
29,[[18]],[[30]],[[19]],['low holistic'],['left'],['upright'],['U0361.bmp'],['female'],[[12]],['female'],[[1]],[[0.37651209]],AW
30,[[18]],[[31]],[[18]],['low holistic'],['left'],['inverted'],['U0359.bmp'],['male'],[[8]],['male'],[[1]],[[0.22587126]],AW
31,[[18]],[[32]],[[11]],['high holistic'],['left'],['inverted'],['U0164.bmp'],['female'],[[10]],['male'],[[0]],[[0.00016392]],AW
32,[[18]],[[33]],[[14]],['low holistic'],['right'],['upright'],['U0228.bmp'],['male'],[[12]],['male'],[[1]],[[0.13656693]],AW
33,[[18]],[[34]],[[13]],['low holistic'],['left'],['inverted'],['U0181.bmp'],['male'],[[8]],['male'],[[1]],[[0.00284775]],AW
34,[[18]],[[35]],[[19]],['high holistic'],['fovea'],['upright'],['U0361.bmp'],['female'],[[0]],['female'],[[1]],[[0.05967946]],AW
35,[[18]],[[36]],[[8]],['low holistic'],['left'],['inverted'],['U0137.bmp'],['male'],[[8]],['male'],[[1]],[[0.23327672]],AW
36,[[18]],[[37]],[[16]],['high holistic'],['right'],['upright'],['U0335.bmp'],['female'],[[12]],['male'],[[0]],[[0.20972491]],AW
37,[[18]],[[38]],[[2]],['high holistic'],['right'],['upright'],['U0014.bmp'],['male'],[[8]],['male'],[[1]],[[0.07320749]],AW
38,[[18]],[[39]],[[14]],['high holistic'],['left'],['inverted'],['U0228.bmp'],['male'],[[10]],['female'],[[0]],[[0.33456736]],AW
39,[[18]],[[40]],[[11]],['low holistic'],['right'],['inverted'],['U0164.bmp'],['female'],[[12]],['male'],[[0]],[[0.01714163]],AW
40,[[18]],[[41]],[[12]],['low holistic'],['right'],['inverted'],['U0178.bmp'],['female'],[[6]],['male'],[[0]],[[0.23113336]],AW
41,[[18]],[[42]],[[1]],['low holistic'],['left'],['inverted'],['U0006.bmp'],['female'],[[10]],['male'],[[0]],[[0.43193466]],AW
42,[[18]],[[43]],[[16]],['low holistic'],['fovea'],['upright'],['U0335.bmp'],['female'],[[0]],['female'],[[1]],[[0.38923858]],AW
43,[[18]],[[44]],[[3]],['high holistic'],['right'],['upright'],['U0020.bmp'],['male'],[[4]],['female'],[[0]],[[0.93530538]],AW
44,[[18]],[[45]],[[6]],['low holistic'],['right'],['upright'],['U0106.bmp'],['male'],[[10]],['male'],[[1]],[[0.42512919]],AW
45,[[18]],[[46]],[[18]],['low holistic'],['left'],['inverted'],['U0359.bmp'],['male'],[[2]],['male'],[[1]],[[0.24064552]],AW
46,[[18]],[[47]],[[2]],['high holistic'],['left'],['upright'],['U0014.bmp'],['male'],[[4]],['male'],[[1]],[[0.14164225]],AW
47,[[18]],[[48]],[[11]],['high holistic'],['right'],['upright'],['U0164.bmp'],['female'],[[8]],['male'],[[0]],[[0.47998352]],AW
48,[[18]],[[49]],[[13]],['low holistic'],['left'],['inverted'],['U0181.bmp'],['male'],[[12]],['female'],[[0]],[[0.63727034]],AW
49,[[18]],[[50]],[[10]],['low holistic'],['left'],['upright'],['U0159.bmp'],['female'],[[10]],['female'],[[1]],[[0.10001135]],AW
50,[[18]],[[51]],[[2]],['high holistic'],['left'],['inverted'],['U0014.bmp'],['male'],[[4]],['male'],[[1]],[[0.19224093]],AW
51,[[18]],[[52]],[[17]],['high holistic'],['fovea'],['inverted'],['U0346.bmp'],['male'],[[0]],['male'],[[1]],[[0.68848878]],AW
52,[[18]],[[53]],[[6]],['high holistic'],['right'],['upright'],['U0106.bmp'],['female'],[[2]],['female'],[[1]],[[0.22117794]],AW
53,[[18]],[[54]],[[4]],['low holistic'],['left'],['inverted'],['U0061.bmp'],['female'],[[2]],['female'],[[1]],[[0.20424267]],AW
54,[[18]],[[55]],[[6]],['low holistic'],['right'],['inverted'],['U0106.bmp'],['male'],[[8]],['male'],[[1]],[[1.07609612]],AW
55,[[18]],[[56]],[[18]],['low holistic'],['right'],['upright'],['U0359.bmp'],['male'],[[4]],['male'],[[1]],[[0.0169268]],AW
56,[[18]],[[57]],[[10]],['low holistic'],['right'],['inverted'],['U0159.bmp'],['female'],[[2]],['female'],[[1]],[[0.27080054]],AW
57,[[18]],[[58]],[[6]],['high holistic'],['left'],['upright'],['U0106.bmp'],['female'],[[10]],['female'],[[1]],[[0.08394874]],AW
58,[[18]],[[59]],[[13]],['low holistic'],['left'],['upright'],['U0181.bmp'],['male'],[[12]],['male'],[[1]],[[0.03405545]],AW
59,[[18]],[[60]],[[16]],['low holistic'],['right'],['inverted'],['U0335.bmp'],['female'],[[4]],['female'],[[1]],[[0.80731545]],AW
60,[[18]],[[61]],[[18]],['low holistic'],['fovea'],['inverted'],['U0359.bmp'],['male'],[[0]],['male'],[[1]],[[0.19256414]],AW
61,[[18]],[[62]],[[15]],['high holistic'],['right'],['upright'],['U0312.bmp'],['male'],[[4]],['male'],[[1]],[[0.57730299]],AW
62,[[18]],[[63]],[[8]],['high holistic'],['right'],['inverted'],['U0137.bmp'],['female'],[[12]],['male'],[[0]],[[0.03318767]],AW
63,[[18]],[[64]],[[5]],['high holistic'],['right'],['inverted'],['U0076.bmp'],['female'],[[6]],['male'],[[0]],[[0.56169063]],AW
64,[[18]],[[65]],[[10]],['low holistic'],['left'],['inverted'],['U0159.bmp'],['female'],[[12]],['female'],[[1]],[[0.08308477]],AW
65,[[18]],[[66]],[[14]],['low holistic'],['right'],['upright'],['U0228.bmp'],['male'],[[4]],['male'],[[1]],[[0.00012266]],AW
66,[[18]],[[67]],[[14]],['low holistic'],['right'],['inverted'],['U0228.bmp'],['male'],[[2]],['male'],[[1]],[[0.00665339]],AW
67,[[18]],[[68]],[[11]],['high holistic'],['right'],['inverted'],['U0164.bmp'],['female'],[[2]],['male'],[[0]],[[25.86973641]],AW
68,[[18]],[[69]],[[17]],['high holistic'],['right'],['upright'],['U0346.bmp'],['male'],[[2]],['male'],[[1]],[[0.40333536]],AW
69,[[18]],[[70]],[[17]],['high holistic'],['left'],['inverted'],['U0346.bmp'],['male'],[[6]],['male'],[[1]],[[0.16315692]],AW
70,[[18]],[[71]],[[14]],['high holistic'],['right'],['inverted'],['U0228.bmp'],['male'],[[2]],['male'],[[1]],[[0.13258209]],AW
71,[[18]],[[72]],[[5]],['low holistic'],['right'],['inverted'],['U0076.bmp'],['male'],[[6]],['male'],[[1]],[[0.00161445]],AW
72,[[18]],[[73]],[[10]],['high holistic'],['left'],['upright'],['U0159.bmp'],['male'],[[6]],['female'],[[0]],[[0.19352704]],AW
73,[[18]],[[74]],[[12]],['low holistic'],['fovea'],['inverted'],['U0178.bmp'],['female'],[[0]],['female'],[[1]],[[0.08131225]],AW
74,[[18]],[[75]],[[9]],['low holistic'],['left'],['upright'],['U0155.bmp'],['male'],[[8]],['male'],[[1]],[[0.17370445]],AW
75,[[18]],[[76]],[[11]],['low holistic'],['right'],['upright'],['U0164.bmp'],['female'],[[8]],['female'],[[1]],[[0.1201429]],AW
76,[[18]],[[77]],[[15]],['low holistic'],['left'],['inverted'],['U0312.bmp'],['male'],[[10]],['male'],[[1]],[[0.53849986]],AW
77,[[18]],[[78]],[[9]],['high holistic'],['fovea'],['inverted'],['U0155.bmp'],['female'],[[0]],['female'],[[1]],[[0.44506359]],AW
78,[[18]],[[79]],[[10]],['low holistic'],['left'],['upright'],['U0159.bmp'],['female'],[[10]],['female'],[[1]],[[0.09899272]],AW
79,[[18]],[[80]],[[3]],['high holistic'],['right'],['upright'],['U0020.bmp'],['male'],[[8]],['female'],[[0]],[[0.00736413]],AW
80,[[18]],[[81]],[[4]],['low holistic'],['right'],['upright'],['U0061.bmp'],['female'],[[6]],['female'],[[1]],[[0.00010674]],AW
81,[[18]],[[82]],[[8]],['low holistic'],['right'],['inverted'],['U0137.bmp'],['male'],[[4]],['male'],[[1]],[[0.07900159]],AW
82,[[18]],[[83]],[[16]],['low holistic'],['right'],['inverted'],['U0335.bmp'],['female'],[[10]],['male'],[[0]],[[0.00013844]],AW
83,[[18]],[[84]],[[12]],['high holistic'],['left'],['upright'],['U0178.bmp'],['male'],[[6]],['male'],[[1]],[[0.14663939]],AW
84,[[18]],[[85]],[[20]],['low holistic'],['left'],['upright'],['U0362.bmp'],['male'],[[10]],['male'],[[1]],[[0.22184093]],AW
85,[[18]],[[86]],[[15]],['high holistic'],['left'],['upright'],['U0312.bmp'],['male'],[[2]],['male'],[[1]],[[0.74148313]],AW
86,[[18]],[[87]],[[20]],['high holistic'],['right'],['inverted'],['U0362.bmp'],['female'],[[2]],['male'],[[0]],[[0.07292937]],AW
87,[[18]],[[88]],[[9]],['low holistic'],['left'],['upright'],['U0155.bmp'],['male'],[[4]],['male'],[[1]],[[0.06790844]],AW
88,[[18]],[[89]],[[9]],['low holistic'],['right'],['upright'],['U0155.bmp'],['male'],[[4]],['male'],[[1]],[[0.00011543]],AW
89,[[18]],[[90]],[[13]],['high holistic'],['right'],['upright'],['U0181.bmp'],['female'],[[2]],['female'],[[1]],[[0.18471592]],AW
90,[[18]],[[91]],[[6]],['low holistic'],['left'],['inverted'],['U0106.bmp'],['male'],[[8]],['male'],[[1]],[[0.00016871]],AW
91,[[18]],[[92]],[[17]],['low holistic'],['right'],['inverted'],['U0346.bmp'],['female'],[[10]],['female'],[[1]],[[0.06604018]],AW
92,[[18]],[[93]],[[6]],['high holistic'],['left'],['inverted'],['U0106.bmp'],['female'],[[8]],['male'],[[0]],[[9.85171646e-05]],AW
93,[[18]],[[94]],[[15]],['low holistic'],['right'],['inverted'],['U0312.bmp'],['male'],[[12]],['male'],[[1]],[[0.41522463]],AW
94,[[18]],[[95]],[[8]],['low holistic'],['left'],['inverted'],['U0137.bmp'],['male'],[[6]],['male'],[[1]],[[0.04760885]],AW
95,[[18]],[[96]],[[12]],['low holistic'],['fovea'],['upright'],['U0178.bmp'],['female'],[[0]],['female'],[[1]],[[0.19809311]],AW
96,[[18]],[[97]],[[8]],['low holistic'],['left'],['inverted'],['U0137.bmp'],['male'],[[2]],['male'],[[1]],[[0.00543685]],AW
97,[[18]],[[98]],[[2]],['high holistic'],['fovea'],['inverted'],['U0014.bmp'],['male'],[[0]],['male'],[[1]],[[0.26730558]],AW
98,[[18]],[[99]],[[15]],['high holistic'],['left'],['upright'],['U0312.bmp'],['male'],[[10]],['male'],[[1]],[[0.08065303]],AW
99,[[18]],[[100]],[[20]],['low holistic'],['left'],['inverted'],['U0362.bmp'],['male'],[[12]],['male'],[[1]],[[0.00800625]],AW
100,[[18]],[[101]],[[13]],['high holistic'],['right'],['upright'],['U0181.bmp'],['female'],[[10]],['female'],[[1]],[[0.30187907]],AW
101,[[18]],[[102]],[[3]],['high holistic'],['right'],['inverted'],['U0020.bmp'],['male'],[[2]],['female'],[[0]],[[0.18534341]],AW
102,[[18]],[[103]],[[20]],['low holistic'],['right'],['inverted'],['U0362.bmp'],['male'],[[10]],['male'],[[1]],[[0.05895849]],AW
103,[[18]],[[104]],[[19]],['high holistic'],['left'],['inverted'],['U0361.bmp'],['female'],[[12]],['male'],[[0]],[[0.08726637]],AW
104,[[18]],[[105]],[[5]],['high holistic'],['right'],['upright'],['U0076.bmp'],['female'],[[6]],['male'],[[0]],[[0.00011127]],AW
105,[[18]],[[106]],[[11]],['low holistic'],['left'],['upright'],['U0164.bmp'],['female'],[[2]],['female'],[[1]],[[0.00043773]],AW
106,[[18]],[[107]],[[17]],['high holistic'],['left'],['inverted'],['U0346.bmp'],['male'],[[6]],['female'],[[0]],[[0.08596662]],AW
107,[[18]],[[108]],[[12]],['high holistic'],['right'],['inverted'],['U0178.bmp'],['male'],[[12]],['female'],[[0]],[[0.15300608]],AW
108,[[18]],[[109]],[[1]],['high holistic'],['right'],['upright'],['U0006.bmp'],['female'],[[2]],['female'],[[1]],[[0.03457065]],AW
109,[[18]],[[110]],[[1]],['high holistic'],['left'],['inverted'],['U0006.bmp'],['female'],[[12]],['female'],[[1]],[[2.01834595]],AW
110,[[18]],[[111]],[[4]],['high holistic'],['fovea'],['upright'],['U0061.bmp'],['female'],[[0]],['female'],[[1]],[[0.28863646]],AW
111,[[18]],[[112]],[[16]],['low holistic'],['left'],['inverted'],['U0335.bmp'],['female'],[[8]],['female'],[[1]],[[0.15067019]],AW
112,[[18]],[[113]],[[15]],['low holistic'],['fovea'],['inverted'],['U0312.bmp'],['male'],[[0]],['male'],[[1]],[[0.35827014]],AW
113,[[18]],[[114]],[[5]],['low holistic'],['right'],['inverted'],['U0076.bmp'],['male'],[[2]],['male'],[[1]],[[0.14451918]],AW
114,[[18]],[[115]],[[12]],['high holistic'],['left'],['upright'],['U0178.bmp'],['male'],[[10]],['male'],[[1]],[[0.15711071]],AW
115,[[18]],[[116]],[[6]],['high holistic'],['left'],['inverted'],['U0106.bmp'],['female'],[[10]],['male'],[[0]],[[0.00010813]],AW
116,[[18]],[[117]],[[5]],['low holistic'],['left'],['inverted'],['U0076.bmp'],['male'],[[4]],['male'],[[1]],[[0.06234274]],AW
117,[[18]],[[118]],[[6]],['high holistic'],['right'],['inverted'],['U0106.bmp'],['female'],[[10]],['female'],[[1]],[[0.53080686]],AW
118,[[18]],[[119]],[[18]],['low holistic'],['right'],['upright'],['U0359.bmp'],['male'],[[2]],['male'],[[1]],[[0.01466575]],AW
119,[[18]],[[120]],[[7]],['low holistic'],['right'],['upright'],['U0107.bmp'],['female'],[[8]],['female'],[[1]],[[0.08515244]],AW
120,[[18]],[[121]],[[8]],['low holistic'],['right'],['inverted'],['U0137.bmp'],['male'],[[8]],['male'],[[1]],[[1.93099315]],AW
121,[[18]],[[122]],[[4]],['high holistic'],['right'],['inverted'],['U0061.bmp'],['female'],[[8]],['male'],[[0]],[[0.22904828]],AW
122,[[18]],[[123]],[[7]],['high holistic'],['left'],['upright'],['U0107.bmp'],['female'],[[8]],['male'],[[0]],[[0.00020913]],AW
123,[[18]],[[124]],[[1]],['high holistic'],['right'],['upright'],['U0006.bmp'],['female'],[[2]],['male'],[[0]],[[0.03449947]],AW
124,[[18]],[[125]],[[6]],['high holistic'],['right'],['upright'],['U0106.bmp'],['female'],[[10]],['female'],[[1]],[[0.16250888]],AW
125,[[18]],[[126]],[[15]],['high holistic'],['left'],['inverted'],['U0312.bmp'],['male'],[[6]],['male'],[[1]],[[0.44300607]],AW
126,[[18]],[[127]],[[5]],['high holistic'],['right'],['upright'],['U0076.bmp'],['female'],[[6]],['female'],[[1]],[[0.75459907]],AW
127,[[18]],[[128]],[[12]],['high holistic'],['left'],['upright'],['U0178.bmp'],['male'],[[12]],['male'],[[1]],[[0.30060141]],AW
128,[[18]],[[129]],[[9]],['high holistic'],['left'],['upright'],['U0155.bmp'],['female'],[[12]],['male'],[[0]],[[0.19109879]],AW
129,[[18]],[[130]],[[20]],['low holistic'],['right'],['inverted'],['U0362.bmp'],['male'],[[8]],['male'],[[1]],[[0.23078049]],AW
130,[[18]],[[131]],[[19]],['high holistic'],['left'],['inverted'],['U0361.bmp'],['female'],[[10]],['male'],[[0]],[[1.1009047]],AW
131,[[18]],[[132]],[[15]],['high holistic'],['fovea'],['inverted'],['U0312.bmp'],['male'],[[0]],['female'],[[0]],[[0.29729294]],AW
132,[[18]],[[133]],[[9]],['high holistic'],['left'],['upright'],['U0155.bmp'],['female'],[[2]],['female'],[[1]],[[0.26955386]],AW
133,[[18]],[[134]],[[11]],['low holistic'],['right'],['inverted'],['U0164.bmp'],['female'],[[10]],['female'],[[1]],[[0.33119505]],AW
134,[[18]],[[135]],[[19]],['high holistic'],['fovea'],['inverted'],['U0361.bmp'],['female'],[[0]],['female'],[[1]],[[0.30077634]],AW
135,[[18]],[[136]],[[18]],['low holistic'],['left'],['inverted'],['U0359.bmp'],['male'],[[6]],['male'],[[1]],[[0.05044846]],AW
136,[[18]],[[137]],[[10]],['low holistic'],['right'],['upright'],['U0159.bmp'],['female'],[[2]],['female'],[[1]],[[0.12656146]],AW
137,[[18]],[[138]],[[4]],['high holistic'],['left'],['inverted'],['U0061.bmp'],['female'],[[6]],['female'],[[1]],[[0.35424647]],AW
138,[[18]],[[139]],[[9]],['low holistic'],['left'],['upright'],['U0155.bmp'],['male'],[[4]],['male'],[[1]],[[0.21115551]],AW
139,[[18]],[[140]],[[17]],['high holistic'],['right'],['inverted'],['U0346.bmp'],['male'],[[10]],['male'],[[1]],[[0.85963809]],AW
140,[[18]],[[141]],[[19]],['low holistic'],['left'],['upright'],['U0361.bmp'],['female'],[[6]],['female'],[[1]],[[0.00231983]],AW
141,[[18]],[[142]],[[11]],['low holistic'],['left'],['inverted'],['U0164.bmp'],['female'],[[10]],['female'],[[1]],[[0.5445768]],AW
142,[[18]],[[143]],[[5]],['low holistic'],['left'],['upright'],['U0076.bmp'],['male'],[[10]],['male'],[[1]],[[0.20375222]],AW
143,[[18]],[[144]],[[12]],['high holistic'],['right'],['inverted'],['U0178.bmp'],['male'],[[6]],['female'],[[0]],[[0.05174533]],AW
144,[[18]],[[145]],[[9]],['low holistic'],['left'],['upright'],['U0155.bmp'],['male'],[[12]],['male'],[[1]],[[0.17854934]],AW
145,[[18]],[[146]],[[11]],['high holistic'],['left'],['inverted'],['U0164.bmp'],['female'],[[6]],['male'],[[0]],[[0.34576479]],AW
146,[[18]],[[147]],[[17]],['low holistic'],['right'],['upright'],['U0346.bmp'],['female'],[[10]],['female'],[[1]],[[0.36473859]],AW
147,[[18]],[[148]],[[12]],['low holistic'],['left'],['inverted'],['U0178.bmp'],['female'],[[12]],['male'],[[0]],[[0.08515659]],AW
148,[[18]],[[149]],[[8]],['low holistic'],['left'],['upright'],['U0137.bmp'],['male'],[[4]],['male'],[[1]],[[0.056519]],AW
149,[[18]],[[150]],[[18]],['low holistic'],['left'],['upright'],['U0359.bmp'],['male'],[[6]],['male'],[[1]],[[0.00012005]],AW
150,[[18]],[[151]],[[13]],['low holistic'],['right'],['upright'],['U0181.bmp'],['male'],[[8]],['male'],[[1]],[[0.1598412]],AW
151,[[18]],[[152]],[[16]],['high holistic'],['left'],['upright'],['U0335.bmp'],['female'],[[8]],['female'],[[1]],[[0.63430918]],AW
152,[[18]],[[153]],[[9]],['low holistic'],['left'],['inverted'],['U0155.bmp'],['male'],[[12]],['male'],[[1]],[[0.32879362]],AW
153,[[18]],[[154]],[[6]],['high holistic'],['left'],['inverted'],['U0106.bmp'],['female'],[[10]],['male'],[[0]],[[0.12923511]],AW
154,[[18]],[[155]],[[4]],['low holistic'],['left'],['inverted'],['U0061.bmp'],['female'],[[4]],['female'],[[1]],[[0.00010547]],AW
155,[[18]],[[156]],[[13]],['low holistic'],['right'],['inverted'],['U0181.bmp'],['male'],[[12]],['male'],[[1]],[[0.1575685]],AW
156,[[18]],[[157]],[[18]],['low holistic'],['fovea'],['inverted'],['U0359.bmp'],['male'],[[0]],['male'],[[1]],[[0.18339064]],AW
157,[[18]],[[158]],[[2]],['low holistic'],['left'],['inverted'],['U0014.bmp'],['male'],[[10]],['male'],[[1]],[[0.85440465]],AW
158,[[18]],[[159]],[[13]],['low holistic'],['right'],['inverted'],['U0181.bmp'],['male'],[[2]],['female'],[[0]],[[0.44590664]],AW
159,[[18]],[[160]],[[16]],['high holistic'],['left'],['upright'],['U0335.bmp'],['female'],[[6]],['female'],[[1]],[[0.15583315]],AW
160,[[18]],[[161]],[[4]],['high holistic'],['left'],['upright'],['U0061.bmp'],['female'],[[2]],['female'],[[1]],[[0.0051269]],AW
161,[[18]],[[162]],[[10]],['high holistic'],['left'],['inverted'],['U0159.bmp'],['male'],[[12]],['female'],[[0]],[[0.8517797]],AW
162,[[18]],[[163]],[[14]],['high holistic'],['left'],['upright'],['U0228.bmp'],['male'],[[12]],['female'],[[0]],[[0.02833596]],AW
163,[[18]],[[164]],[[16]],['low holistic'],['left'],['upright'],['U0335.bmp'],['female'],[[10]],['female'],[[1]],[[0.00014305]],AW
164,[[18]],[[165]],[[3]],['low holistic'],['right'],['inverted'],['U0020.bmp'],['female'],[[12]],['female'],[[1]],[[0.29759622]],AW
165,[[18]],[[166]],[[17]],['high holistic'],['left'],['inverted'],['U0346.bmp'],['male'],[[4]],['female'],[[0]],[[0.21312873]],AW
166,[[18]],[[167]],[[18]],['high holistic'],['right'],['inverted'],['U0359.bmp'],['male'],[[8]],['male'],[[1]],[[0.07013167]],AW
167,[[18]],[[168]],[[13]],['low holistic'],['right'],['upright'],['U0181.bmp'],['male'],[[2]],['male'],[[1]],[[9.94428992e-05]],AW
168,[[18]],[[169]],[[14]],['low holistic'],['left'],['inverted'],['U0228.bmp'],['male'],[[12]],['male'],[[1]],[[0.26748309]],AW
169,[[18]],[[170]],[[17]],['high holistic'],['right'],['inverted'],['U0346.bmp'],['male'],[[8]],['female'],[[0]],[[0.73487848]],AW
170,[[18]],[[171]],[[12]],['high holistic'],['right'],['upright'],['U0178.bmp'],['male'],[[12]],['female'],[[0]],[[0.45020103]],AW
171,[[18]],[[172]],[[5]],['low holistic'],['right'],['upright'],['U0076.bmp'],['male'],[[4]],['male'],[[1]],[[0.16758662]],AW
172,[[18]],[[173]],[[18]],['high holistic'],['right'],['inverted'],['U0359.bmp'],['male'],[[10]],['male'],[[1]],[[0.19329196]],AW
173,[[18]],[[174]],[[18]],['high holistic'],['right'],['inverted'],['U0359.bmp'],['male'],[[10]],['male'],[[1]],[[0.22469207]],AW
174,[[18]],[[175]],[[10]],['high holistic'],['left'],['upright'],['U0159.bmp'],['male'],[[6]],['male'],[[1]],[[0.24826343]],AW
175,[[18]],[[176]],[[2]],['low holistic'],['right'],['upright'],['U0014.bmp'],['male'],[[6]],['male'],[[1]],[[0.19153702]],AW
176,[[18]],[[177]],[[4]],['low holistic'],['right'],['inverted'],['U0061.bmp'],['female'],[[2]],['female'],[[1]],[[0.19889625]],AW
177,[[18]],[[178]],[[19]],['low holistic'],['right'],['inverted'],['U0361.bmp'],['female'],[[4]],['female'],[[1]],[[0.33662335]],AW
178,[[18]],[[179]],[[5]],['high holistic'],['left'],['upright'],['U0076.bmp'],['female'],[[4]],['female'],[[1]],[[0.12202488]],AW
179,[[18]],[[180]],[[15]],['high holistic'],['left'],['upright'],['U0312.bmp'],['male'],[[12]],['male'],[[1]],[[0.83781124]],AW
180,[[18]],[[181]],[[6]],['low holistic'],['right'],['inverted'],['U0106.bmp'],['male'],[[6]],['female'],[[0]],[[1.59458496]],AW
181,[[18]],[[182]],[[7]],['low holistic'],['right'],['inverted'],['U0107.bmp'],['female'],[[10]],['male'],[[0]],[[0.21031618]],AW
182,[[18]],[[183]],[[3]],['low holistic'],['right'],['inverted'],['U0020.bmp'],['female'],[[2]],['female'],[[1]],[[0.1866723]],AW
183,[[18]],[[184]],[[6]],['high holistic'],['left'],['inverted'],['U0106.bmp'],['female'],[[2]],['female'],[[1]],[[0.05096474]],AW
184,[[18]],[[185]],[[4]],['high holistic'],['left'],['upright'],['U0061.bmp'],['female'],[[6]],['female'],[[1]],[[0.0419518]],AW
185,[[18]],[[186]],[[16]],['low holistic'],['left'],['inverted'],['U0335.bmp'],['female'],[[6]],['female'],[[1]],[[0.02393486]],AW
186,[[18]],[[187]],[[5]],['low holistic'],['left'],['upright'],['U0076.bmp'],['male'],[[10]],['male'],[[1]],[[0.75038236]],AW
187,[[18]],[[188]],[[13]],['high holistic'],['right'],['inverted'],['U0181.bmp'],['female'],[[8]],['female'],[[1]],[[0.05769948]],AW
188,[[18]],[[189]],[[3]],['high holistic'],['right'],['inverted'],['U0020.bmp'],['male'],[[6]],['female'],[[0]],[[0.53408592]],AW
189,[[18]],[[190]],[[13]],['low holistic'],['right'],['upright'],['U0181.bmp'],['male'],[[2]],['male'],[[1]],[[0.70386844]],AW
190,[[18]],[[191]],[[2]],['high holistic'],['left'],['upright'],['U0014.bmp'],['male'],[[12]],['female'],[[0]],[[0.15741874]],AW
191,[[18]],[[192]],[[15]],['low holistic'],['fovea'],['upright'],['U0312.bmp'],['male'],[[0]],['male'],[[1]],[[0.06918452]],AW
192,[[18]],[[193]],[[18]],['high holistic'],['right'],['upright'],['U0359.bmp'],['male'],[[2]],['male'],[[1]],[[0.10539643]],AW
193,[[18]],[[194]],[[9]],['high holistic'],['right'],['upright'],['U0155.bmp'],['female'],[[12]],['female'],[[1]],[[0.66830383]],AW
194,[[18]],[[195]],[[8]],['low holistic'],['right'],['inverted'],['U0137.bmp'],['male'],[[8]],['male'],[[1]],[[0.16993817]],AW
195,[[18]],[[196]],[[18]],['low holistic'],['left'],['upright'],['U0359.bmp'],['male'],[[12]],['male'],[[1]],[[0.15671613]],AW
196,[[18]],[[197]],[[19]],['low holistic'],['left'],['inverted'],['U0361.bmp'],['female'],[[6]],['male'],[[0]],[[0.18088272]],AW
197,[[18]],[[198]],[[13]],['high holistic'],['left'],['inverted'],['U0181.bmp'],['female'],[[12]],['female'],[[1]],[[0.09392049]],AW
198,[[18]],[[199]],[[7]],['low holistic'],['right'],['inverted'],['U0107.bmp'],['female'],[[2]],['female'],[[1]],[[0.00015219]],AW
199,[[18]],[[200]],[[1]],['high holistic'],['right'],['inverted'],['U0006.bmp'],['female'],[[4]],['female'],[[1]],[[0.20965433]],AW
200,[[18]],[[201]],[[6]],['high holistic'],['right'],['inverted'],['U0106.bmp'],['female'],[[8]],['female'],[[1]],[[0.4734789]],AW
201,[[18]],[[202]],[[14]],['low holistic'],['left'],['inverted'],['U0228.bmp'],['male'],[[8]],['male'],[[1]],[[0.11896138]],AW
202,[[18]],[[203]],[[20]],['high holistic'],['right'],['inverted'],['U0362.bmp'],['female'],[[6]],['female'],[[1]],[[0.2423605]],AW
203,[[18]],[[204]],[[7]],['low holistic'],['right'],['inverted'],['U0107.bmp'],['female'],[[8]],['female'],[[1]],[[0.00050423]],AW
204,[[18]],[[205]],[[2]],['low holistic'],['right'],['upright'],['U0014.bmp'],['male'],[[10]],['male'],[[1]],[[0.09744242]],AW
205,[[18]],[[206]],[[16]],['low holistic'],['left'],['upright'],['U0335.bmp'],['female'],[[4]],['female'],[[1]],[[0.2536617]],AW
206,[[18]],[[207]],[[13]],['high holistic'],['left'],['upright'],['U0181.bmp'],['female'],[[4]],['female'],[[1]],[[1.05939169]],AW
207,[[18]],[[208]],[[4]],['high holistic'],['right'],['upright'],['U0061.bmp'],['female'],[[4]],['female'],[[1]],[[0.15256733]],AW
208,[[18]],[[209]],[[20]],['high holistic'],['left'],['inverted'],['U0362.bmp'],['female'],[[2]],['male'],[[0]],[[0.22663394]],AW
209,[[18]],[[210]],[[11]],['low holistic'],['left'],['inverted'],['U0164.bmp'],['female'],[[6]],['female'],[[1]],[[0.21891534]],AW
210,[[18]],[[211]],[[10]],['high holistic'],['right'],['inverted'],['U0159.bmp'],['male'],[[8]],['female'],[[0]],[[0.20828468]],AW
211,[[18]],[[212]],[[8]],['low holistic'],['right'],['upright'],['U0137.bmp'],['male'],[[12]],['male'],[[1]],[[0.59132311]],AW
212,[[18]],[[213]],[[17]],['high holistic'],['left'],['inverted'],['U0346.bmp'],['male'],[[4]],['female'],[[0]],[[0.17735425]],AW
213,[[18]],[[214]],[[12]],['low holistic'],['right'],['upright'],['U0178.bmp'],['female'],[[4]],['female'],[[1]],[[0.04216545]],AW
214,[[18]],[[215]],[[15]],['low holistic'],['left'],['upright'],['U0312.bmp'],['male'],[[4]],['male'],[[1]],[[0.00039101]],AW
215,[[18]],[[216]],[[10]],['high holistic'],['fovea'],['inverted'],['U0159.bmp'],['male'],[[0]],['female'],[[0]],[[0.14293177]],AW
216,[[18]],[[217]],[[16]],['low holistic'],['right'],['upright'],['U0335.bmp'],['female'],[[12]],['female'],[[1]],[[0.0001338]],AW
217,[[18]],[[218]],[[7]],['low holistic'],['right'],['inverted'],['U0107.bmp'],['female'],[[12]],['female'],[[1]],[[0.12354297]],AW
218,[[18]],[[219]],[[17]],['low holistic'],['right'],['inverted'],['U0346.bmp'],['female'],[[12]],['male'],[[0]],[[0.92481286]],AW
219,[[18]],[[220]],[[13]],['high holistic'],['right'],['inverted'],['U0181.bmp'],['female'],[[12]],['female'],[[1]],[[0.21617032]],AW
220,[[18]],[[221]],[[6]],['high holistic'],['right'],['inverted'],['U0106.bmp'],['female'],[[6]],['male'],[[0]],[[0.24793472]],AW
221,[[18]],[[222]],[[1]],['high holistic'],['right'],['upright'],['U0006.bmp'],['female'],[[10]],['female'],[[1]],[[0.11653082]],AW
222,[[18]],[[223]],[[6]],['high holistic'],['left'],['inverted'],['U0106.bmp'],['female'],[[2]],['female'],[[1]],[[0.48822765]],AW
223,[[18]],[[224]],[[9]],['low holistic'],['right'],['inverted'],['U0155.bmp'],['male'],[[2]],['female'],[[0]],[[0.08498553]],AW
224,[[18]],[[225]],[[18]],['low holistic'],['right'],['upright'],['U0359.bmp'],['male'],[[4]],['male'],[[1]],[[0.00010049]],AW
225,[[18]],[[226]],[[7]],['low holistic'],['fovea'],['upright'],['U0107.bmp'],['female'],[[0]],['female'],[[1]],[[0.09778757]],AW
226,[[18]],[[227]],[[3]],['high holistic'],['right'],['upright'],['U0020.bmp'],['male'],[[12]],['female'],[[0]],[[0.99744595]],AW
227,[[18]],[[228]],[[6]],['high holistic'],['right'],['upright'],['U0106.bmp'],['female'],[[4]],['female'],[[1]],[[0.14113005]],AW
228,[[18]],[[229]],[[12]],['high holistic'],['right'],['upright'],['U0178.bmp'],['male'],[[10]],['male'],[[1]],[[0.21585537]],AW
229,[[18]],[[230]],[[9]],['low holistic'],['left'],['inverted'],['U0155.bmp'],['male'],[[10]],['male'],[[1]],[[0.19924021]],AW
230,[[18]],[[231]],[[4]],['high holistic'],['right'],['inverted'],['U0061.bmp'],['female'],[[2]],['female'],[[1]],[[0.21518936]],AW
231,[[18]],[[232]],[[13]],['high holistic'],['right'],['inverted'],['U0181.bmp'],['female'],[[8]],['male'],[[0]],[[0.02283284]],AW
232,[[18]],[[233]],[[4]],['low holistic'],['left'],['upright'],['U0061.bmp'],['female'],[[12]],['female'],[[1]],[[0.2542992]],AW
233,[[18]],[[234]],[[8]],['high holistic'],['left'],['upright'],['U0137.bmp'],['female'],[[2]],['female'],[[1]],[[0.11639534]],AW
234,[[18]],[[235]],[[18]],['high holistic'],['left'],['inverted'],['U0359.bmp'],['male'],[[2]],['female'],[[0]],[[0.55094155]],AW
235,[[18]],[[236]],[[14]],['high holistic'],['left'],['upright'],['U0228.bmp'],['male'],[[10]],['male'],[[1]],[[0.44970026]],AW
236,[[18]],[[237]],[[8]],['low holistic'],['left'],['inverted'],['U0137.bmp'],['male'],[[2]],['male'],[[1]],[[0.42421241]],AW
237,[[18]],[[238]],[[20]],['low holistic'],['left'],['upright'],['U0362.bmp'],['male'],[[12]],['male'],[[1]],[[0.16538421]],AW
238,[[18]],[[239]],[[6]],['low holistic'],['left'],['inverted'],['U0106.bmp'],['male'],[[10]],['male'],[[1]],[[0.0158242]],AW
239,[[18]],[[240]],[[2]],['high holistic'],['right'],['inverted'],['U0014.bmp'],['male'],[[8]],['male'],[[1]],[[0.84753035]],AW
240,[[18]],[[241]],[[16]],['high holistic'],['left'],['upright'],['U0335.bmp'],['female'],[[8]],['female'],[[1]],[[0.25411261]],AW
241,[[18]],[[242]],[[14]],['high holistic'],['right'],['upright'],['U0228.bmp'],['male'],[[12]],['male'],[[1]],[[0.07431756]],AW
242,[[18]],[[243]],[[14]],['low holistic'],['left'],['upright'],['U0228.bmp'],['male'],[[6]],['male'],[[1]],[[0.05592099]],AW
243,[[18]],[[244]],[[8]],['low holistic'],['right'],['upright'],['U0137.bmp'],['male'],[[2]],['male'],[[1]],[[0.11828071]],AW
244,[[18]],[[245]],[[5]],['low holistic'],['fovea'],['inverted'],['U0076.bmp'],['male'],[[0]],['male'],[[1]],[[0.12063636]],AW
245,[[18]],[[246]],[[1]],['high holistic'],['left'],['inverted'],['U0006.bmp'],['female'],[[6]],['female'],[[1]],[[0.12244588]],AW
246,[[18]],[[247]],[[9]],['low holistic'],['left'],['inverted'],['U0155.bmp'],['male'],[[4]],['male'],[[1]],[[0.41546619]],AW
247,[[18]],[[248]],[[6]],['high holistic'],['right'],['upright'],['U0106.bmp'],['female'],[[8]],['female'],[[1]],[[0.1586033]],AW
248,[[18]],[[249]],[[13]],['low holistic'],['left'],['upright'],['U0181.bmp'],['male'],[[2]],['male'],[[1]],[[0.09672498]],AW
249,[[18]],[[250]],[[5]],['low holistic'],['right'],['inverted'],['U0076.bmp'],['male'],[[10]],['female'],[[0]],[[0.15501362]],AW
250,[[18]],[[251]],[[3]],['high holistic'],['right'],['inverted'],['U0020.bmp'],['male'],[[4]],['female'],[[0]],[[0.18169818]],AW
251,[[18]],[[252]],[[4]],['low holistic'],['left'],['upright'],['U0061.bmp'],['female'],[[8]],['female'],[[1]],[[0.0953913]],AW
252,[[18]],[[253]],[[8]],['high holistic'],['right'],['inverted'],['U0137.bmp'],['female'],[[6]],['male'],[[0]],[[0.00011378]],AW
253,[[18]],[[254]],[[12]],['high holistic'],['right'],['upright'],['U0178.bmp'],['male'],[[12]],['male'],[[1]],[[0.99451758]],AW
254,[[18]],[[255]],[[6]],['low holistic'],['right'],['inverted'],['U0106.bmp'],['male'],[[12]],['female'],[[0]],[[0.94584809]],AW
255,[[18]],[[256]],[[11]],['high holistic'],['right'],['upright'],['U0164.bmp'],['female'],[[4]],['female'],[[1]],[[0.30012692]],AW
256,[[18]],[[257]],[[13]],['low holistic'],['left'],['inverted'],['U0181.bmp'],['male'],[[2]],['female'],[[0]],[[0.03153981]],AW
257,[[18]],[[258]],[[1]],['low holistic'],['right'],['upright'],['U0006.bmp'],['female'],[[8]],['female'],[[1]],[[0.2714394]],AW
258,[[18]],[[259]],[[10]],['high holistic'],['right'],['inverted'],['U0159.bmp'],['male'],[[12]],['male'],[[1]],[[0.09988041]],AW
259,[[18]],[[260]],[[3]],['low holistic'],['right'],['upright'],['U0020.bmp'],['female'],[[12]],['female'],[[1]],[[0.12827813]],AW
260,[[18]],[[261]],[[15]],['low holistic'],['left'],['upright'],['U0312.bmp'],['male'],[[8]],['male'],[[1]],[[0.89014007]],AW
261,[[18]],[[262]],[[11]],['low holistic'],['right'],['inverted'],['U0164.bmp'],['female'],[[6]],['female'],[[1]],[[0.23967156]],AW
262,[[18]],[[263]],[[9]],['high holistic'],['right'],['upright'],['U0155.bmp'],['female'],[[4]],['male'],[[0]],[[0.55605552]],AW
263,[[18]],[[264]],[[19]],['low holistic'],['right'],['inverted'],['U0361.bmp'],['female'],[[4]],['female'],[[1]],[[0.6461134]],AW
264,[[18]],[[265]],[[19]],['high holistic'],['left'],['inverted'],['U0361.bmp'],['female'],[[4]],['female'],[[1]],[[0.2353421]],AW
265,[[18]],[[266]],[[9]],['low holistic'],['right'],['upright'],['U0155.bmp'],['male'],[[6]],['male'],[[1]],[[0.25193803]],AW
266,[[18]],[[267]],[[19]],['low holistic'],['left'],['inverted'],['U0361.bmp'],['female'],[[6]],['male'],[[0]],[[0.20024344]],AW
267,[[18]],[[268]],[[19]],['low holistic'],['right'],['upright'],['U0361.bmp'],['female'],[[2]],['female'],[[1]],[[0.59594935]],AW
268,[[18]],[[269]],[[12]],['high holistic'],['right'],['inverted'],['U0178.bmp'],['male'],[[6]],['male'],[[1]],[[0.99302598]],AW
269,[[18]],[[270]],[[19]],['low holistic'],['right'],['upright'],['U0361.bmp'],['female'],[[6]],['female'],[[1]],[[0.22565767]],AW
270,[[18]],[[271]],[[5]],['high holistic'],['left'],['upright'],['U0076.bmp'],['female'],[[8]],['female'],[[1]],[[0.21786985]],AW
271,[[18]],[[272]],[[5]],['high holistic'],['left'],['inverted'],['U0076.bmp'],['female'],[[6]],['male'],[[0]],[[1.11409671]],AW
272,[[18]],[[273]],[[1]],['high holistic'],['fovea'],['upright'],['U0006.bmp'],['female'],[[0]],['female'],[[1]],[[0.1488998]],AW
273,[[18]],[[274]],[[7]],['high holistic'],['right'],['inverted'],['U0107.bmp'],['female'],[[4]],['female'],[[1]],[[0.31816092]],AW
274,[[18]],[[275]],[[2]],['high holistic'],['right'],['upright'],['U0014.bmp'],['male'],[[2]],['male'],[[1]],[[0.19231705]],AW
275,[[18]],[[276]],[[8]],['low holistic'],['right'],['inverted'],['U0137.bmp'],['male'],[[12]],['male'],[[1]],[[0.44919097]],AW
276,[[18]],[[277]],[[13]],['low holistic'],['left'],['inverted'],['U0181.bmp'],['male'],[[8]],['male'],[[1]],[[0.18450569]],AW
277,[[18]],[[278]],[[18]],['high holistic'],['right'],['upright'],['U0359.bmp'],['male'],[[2]],['male'],[[1]],[[0.19216816]],AW
278,[[18]],[[279]],[[12]],['high holistic'],['left'],['upright'],['U0178.bmp'],['male'],[[12]],['male'],[[1]],[[0.48073939]],AW
279,[[18]],[[280]],[[2]],['low holistic'],['left'],['inverted'],['U0014.bmp'],['male'],[[4]],['male'],[[1]],[[0.34046659]],AW
280,[[18]],[[281]],[[18]],['low holistic'],['left'],['upright'],['U0359.bmp'],['male'],[[8]],['male'],[[1]],[[9.89846885e-05]],AW
281,[[18]],[[282]],[[11]],['high holistic'],['left'],['upright'],['U0164.bmp'],['female'],[[8]],['male'],[[0]],[[0.11163403]],AW
282,[[18]],[[283]],[[12]],['low holistic'],['fovea'],['inverted'],['U0178.bmp'],['female'],[[0]],['female'],[[1]],[[0.23310328]],AW
283,[[18]],[[284]],[[1]],['low holistic'],['left'],['inverted'],['U0006.bmp'],['female'],[[10]],['male'],[[0]],[[0.09558602]],AW
284,[[18]],[[285]],[[5]],['high holistic'],['left'],['upright'],['U0076.bmp'],['female'],[[4]],['male'],[[0]],[[0.0003051]],AW
285,[[18]],[[286]],[[7]],['high holistic'],['right'],['inverted'],['U0107.bmp'],['female'],[[2]],['male'],[[0]],[[1.29804315]],AW
286,[[18]],[[287]],[[4]],['low holistic'],['right'],['inverted'],['U0061.bmp'],['female'],[[8]],['female'],[[1]],[[0.40821513]],AW
287,[[18]],[[288]],[[1]],['high holistic'],['left'],['inverted'],['U0006.bmp'],['female'],[[12]],['male'],[[0]],[[0.1190905]],AW
288,[[18]],[[289]],[[11]],['high holistic'],['fovea'],['inverted'],['U0164.bmp'],['female'],[[0]],['female'],[[1]],[[1.23536844]],AW
289,[[18]],[[290]],[[8]],['low holistic'],['right'],['inverted'],['U0137.bmp'],['male'],[[8]],['female'],[[0]],[[0.28470543]],AW
290,[[18]],[[291]],[[15]],['low holistic'],['left'],['upright'],['U0312.bmp'],['male'],[[12]],['male'],[[1]],[[0.1682459]],AW
291,[[18]],[[292]],[[3]],['low holistic'],['left'],['inverted'],['U0020.bmp'],['female'],[[10]],['female'],[[1]],[[0.36205213]],AW
292,[[18]],[[293]],[[13]],['low holistic'],['left'],['upright'],['U0181.bmp'],['male'],[[4]],['male'],[[1]],[[0.02746091]],AW
293,[[18]],[[294]],[[2]],['high holistic'],['right'],['inverted'],['U0014.bmp'],['male'],[[10]],['female'],[[0]],[[1.31393623]],AW
294,[[18]],[[295]],[[11]],['low holistic'],['left'],['upright'],['U0164.bmp'],['female'],[[8]],['female'],[[1]],[[0.14870933]],AW
295,[[18]],[[296]],[[5]],['high holistic'],['left'],['upright'],['U0076.bmp'],['female'],[[10]],['female'],[[1]],[[0.23128108]],AW
296,[[18]],[[297]],[[4]],['high holistic'],['right'],['upright'],['U0061.bmp'],['female'],[[12]],['female'],[[1]],[[0.4145589]],AW
297,[[18]],[[298]],[[5]],['low holistic'],['left'],['upright'],['U0076.bmp'],['male'],[[8]],['male'],[[1]],[[0.00010088]],AW
298,[[18]],[[299]],[[2]],['high holistic'],['right'],['upright'],['U0014.bmp'],['male'],[[6]],['male'],[[1]],[[0.12375183]],AW
299,[[18]],[[300]],[[2]],['high holistic'],['left'],['upright'],['U0014.bmp'],['male'],[[2]],['male'],[[1]],[[0.22127215]],AW
300,[[18]],[[301]],[[2]],['high holistic'],['left'],['upright'],['U0014.bmp'],['male'],[[8]],['male'],[[1]],[[0.54263788]],AW
301,[[18]],[[302]],[[11]],['low holistic'],['right'],['upright'],['U0164.bmp'],['female'],[[10]],['female'],[[1]],[[0.3031624]],AW
302,[[18]],[[303]],[[12]],['high holistic'],['right'],['upright'],['U0178.bmp'],['male'],[[6]],['male'],[[1]],[[0.1488852]],AW
303,[[18]],[[304]],[[15]],['low holistic'],['right'],['upright'],['U0312.bmp'],['male'],[[4]],['male'],[[1]],[[1.95011167]],AW
304,[[18]],[[305]],[[2]],['low holistic'],['right'],['inverted'],['U0014.bmp'],['male'],[[4]],['male'],[[1]],[[0.12685424]],AW
305,[[18]],[[306]],[[18]],['low holistic'],['left'],['upright'],['U0359.bmp'],['male'],[[10]],['male'],[[1]],[[0.00051416]],AW
306,[[18]],[[307]],[[14]],['high holistic'],['right'],['upright'],['U0228.bmp'],['male'],[[8]],['male'],[[1]],[[0.2093607]],AW
307,[[18]],[[308]],[[16]],['high holistic'],['right'],['inverted'],['U0335.bmp'],['female'],[[12]],['male'],[[0]],[[0.3922125]],AW
308,[[18]],[[309]],[[11]],['low holistic'],['right'],['inverted'],['U0164.bmp'],['female'],[[8]],['female'],[[1]],[[0.17809168]],AW
309,[[18]],[[310]],[[12]],['high holistic'],['left'],['upright'],['U0178.bmp'],['male'],[[6]],['male'],[[1]],[[0.09875501]],AW
310,[[18]],[[311]],[[5]],['high holistic'],['right'],['inverted'],['U0076.bmp'],['female'],[[8]],['female'],[[1]],[[0.53559463]],AW
311,[[18]],[[312]],[[4]],['high holistic'],['left'],['inverted'],['U0061.bmp'],['female'],[[4]],['female'],[[1]],[[2.27251917]],AW
312,[[18]],[[313]],[[12]],['high holistic'],['right'],['upright'],['U0178.bmp'],['male'],[[2]],['male'],[[1]],[[0.27022533]],AW
313,[[18]],[[314]],[[14]],['high holistic'],['left'],['upright'],['U0228.bmp'],['male'],[[12]],['male'],[[1]],[[0.31661871]],AW
314,[[18]],[[315]],[[10]],['high holistic'],['left'],['inverted'],['U0159.bmp'],['male'],[[2]],['female'],[[0]],[[0.50986566]],AW
315,[[18]],[[316]],[[11]],['high holistic'],['left'],['inverted'],['U0164.bmp'],['female'],[[6]],['male'],[[0]],[[0.64951398]],AW
316,[[18]],[[317]],[[3]],['high holistic'],['right'],['inverted'],['U0020.bmp'],['male'],[[8]],['male'],[[1]],[[0.43138831]],AW
317,[[18]],[[318]],[[8]],['high holistic'],['left'],['upright'],['U0137.bmp'],['female'],[[12]],['male'],[[0]],[[0.30201233]],AW
318,[[18]],[[319]],[[4]],['low holistic'],['right'],['upright'],['U0061.bmp'],['female'],[[12]],['female'],[[1]],[[0.25066784]],AW
319,[[18]],[[320]],[[7]],['high holistic'],['left'],['upright'],['U0107.bmp'],['female'],[[2]],['female'],[[1]],[[0.30332274]],AW
320,[[18]],[[321]],[[6]],['high holistic'],['right'],['upright'],['U0106.bmp'],['female'],[[10]],['female'],[[1]],[[0.45145084]],AW
321,[[18]],[[322]],[[2]],['low holistic'],['left'],['inverted'],['U0014.bmp'],['male'],[[4]],['male'],[[1]],[[0.22621876]],AW
322,[[18]],[[323]],[[12]],['low holistic'],['right'],['upright'],['U0178.bmp'],['female'],[[6]],['female'],[[1]],[[0.00034365]],AW
323,[[18]],[[324]],[[5]],['low holistic'],['left'],['inverted'],['U0076.bmp'],['male'],[[2]],['male'],[[1]],[[0.10470557]],AW
324,[[18]],[[325]],[[1]],['high holistic'],['right'],['inverted'],['U0006.bmp'],['female'],[[2]],['female'],[[1]],[[0.22102305]],AW
325,[[18]],[[326]],[[19]],['high holistic'],['left'],['upright'],['U0361.bmp'],['female'],[[10]],['female'],[[1]],[[0.22645544]],AW
326,[[18]],[[327]],[[14]],['low holistic'],['left'],['inverted'],['U0228.bmp'],['male'],[[12]],['male'],[[1]],[[0.17875385]],AW
327,[[18]],[[328]],[[7]],['low holistic'],['right'],['inverted'],['U0107.bmp'],['female'],[[8]],['female'],[[1]],[[0.26692514]],AW
328,[[18]],[[329]],[[18]],['high holistic'],['left'],['upright'],['U0359.bmp'],['male'],[[4]],['male'],[[1]],[[0.48847887]],AW
329,[[18]],[[330]],[[8]],['low holistic'],['right'],['inverted'],['U0137.bmp'],['male'],[[10]],['female'],[[0]],[[0.11002516]],AW
330,[[18]],[[331]],[[7]],['high holistic'],['right'],['upright'],['U0107.bmp'],['female'],[[10]],['male'],[[0]],[[0.13810746]],AW
331,[[18]],[[332]],[[3]],['high holistic'],['left'],['upright'],['U0020.bmp'],['male'],[[10]],['female'],[[0]],[[0.07487542]],AW
332,[[18]],[[333]],[[12]],['high holistic'],['left'],['upright'],['U0178.bmp'],['male'],[[8]],['male'],[[1]],[[0.07972943]],AW
333,[[18]],[[334]],[[11]],['high holistic'],['left'],['inverted'],['U0164.bmp'],['female'],[[8]],['male'],[[0]],[[1.75650666]],AW
334,[[18]],[[335]],[[5]],['high holistic'],['left'],['inverted'],['U0076.bmp'],['female'],[[12]],['male'],[[0]],[[0.14210651]],AW
335,[[18]],[[336]],[[10]],['high holistic'],['left'],['upright'],['U0159.bmp'],['male'],[[4]],['female'],[[0]],[[0.42457543]],AW
336,[[18]],[[337]],[[3]],['low holistic'],['left'],['inverted'],['U0020.bmp'],['female'],[[8]],['female'],[[1]],[[0.32062646]],AW
337,[[18]],[[338]],[[9]],['low holistic'],['fovea'],['upright'],['U0155.bmp'],['male'],[[0]],['male'],[[1]],[[0.13035232]],AW
338,[[18]],[[339]],[[15]],['high holistic'],['right'],['inverted'],['U0312.bmp'],['male'],[[10]],['male'],[[1]],[[0.06288463]],AW
339,[[18]],[[340]],[[20]],['high holistic'],['right'],['inverted'],['U0362.bmp'],['female'],[[8]],['male'],[[0]],[[0.07602163]],AW
340,[[18]],[[341]],[[2]],['low holistic'],['left'],['inverted'],['U0014.bmp'],['male'],[[4]],['female'],[[0]],[[9.6667558e-05]],AW
341,[[18]],[[342]],[[4]],['high holistic'],['fovea'],['inverted'],['U0061.bmp'],['female'],[[0]],['female'],[[1]],[[0.24058219]],AW
342,[[18]],[[343]],[[2]],['high holistic'],['left'],['upright'],['U0014.bmp'],['male'],[[2]],['female'],[[0]],[[0.0001669]],AW
343,[[18]],[[344]],[[9]],['low holistic'],['left'],['inverted'],['U0155.bmp'],['male'],[[4]],['male'],[[1]],[[0.00540123]],AW
344,[[18]],[[345]],[[4]],['low holistic'],['fovea'],['inverted'],['U0061.bmp'],['female'],[[0]],['female'],[[1]],[[0.07843012]],AW
345,[[18]],[[346]],[[19]],['high holistic'],['right'],['upright'],['U0361.bmp'],['female'],[[12]],['female'],[[1]],[[0.37121005]],AW
346,[[18]],[[347]],[[14]],['low holistic'],['right'],['inverted'],['U0228.bmp'],['male'],[[4]],['male'],[[1]],[[0.82932844]],AW
347,[[18]],[[348]],[[14]],['low holistic'],['left'],['inverted'],['U0228.bmp'],['male'],[[4]],['male'],[[1]],[[0.73854282]],AW
348,[[18]],[[349]],[[15]],['high holistic'],['left'],['upright'],['U0312.bmp'],['male'],[[4]],['male'],[[1]],[[0.00010679]],AW
349,[[18]],[[350]],[[8]],['high holistic'],['right'],['upright'],['U0137.bmp'],['female'],[[10]],['male'],[[0]],[[0.04556853]],AW
350,[[18]],[[351]],[[2]],['high holistic'],['left'],['upright'],['U0014.bmp'],['male'],[[6]],['female'],[[0]],[[0.09961513]],AW
351,[[18]],[[352]],[[6]],['high holistic'],['fovea'],['inverted'],['U0106.bmp'],['female'],[[0]],['female'],[[1]],[[0.18265699]],AW
352,[[18]],[[353]],[[3]],['low holistic'],['right'],['inverted'],['U0020.bmp'],['female'],[[10]],['female'],[[1]],[[0.2561803]],AW
353,[[18]],[[354]],[[11]],['high holistic'],['right'],['inverted'],['U0164.bmp'],['female'],[[12]],['male'],[[0]],[[0.27841313]],AW
354,[[18]],[[355]],[[6]],['low holistic'],['left'],['inverted'],['U0106.bmp'],['male'],[[8]],['male'],[[1]],[[0.1631637]],AW
355,[[18]],[[356]],[[18]],['low holistic'],['right'],['inverted'],['U0359.bmp'],['male'],[[12]],['male'],[[1]],[[0.35571796]],AW
356,[[18]],[[357]],[[3]],['low holistic'],['left'],['upright'],['U0020.bmp'],['female'],[[6]],['female'],[[1]],[[0.00012049]],AW
357,[[18]],[[358]],[[4]],['low holistic'],['left'],['upright'],['U0061.bmp'],['female'],[[2]],['female'],[[1]],[[0.00010079]],AW
358,[[18]],[[359]],[[4]],['low holistic'],['left'],['upright'],['U0061.bmp'],['female'],[[10]],['female'],[[1]],[[0.00010821]],AW
359,[[18]],[[360]],[[19]],['low holistic'],['right'],['upright'],['U0361.bmp'],['female'],[[12]],['female'],[[1]],[[0.00041616]],AW
360,[[18]],[[361]],[[20]],['low holistic'],['right'],['inverted'],['U0362.bmp'],['male'],[[2]],['female'],[[0]],[[9.83867794e-05]],AW
361,[[18]],[[362]],[[4]],['high holistic'],['right'],['upright'],['U0061.bmp'],['female'],[[6]],['female'],[[1]],[[0.01367323]],AW
362,[[18]],[[363]],[[11]],['high holistic'],['left'],['inverted'],['U0164.bmp'],['female'],[[4]],['male'],[[0]],[[0.62085243]],AW
363,[[18]],[[364]],[[20]],['high holistic'],['left'],['upright'],['U0362.bmp'],['female'],[[8]],['female'],[[1]],[[0.66863235]],AW
364,[[18]],[[365]],[[7]],['high holistic'],['left'],['upright'],['U0107.bmp'],['female'],[[8]],['female'],[[1]],[[0.16026282]],AW
365,[[18]],[[366]],[[20]],['high holistic'],['right'],['inverted'],['U0362.bmp'],['female'],[[6]],['female'],[[1]],[[0.20249305]],AW
366,[[18]],[[367]],[[3]],['low holistic'],['left'],['inverted'],['U0020.bmp'],['female'],[[8]],['female'],[[1]],[[0.00029941]],AW
367,[[18]],[[368]],[[6]],['low holistic'],['left'],['upright'],['U0106.bmp'],['male'],[[6]],['male'],[[1]],[[0.2512733]],AW
368,[[18]],[[369]],[[15]],['high holistic'],['right'],['inverted'],['U0312.bmp'],['male'],[[8]],['male'],[[1]],[[0.23996299]],AW
369,[[18]],[[370]],[[5]],['high holistic'],['right'],['upright'],['U0076.bmp'],['female'],[[12]],['male'],[[0]],[[0.13582953]],AW
370,[[18]],[[371]],[[8]],['low holistic'],['left'],['inverted'],['U0137.bmp'],['male'],[[2]],['male'],[[1]],[[0.23402476]],AW
371,[[18]],[[372]],[[18]],['low holistic'],['right'],['upright'],['U0359.bmp'],['male'],[[12]],['male'],[[1]],[[0.01534745]],AW
372,[[18]],[[373]],[[12]],['low holistic'],['right'],['upright'],['U0178.bmp'],['female'],[[8]],['female'],[[1]],[[0.00827016]],AW
373,[[18]],[[374]],[[8]],['low holistic'],['left'],['inverted'],['U0137.bmp'],['male'],[[4]],['male'],[[1]],[[0.01301141]],AW
374,[[18]],[[375]],[[3]],['low holistic'],['right'],['upright'],['U0020.bmp'],['female'],[[4]],['male'],[[0]],[[0.01354915]],AW
375,[[18]],[[376]],[[18]],['low holistic'],['right'],['upright'],['U0359.bmp'],['male'],[[2]],['male'],[[1]],[[0.14032579]],AW
376,[[18]],[[377]],[[11]],['high holistic'],['left'],['upright'],['U0164.bmp'],['female'],[[12]],['male'],[[0]],[[0.45537443]],AW
377,[[18]],[[378]],[[6]],['low holistic'],['right'],['inverted'],['U0106.bmp'],['male'],[[12]],['male'],[[1]],[[0.48273995]],AW
378,[[18]],[[379]],[[10]],['low holistic'],['fovea'],['upright'],['U0159.bmp'],['female'],[[0]],['female'],[[1]],[[0.00014337]],AW
379,[[18]],[[380]],[[11]],['high holistic'],['left'],['inverted'],['U0164.bmp'],['female'],[[2]],['female'],[[1]],[[0.86349222]],AW
380,[[18]],[[381]],[[19]],['low holistic'],['right'],['inverted'],['U0361.bmp'],['female'],[[10]],['male'],[[0]],[[0.24547659]],AW
381,[[18]],[[382]],[[14]],['high holistic'],['left'],['inverted'],['U0228.bmp'],['male'],[[2]],['female'],[[0]],[[0.57968637]],AW
382,[[18]],[[383]],[[3]],['low holistic'],['left'],['upright'],['U0020.bmp'],['female'],[[6]],['female'],[[1]],[[0.05349913]],AW
383,[[18]],[[384]],[[17]],['high holistic'],['left'],['upright'],['U0346.bmp'],['male'],[[8]],['male'],[[1]],[[0.08388393]],AW
384,[[18]],[[385]],[[13]],['high holistic'],['right'],['inverted'],['U0181.bmp'],['female'],[[2]],['male'],[[0]],[[0.28002632]],AW
385,[[18]],[[386]],[[9]],['low holistic'],['right'],['upright'],['U0155.bmp'],['male'],[[6]],['male'],[[1]],[[0.00477692]],AW
386,[[18]],[[387]],[[15]],['high holistic'],['right'],['upright'],['U0312.bmp'],['male'],[[10]],['male'],[[1]],[[0.19595232]],AW
387,[[18]],[[388]],[[18]],['low holistic'],['fovea'],['inverted'],['U0359.bmp'],['male'],[[0]],['male'],[[1]],[[0.32380374]],AW
388,[[18]],[[389]],[[8]],['high holistic'],['left'],['inverted'],['U0137.bmp'],['female'],[[8]],['male'],[[0]],[[0.21475746]],AW
389,[[18]],[[390]],[[4]],['high holistic'],['right'],['upright'],['U0061.bmp'],['female'],[[10]],['female'],[[1]],[[0.01567308]],AW
390,[[18]],[[391]],[[5]],['low holistic'],['right'],['upright'],['U0076.bmp'],['male'],[[4]],['male'],[[1]],[[1.20066049]],AW
391,[[18]],[[392]],[[18]],['low holistic'],['fovea'],['inverted'],['U0359.bmp'],['male'],[[0]],['male'],[[1]],[[0.17747744]],AW
392,[[18]],[[393]],[[10]],['high holistic'],['fovea'],['inverted'],['U0159.bmp'],['male'],[[0]],['male'],[[1]],[[0.24856501]],AW
393,[[18]],[[394]],[[5]],['low holistic'],['fovea'],['upright'],['U0076.bmp'],['male'],[[0]],['male'],[[1]],[[0.12877047]],AW
394,[[18]],[[395]],[[11]],['high holistic'],['left'],['upright'],['U0164.bmp'],['female'],[[4]],['female'],[[1]],[[0.30672658]],AW
395,[[18]],[[396]],[[6]],['low holistic'],['left'],['inverted'],['U0106.bmp'],['male'],[[10]],['male'],[[1]],[[0.16662517]],AW
396,[[18]],[[397]],[[8]],['low holistic'],['left'],['inverted'],['U0137.bmp'],['male'],[[12]],['male'],[[1]],[[0.15239743]],AW
397,[[18]],[[398]],[[19]],['high holistic'],['right'],['inverted'],['U0361.bmp'],['female'],[[12]],['male'],[[0]],[[1.20097323]],AW
398,[[18]],[[399]],[[10]],['low holistic'],['right'],['upright'],['U0159.bmp'],['female'],[[10]],['female'],[[1]],[[0.18579396]],AW
399,[[18]],[[400]],[[13]],['high holistic'],['left'],['inverted'],['U0181.bmp'],['female'],[[8]],['female'],[[1]],[[0.3767091]],AW
400,[[18]],[[401]],[[14]],['low holistic'],['right'],['upright'],['U0228.bmp'],['male'],[[8]],['male'],[[1]],[[0.08895895]],AW
401,[[18]],[[402]],[[13]],['high holistic'],['right'],['inverted'],['U0181.bmp'],['female'],[[6]],['female'],[[1]],[[0.10221468]],AW
402,[[18]],[[403]],[[12]],['low holistic'],['left'],['inverted'],['U0178.bmp'],['female'],[[8]],['female'],[[1]],[[0.01796758]],AW
403,[[18]],[[404]],[[7]],['low holistic'],['fovea'],['upright'],['U0107.bmp'],['female'],[[0]],['female'],[[1]],[[0.01113458]],AW
404,[[18]],[[405]],[[11]],['high holistic'],['left'],['upright'],['U0164.bmp'],['female'],[[6]],['female'],[[1]],[[0.45745462]],AW
405,[[18]],[[406]],[[3]],['high holistic'],['left'],['inverted'],['U0020.bmp'],['male'],[[10]],['female'],[[0]],[[0.19805102]],AW
406,[[18]],[[407]],[[6]],['high holistic'],['right'],['upright'],['U0106.bmp'],['female'],[[2]],['female'],[[1]],[[0.11293562]],AW
407,[[18]],[[408]],[[19]],['low holistic'],['left'],['upright'],['U0361.bmp'],['female'],[[8]],['female'],[[1]],[[0.12190665]],AW
408,[[18]],[[409]],[[8]],['high holistic'],['right'],['inverted'],['U0137.bmp'],['female'],[[10]],['male'],[[0]],[[0.25435318]],AW
409,[[18]],[[410]],[[14]],['low holistic'],['right'],['upright'],['U0228.bmp'],['male'],[[4]],['male'],[[1]],[[0.17003759]],AW
410,[[18]],[[411]],[[9]],['high holistic'],['right'],['upright'],['U0155.bmp'],['female'],[[6]],['male'],[[0]],[[0.58139268]],AW
411,[[18]],[[412]],[[20]],['high holistic'],['right'],['inverted'],['U0362.bmp'],['female'],[[10]],['female'],[[1]],[[0.34134106]],AW
412,[[18]],[[413]],[[10]],['low holistic'],['left'],['inverted'],['U0159.bmp'],['female'],[[8]],['female'],[[1]],[[0.14398245]],AW
413,[[18]],[[414]],[[11]],['high holistic'],['right'],['upright'],['U0164.bmp'],['female'],[[8]],['female'],[[1]],[[0.52859011]],AW
414,[[18]],[[415]],[[5]],['low holistic'],['left'],['inverted'],['U0076.bmp'],['male'],[[2]],['male'],[[1]],[[0.12437905]],AW
415,[[18]],[[416]],[[6]],['low holistic'],['right'],['upright'],['U0106.bmp'],['male'],[[12]],['male'],[[1]],[[0.18970449]],AW
416,[[18]],[[417]],[[20]],['high holistic'],['right'],['inverted'],['U0362.bmp'],['female'],[[4]],['male'],[[0]],[[0.374263]],AW
417,[[18]],[[418]],[[6]],['high holistic'],['right'],['upright'],['U0106.bmp'],['female'],[[12]],['female'],[[1]],[[0.43959185]],AW
418,[[18]],[[419]],[[13]],['high holistic'],['right'],['upright'],['U0181.bmp'],['female'],[[6]],['female'],[[1]],[[0.15777886]],AW
419,[[18]],[[420]],[[1]],['low holistic'],['right'],['upright'],['U0006.bmp'],['female'],[[4]],['female'],[[1]],[[0.17598225]],AW
420,[[18]],[[421]],[[2]],['high holistic'],['left'],['inverted'],['U0014.bmp'],['male'],[[10]],['male'],[[1]],[[0.73447419]],AW
421,[[18]],[[422]],[[18]],['low holistic'],['left'],['inverted'],['U0359.bmp'],['male'],[[4]],['male'],[[1]],[[0.20144037]],AW
422,[[18]],[[423]],[[2]],['high holistic'],['fovea'],['upright'],['U0014.bmp'],['male'],[[0]],['male'],[[1]],[[1.77908628]],AW
423,[[18]],[[424]],[[19]],['high holistic'],['right'],['upright'],['U0361.bmp'],['female'],[[4]],['female'],[[1]],[[0.11434258]],AW
424,[[18]],[[425]],[[9]],['low holistic'],['right'],['inverted'],['U0155.bmp'],['male'],[[6]],['male'],[[1]],[[0.21266759]],AW
425,[[18]],[[426]],[[10]],['low holistic'],['left'],['upright'],['U0159.bmp'],['female'],[[6]],['female'],[[1]],[[0.17934208]],AW
426,[[18]],[[427]],[[10]],['low holistic'],['right'],['inverted'],['U0159.bmp'],['female'],[[12]],['female'],[[1]],[[0.26019884]],AW
427,[[18]],[[428]],[[3]],['low holistic'],['right'],['upright'],['U0020.bmp'],['female'],[[6]],['female'],[[1]],[[0.01788227]],AW
428,[[18]],[[429]],[[4]],['low holistic'],['right'],['inverted'],['U0061.bmp'],['female'],[[4]],['female'],[[1]],[[0.01800971]],AW
429,[[18]],[[430]],[[14]],['low holistic'],['right'],['inverted'],['U0228.bmp'],['male'],[[4]],['male'],[[1]],[[0.00808908]],AW
430,[[18]],[[431]],[[19]],['low holistic'],['left'],['inverted'],['U0361.bmp'],['female'],[[2]],['female'],[[1]],[[0.14411345]],AW
431,[[18]],[[432]],[[1]],['low holistic'],['right'],['upright'],['U0006.bmp'],['female'],[[4]],['female'],[[1]],[[0.00023432]],AW
432,[[18]],[[433]],[[7]],['high holistic'],['right'],['inverted'],['U0107.bmp'],['female'],[[10]],['male'],[[0]],[[0.12247608]],AW
433,[[18]],[[434]],[[10]],['low holistic'],['right'],['upright'],['U0159.bmp'],['female'],[[8]],['female'],[[1]],[[0.07579627]],AW
434,[[18]],[[435]],[[4]],['high holistic'],['fovea'],['upright'],['U0061.bmp'],['female'],[[0]],['female'],[[1]],[[0.01817656]],AW
435,[[18]],[[436]],[[16]],['high holistic'],['left'],['upright'],['U0335.bmp'],['female'],[[10]],['female'],[[1]],[[0.30476982]],AW
436,[[18]],[[437]],[[8]],['low holistic'],['right'],['upright'],['U0137.bmp'],['male'],[[2]],['male'],[[1]],[[0.00037378]],AW
437,[[18]],[[438]],[[16]],['low holistic'],['fovea'],['upright'],['U0335.bmp'],['female'],[[0]],['female'],[[1]],[[0.0502894]],AW
438,[[18]],[[439]],[[18]],['high holistic'],['right'],['inverted'],['U0359.bmp'],['male'],[[6]],['male'],[[1]],[[0.28243674]],AW
439,[[18]],[[440]],[[6]],['high holistic'],['right'],['inverted'],['U0106.bmp'],['female'],[[4]],['female'],[[1]],[[0.27910379]],AW
440,[[18]],[[441]],[[18]],['low holistic'],['left'],['upright'],['U0359.bmp'],['male'],[[2]],['male'],[[1]],[[0.03569802]],AW
441,[[18]],[[442]],[[1]],['high holistic'],['left'],['inverted'],['U0006.bmp'],['female'],[[6]],['female'],[[1]],[[0.4570525]],AW
442,[[18]],[[443]],[[20]],['low holistic'],['right'],['inverted'],['U0362.bmp'],['male'],[[6]],['male'],[[1]],[[0.5100438]],AW
443,[[18]],[[444]],[[11]],['high holistic'],['left'],['upright'],['U0164.bmp'],['female'],[[4]],['female'],[[1]],[[0.11490306]],AW
444,[[18]],[[445]],[[16]],['low holistic'],['right'],['inverted'],['U0335.bmp'],['female'],[[6]],['female'],[[1]],[[0.26845802]],AW
445,[[18]],[[446]],[[12]],['high holistic'],['left'],['upright'],['U0178.bmp'],['male'],[[4]],['male'],[[1]],[[0.06694374]],AW
446,[[18]],[[447]],[[10]],['high holistic'],['left'],['upright'],['U0159.bmp'],['male'],[[6]],['male'],[[1]],[[0.03967288]],AW
447,[[18]],[[448]],[[13]],['high holistic'],['left'],['inverted'],['U0181.bmp'],['female'],[[2]],['male'],[[0]],[[0.00010856]],AW
448,[[18]],[[449]],[[14]],['low holistic'],['right'],['upright'],['U0228.bmp'],['male'],[[10]],['male'],[[1]],[[0.03579189]],AW
449,[[18]],[[450]],[[5]],['low holistic'],['left'],['upright'],['U0076.bmp'],['male'],[[8]],['male'],[[1]],[[0.01041711]],AW
450,[[18]],[[451]],[[2]],['low holistic'],['right'],['upright'],['U0014.bmp'],['male'],[[6]],['female'],[[0]],[[0.91490049]],AW
451,[[18]],[[452]],[[3]],['low holistic'],['left'],['inverted'],['U0020.bmp'],['female'],[[10]],['female'],[[1]],[[0.14995193]],AW
452,[[18]],[[453]],[[2]],['high holistic'],['left'],['inverted'],['U0014.bmp'],['male'],[[4]],['male'],[[1]],[[0.05513234]],AW
453,[[18]],[[454]],[[3]],['low holistic'],['fovea'],['upright'],['U0020.bmp'],['female'],[[0]],['female'],[[1]],[[0.02985986]],AW
454,[[18]],[[455]],[[12]],['low holistic'],['left'],['upright'],['U0178.bmp'],['female'],[[2]],['female'],[[1]],[[0.20412475]],AW
455,[[18]],[[456]],[[3]],['low holistic'],['left'],['inverted'],['U0020.bmp'],['female'],[[10]],['female'],[[1]],[[0.00019169]],AW
456,[[18]],[[457]],[[19]],['low holistic'],['fovea'],['inverted'],['U0361.bmp'],['female'],[[0]],['female'],[[1]],[[0.00010054]],AW
457,[[18]],[[458]],[[5]],['low holistic'],['left'],['upright'],['U0076.bmp'],['male'],[[4]],['male'],[[1]],[[0.00011198]],AW
458,[[18]],[[459]],[[8]],['high holistic'],['fovea'],['inverted'],['U0137.bmp'],['female'],[[0]],['female'],[[1]],[[0.14580107]],AW
459,[[18]],[[460]],[[6]],['low holistic'],['right'],['inverted'],['U0106.bmp'],['male'],[[12]],['male'],[[1]],[[0.28342765]],AW
460,[[18]],[[461]],[[5]],['low holistic'],['left'],['upright'],['U0076.bmp'],['male'],[[12]],['female'],[[0]],[[0.05666556]],AW
461,[[18]],[[462]],[[6]],['high holistic'],['right'],['upright'],['U0106.bmp'],['female'],[[2]],['female'],[[1]],[[0.22063174]],AW
462,[[18]],[[463]],[[11]],['high holistic'],['left'],['inverted'],['U0164.bmp'],['female'],[[6]],['male'],[[0]],[[0.1093621]],AW
463,[[18]],[[464]],[[14]],['high holistic'],['fovea'],['inverted'],['U0228.bmp'],['male'],[[0]],['female'],[[0]],[[0.71952639]],AW
464,[[18]],[[465]],[[17]],['high holistic'],['right'],['upright'],['U0346.bmp'],['male'],[[6]],['male'],[[1]],[[0.29132374]],AW
465,[[18]],[[466]],[[6]],['high holistic'],['left'],['inverted'],['U0106.bmp'],['female'],[[4]],['female'],[[1]],[[0.24809247]],AW
466,[[18]],[[467]],[[4]],['low holistic'],['left'],['inverted'],['U0061.bmp'],['female'],[[6]],['female'],[[1]],[[0.00016745]],AW
467,[[18]],[[468]],[[5]],['low holistic'],['right'],['inverted'],['U0076.bmp'],['male'],[[6]],['male'],[[1]],[[0.73285909]],AW
468,[[18]],[[469]],[[3]],['high holistic'],['left'],['inverted'],['U0020.bmp'],['male'],[[2]],['female'],[[0]],[[0.14206513]],AW
469,[[18]],[[470]],[[14]],['low holistic'],['left'],['upright'],['U0228.bmp'],['male'],[[10]],['male'],[[1]],[[0.18388526]],AW
470,[[18]],[[471]],[[16]],['high holistic'],['right'],['inverted'],['U0335.bmp'],['female'],[[2]],['female'],[[1]],[[0.43317833]],AW
471,[[18]],[[472]],[[11]],['low holistic'],['left'],['inverted'],['U0164.bmp'],['female'],[[8]],['female'],[[1]],[[0.00017152]],AW
472,[[18]],[[473]],[[6]],['low holistic'],['right'],['upright'],['U0106.bmp'],['male'],[[8]],['male'],[[1]],[[0.22277551]],AW
473,[[18]],[[474]],[[9]],['low holistic'],['right'],['upright'],['U0155.bmp'],['male'],[[12]],['male'],[[1]],[[0.98043263]],AW
474,[[18]],[[475]],[[14]],['high holistic'],['fovea'],['upright'],['U0228.bmp'],['male'],[[0]],['male'],[[1]],[[0.32666085]],AW
475,[[18]],[[476]],[[15]],['high holistic'],['right'],['inverted'],['U0312.bmp'],['male'],[[2]],['female'],[[0]],[[0.28727647]],AW
476,[[18]],[[477]],[[15]],['high holistic'],['right'],['upright'],['U0312.bmp'],['male'],[[8]],['male'],[[1]],[[0.09265047]],AW
477,[[18]],[[478]],[[20]],['low holistic'],['left'],['upright'],['U0362.bmp'],['male'],[[2]],['male'],[[1]],[[0.14450175]],AW
478,[[18]],[[479]],[[4]],['low holistic'],['left'],['inverted'],['U0061.bmp'],['female'],[[6]],['female'],[[1]],[[0.1393457]],AW
479,[[18]],[[480]],[[7]],['low holistic'],['right'],['inverted'],['U0107.bmp'],['female'],[[6]],['female'],[[1]],[[0.10915698]],AW
480,[[18]],[[481]],[[2]],['low holistic'],['left'],['upright'],['U0014.bmp'],['male'],[[8]],['female'],[[0]],[[0.16803735]],AW
481,[[18]],[[482]],[[10]],['low holistic'],['fovea'],['upright'],['U0159.bmp'],['female'],[[0]],['female'],[[1]],[[0.00016805]],AW
482,[[18]],[[483]],[[1]],['high holistic'],['right'],['upright'],['U0006.bmp'],['female'],[[10]],['female'],[[1]],[[0.07174847]],AW
483,[[18]],[[484]],[[14]],['low holistic'],['left'],['inverted'],['U0228.bmp'],['male'],[[12]],['male'],[[1]],[[0.37278886]],AW
484,[[18]],[[485]],[[9]],['high holistic'],['right'],['inverted'],['U0155.bmp'],['female'],[[6]],['male'],[[0]],[[1.67659374]],AW
485,[[18]],[[486]],[[11]],['low holistic'],['right'],['upright'],['U0164.bmp'],['female'],[[6]],['female'],[[1]],[[0.08162571]],AW
486,[[18]],[[487]],[[17]],['high holistic'],['left'],['inverted'],['U0346.bmp'],['male'],[[2]],['male'],[[1]],[[0.23748287]],AW
487,[[18]],[[488]],[[4]],['low holistic'],['left'],['inverted'],['U0061.bmp'],['female'],[[2]],['female'],[[1]],[[0.04436598]],AW
488,[[18]],[[489]],[[16]],['high holistic'],['right'],['inverted'],['U0335.bmp'],['female'],[[4]],['male'],[[0]],[[0.20230598]],AW
489,[[18]],[[490]],[[4]],['high holistic'],['right'],['upright'],['U0061.bmp'],['female'],[[10]],['female'],[[1]],[[0.19472746]],AW
490,[[18]],[[491]],[[11]],['low holistic'],['right'],['upright'],['U0164.bmp'],['female'],[[8]],['female'],[[1]],[[0.00010062]],AW
491,[[18]],[[492]],[[15]],['high holistic'],['left'],['upright'],['U0312.bmp'],['male'],[[2]],['male'],[[1]],[[0.44044833]],AW
492,[[18]],[[493]],[[13]],['high holistic'],['right'],['upright'],['U0181.bmp'],['female'],[[12]],['female'],[[1]],[[0.12059631]],AW
493,[[18]],[[494]],[[6]],['low holistic'],['left'],['inverted'],['U0106.bmp'],['male'],[[12]],['male'],[[1]],[[0.02652626]],AW
494,[[18]],[[495]],[[13]],['high holistic'],['left'],['upright'],['U0181.bmp'],['female'],[[8]],['female'],[[1]],[[0.13823353]],AW
495,[[18]],[[496]],[[4]],['low holistic'],['right'],['upright'],['U0061.bmp'],['female'],[[12]],['female'],[[1]],[[0.09890124]],AW
496,[[18]],[[497]],[[1]],['low holistic'],['left'],['upright'],['U0006.bmp'],['female'],[[12]],['female'],[[1]],[[0.08766037]],AW
497,[[18]],[[498]],[[20]],['high holistic'],['right'],['upright'],['U0362.bmp'],['female'],[[8]],['male'],[[0]],[[0.00010782]],AW
498,[[18]],[[499]],[[6]],['low holistic'],['right'],['upright'],['U0106.bmp'],['male'],[[8]],['male'],[[1]],[[0.09151139]],AW
499,[[18]],[[500]],[[14]],['high holistic'],['right'],['inverted'],['U0228.bmp'],['male'],[[10]],['male'],[[1]],[[0.11197443]],AW
500,[[18]],[[501]],[[1]],['high holistic'],['left'],['inverted'],['U0006.bmp'],['female'],[[10]],['female'],[[1]],[[0.10650379]],AW
501,[[18]],[[502]],[[3]],['high holistic'],['left'],['upright'],['U0020.bmp'],['male'],[[6]],['female'],[[0]],[[0.00032473]],AW
502,[[18]],[[503]],[[15]],['high holistic'],['left'],['upright'],['U0312.bmp'],['male'],[[12]],['female'],[[0]],[[0.01377955]],AW
503,[[18]],[[504]],[[19]],['low holistic'],['fovea'],['inverted'],['U0361.bmp'],['female'],[[0]],['female'],[[1]],[[0.01258962]],AW
504,[[18]],[[505]],[[20]],['high holistic'],['left'],['inverted'],['U0362.bmp'],['female'],[[6]],['male'],[[0]],[[0.66859159]],AW
505,[[18]],[[506]],[[8]],['low holistic'],['left'],['inverted'],['U0137.bmp'],['male'],[[6]],['male'],[[1]],[[0.42475858]],AW
506,[[18]],[[507]],[[14]],['low holistic'],['right'],['inverted'],['U0228.bmp'],['male'],[[6]],['male'],[[1]],[[0.0401791]],AW
507,[[18]],[[508]],[[20]],['low holistic'],['fovea'],['inverted'],['U0362.bmp'],['male'],[[0]],['male'],[[1]],[[0.00041398]],AW
508,[[18]],[[509]],[[20]],['low holistic'],['left'],['upright'],['U0362.bmp'],['male'],[[12]],['male'],[[1]],[[0.00010032]],AW
509,[[18]],[[510]],[[11]],['high holistic'],['left'],['inverted'],['U0164.bmp'],['female'],[[8]],['male'],[[0]],[[0.41255969]],AW
510,[[18]],[[511]],[[7]],['high holistic'],['right'],['upright'],['U0107.bmp'],['female'],[[12]],['male'],[[0]],[[0.18745327]],AW
511,[[18]],[[512]],[[12]],['high holistic'],['left'],['inverted'],['U0178.bmp'],['male'],[[4]],['male'],[[1]],[[0.10925231]],AW
512,[[18]],[[513]],[[9]],['low holistic'],['right'],['upright'],['U0155.bmp'],['male'],[[4]],['male'],[[1]],[[0.04016542]],AW
513,[[18]],[[514]],[[18]],['high holistic'],['right'],['inverted'],['U0359.bmp'],['male'],[[12]],['male'],[[1]],[[0.13469327]],AW
514,[[18]],[[515]],[[3]],['low holistic'],['right'],['upright'],['U0020.bmp'],['female'],[[10]],['female'],[[1]],[[0.12839849]],AW
515,[[18]],[[516]],[[14]],['high holistic'],['right'],['upright'],['U0228.bmp'],['male'],[[6]],['male'],[[1]],[[0.19415828]],AW
516,[[18]],[[517]],[[11]],['low holistic'],['left'],['inverted'],['U0164.bmp'],['female'],[[12]],['female'],[[1]],[[0.03580643]],AW
517,[[18]],[[518]],[[19]],['low holistic'],['right'],['inverted'],['U0361.bmp'],['female'],[[4]],['male'],[[0]],[[0.00049982]],AW
518,[[18]],[[519]],[[6]],['high holistic'],['fovea'],['upright'],['U0106.bmp'],['female'],[[0]],['female'],[[1]],[[0.03226591]],AW
519,[[18]],[[520]],[[6]],['high holistic'],['right'],['upright'],['U0106.bmp'],['female'],[[10]],['female'],[[1]],[[0.00023465]],AW
520,[[18]],[[521]],[[9]],['low holistic'],['right'],['inverted'],['U0155.bmp'],['male'],[[2]],['male'],[[1]],[[0.78119715]],AW
521,[[18]],[[522]],[[16]],['low holistic'],['right'],['upright'],['U0335.bmp'],['female'],[[10]],['female'],[[1]],[[0.07628231]],AW
522,[[18]],[[523]],[[8]],['low holistic'],['fovea'],['inverted'],['U0137.bmp'],['male'],[[0]],['male'],[[1]],[[0.65779885]],AW
523,[[18]],[[524]],[[19]],['low holistic'],['left'],['inverted'],['U0361.bmp'],['female'],[[10]],['female'],[[1]],[[2.30391905]],AW
524,[[18]],[[525]],[[20]],['low holistic'],['right'],['inverted'],['U0362.bmp'],['male'],[[4]],['male'],[[1]],[[0.13212723]],AW
525,[[18]],[[526]],[[16]],['high holistic'],['left'],['upright'],['U0335.bmp'],['female'],[[6]],['female'],[[1]],[[0.1564334]],AW
526,[[18]],[[527]],[[12]],['high holistic'],['left'],['upright'],['U0178.bmp'],['male'],[[10]],['male'],[[1]],[[0.05628249]],AW
527,[[18]],[[528]],[[15]],['low holistic'],['left'],['inverted'],['U0312.bmp'],['male'],[[8]],['male'],[[1]],[[1.92397143]],AW
528,[[18]],[[529]],[[18]],['low holistic'],['left'],['upright'],['U0359.bmp'],['male'],[[4]],['male'],[[1]],[[0.17573017]],AW
529,[[18]],[[530]],[[20]],['high holistic'],['right'],['upright'],['U0362.bmp'],['female'],[[6]],['female'],[[1]],[[0.4707246]],AW
530,[[18]],[[531]],[[6]],['high holistic'],['left'],['upright'],['U0106.bmp'],['female'],[[6]],['female'],[[1]],[[0.47674538]],AW
531,[[18]],[[532]],[[20]],['low holistic'],['left'],['inverted'],['U0362.bmp'],['male'],[[8]],['male'],[[1]],[[0.12994459]],AW
532,[[18]],[[533]],[[3]],['low holistic'],['right'],['upright'],['U0020.bmp'],['female'],[[2]],['female'],[[1]],[[0.24989588]],AW
533,[[18]],[[534]],[[7]],['low holistic'],['left'],['upright'],['U0107.bmp'],['female'],[[6]],['female'],[[1]],[[0.15396811]],AW
534,[[18]],[[535]],[[7]],['high holistic'],['left'],['inverted'],['U0107.bmp'],['female'],[[10]],['male'],[[0]],[[0.49103991]],AW
535,[[18]],[[536]],[[7]],['low holistic'],['left'],['upright'],['U0107.bmp'],['female'],[[10]],['female'],[[1]],[[0.06300974]],AW
536,[[18]],[[537]],[[12]],['high holistic'],['left'],['upright'],['U0178.bmp'],['male'],[[12]],['male'],[[1]],[[0.25279295]],AW
537,[[18]],[[538]],[[18]],['high holistic'],['right'],['upright'],['U0359.bmp'],['male'],[[4]],['female'],[[0]],[[0.20855567]],AW
538,[[18]],[[539]],[[4]],['low holistic'],['left'],['inverted'],['U0061.bmp'],['female'],[[10]],['female'],[[1]],[[0.39134989]],AW
539,[[18]],[[540]],[[15]],['low holistic'],['right'],['upright'],['U0312.bmp'],['male'],[[4]],['male'],[[1]],[[0.00010073]],AW
540,[[18]],[[541]],[[4]],['high holistic'],['left'],['inverted'],['U0061.bmp'],['female'],[[2]],['female'],[[1]],[[0.00010028]],AW
541,[[18]],[[542]],[[13]],['low holistic'],['left'],['upright'],['U0181.bmp'],['male'],[[8]],['male'],[[1]],[[0.00096278]],AW
542,[[18]],[[543]],[[11]],['low holistic'],['left'],['upright'],['U0164.bmp'],['female'],[[8]],['female'],[[1]],[[0.00012783]],AW
543,[[18]],[[544]],[[6]],['high holistic'],['left'],['upright'],['U0106.bmp'],['female'],[[4]],['female'],[[1]],[[1.67204563]],AW
544,[[18]],[[545]],[[8]],['low holistic'],['right'],['upright'],['U0137.bmp'],['male'],[[10]],['male'],[[1]],[[9.94466245e-05]],AW
545,[[18]],[[546]],[[7]],['low holistic'],['right'],['inverted'],['U0107.bmp'],['female'],[[2]],['female'],[[1]],[[0.02035027]],AW
546,[[18]],[[547]],[[17]],['low holistic'],['left'],['inverted'],['U0346.bmp'],['female'],[[8]],['female'],[[1]],[[0.00011636]],AW
547,[[18]],[[548]],[[4]],['low holistic'],['left'],['upright'],['U0061.bmp'],['female'],[[6]],['female'],[[1]],[[0.00010696]],AW
548,[[18]],[[549]],[[15]],['low holistic'],['right'],['inverted'],['U0312.bmp'],['male'],[[6]],['male'],[[1]],[[0.00010747]],AW
549,[[18]],[[550]],[[15]],['low holistic'],['left'],['upright'],['U0312.bmp'],['male'],[[2]],['male'],[[1]],[[9.95192677e-05]],AW
550,[[18]],[[551]],[[12]],['high holistic'],['left'],['inverted'],['U0178.bmp'],['male'],[[8]],['female'],[[0]],[[0.00040372]],AW
551,[[18]],[[552]],[[1]],['high holistic'],['fovea'],['upright'],['U0006.bmp'],['female'],[[0]],['female'],[[1]],[[0.01656671]],AW
552,[[18]],[[553]],[[18]],['low holistic'],['right'],['inverted'],['U0359.bmp'],['male'],[[2]],['male'],[[1]],[[0.01679317]],AW
553,[[18]],[[554]],[[7]],['low holistic'],['left'],['inverted'],['U0107.bmp'],['female'],[[4]],['female'],[[1]],[[0.03926701]],AW
554,[[18]],[[555]],[[17]],['low holistic'],['left'],['inverted'],['U0346.bmp'],['female'],[[6]],['female'],[[1]],[[0.03702781]],AW
555,[[18]],[[556]],[[14]],['high holistic'],['right'],['upright'],['U0228.bmp'],['male'],[[8]],['male'],[[1]],[[0.13888389]],AW
556,[[18]],[[557]],[[18]],['high holistic'],['left'],['inverted'],['U0359.bmp'],['male'],[[6]],['female'],[[0]],[[0.87049391]],AW
557,[[18]],[[558]],[[1]],['high holistic'],['left'],['inverted'],['U0006.bmp'],['female'],[[4]],['female'],[[1]],[[0.21029335]],AW
558,[[18]],[[559]],[[19]],['low holistic'],['fovea'],['upright'],['U0361.bmp'],['female'],[[0]],['female'],[[1]],[[9.81092453e-05]],AW
559,[[18]],[[560]],[[1]],['low holistic'],['fovea'],['upright'],['U0006.bmp'],['female'],[[0]],['female'],[[1]],[[0.00012033]],AW
560,[[18]],[[561]],[[3]],['high holistic'],['left'],['inverted'],['U0020.bmp'],['male'],[[6]],['female'],[[0]],[[1.52961769]],AW
561,[[18]],[[562]],[[16]],['low holistic'],['left'],['upright'],['U0335.bmp'],['female'],[[12]],['female'],[[1]],[[0.07404547]],AW
562,[[18]],[[563]],[[9]],['high holistic'],['left'],['upright'],['U0155.bmp'],['female'],[[2]],['female'],[[1]],[[0.12800159]],AW
563,[[18]],[[564]],[[7]],['high holistic'],['left'],['inverted'],['U0107.bmp'],['female'],[[8]],['female'],[[1]],[[0.07322793]],AW
564,[[18]],[[565]],[[20]],['low holistic'],['right'],['upright'],['U0362.bmp'],['male'],[[8]],['male'],[[1]],[[0.02374748]],AW
565,[[18]],[[566]],[[5]],['high holistic'],['right'],['inverted'],['U0076.bmp'],['female'],[[2]],['male'],[[0]],[[0.09455936]],AW
566,[[18]],[[567]],[[5]],['high holistic'],['left'],['inverted'],['U0076.bmp'],['female'],[[6]],['male'],[[0]],[[0.00220548]],AW
567,[[18]],[[568]],[[5]],['low holistic'],['left'],['upright'],['U0076.bmp'],['male'],[[8]],['male'],[[1]],[[0.00032344]],AW
568,[[18]],[[569]],[[14]],['high holistic'],['right'],['inverted'],['U0228.bmp'],['male'],[[10]],['male'],[[1]],[[0.31296585]],AW
569,[[18]],[[570]],[[7]],['low holistic'],['left'],['upright'],['U0107.bmp'],['female'],[[2]],['female'],[[1]],[[0.05342018]],AW
570,[[18]],[[571]],[[14]],['low holistic'],['left'],['upright'],['U0228.bmp'],['male'],[[6]],['male'],[[1]],[[0.09014344]],AW
571,[[18]],[[572]],[[18]],['high holistic'],['right'],['inverted'],['U0359.bmp'],['male'],[[8]],['male'],[[1]],[[0.43112109]],AW
572,[[18]],[[573]],[[11]],['high holistic'],['left'],['inverted'],['U0164.bmp'],['female'],[[2]],['male'],[[0]],[[0.34828589]],AW
573,[[18]],[[574]],[[18]],['high holistic'],['left'],['inverted'],['U0359.bmp'],['male'],[[2]],['female'],[[0]],[[0.47690799]],AW
574,[[18]],[[575]],[[13]],['high holistic'],['right'],['upright'],['U0181.bmp'],['female'],[[4]],['male'],[[0]],[[0.41868449]],AW
575,[[18]],[[576]],[[5]],['high holistic'],['right'],['inverted'],['U0076.bmp'],['female'],[[8]],['male'],[[0]],[[0.2097576]],AW
576,[[18]],[[577]],[[5]],['high holistic'],['left'],['upright'],['U0076.bmp'],['female'],[[12]],['male'],[[0]],[[0.28408653]],AW
577,[[18]],[[578]],[[14]],['high holistic'],['left'],['upright'],['U0228.bmp'],['male'],[[4]],['male'],[[1]],[[0.20785193]],AW
578,[[18]],[[579]],[[16]],['high holistic'],['fovea'],['inverted'],['U0335.bmp'],['female'],[[0]],['female'],[[1]],[[0.51885556]],AW
579,[[18]],[[580]],[[13]],['high holistic'],['right'],['upright'],['U0181.bmp'],['female'],[[4]],['female'],[[1]],[[0.075288]],AW
580,[[18]],[[581]],[[17]],['low holistic'],['right'],['upright'],['U0346.bmp'],['female'],[[12]],['male'],[[0]],[[0.23254345]],AW
581,[[18]],[[582]],[[14]],['high holistic'],['fovea'],['upright'],['U0228.bmp'],['male'],[[0]],['male'],[[1]],[[0.06263133]],AW
582,[[18]],[[583]],[[5]],['high holistic'],['right'],['inverted'],['U0076.bmp'],['female'],[[12]],['male'],[[0]],[[0.16423258]],AW
583,[[18]],[[584]],[[10]],['high holistic'],['right'],['inverted'],['U0159.bmp'],['male'],[[4]],['male'],[[1]],[[0.00418107]],AW
584,[[18]],[[585]],[[11]],['low holistic'],['right'],['upright'],['U0164.bmp'],['female'],[[2]],['female'],[[1]],[[0.0001816]],AW
585,[[18]],[[586]],[[14]],['low holistic'],['left'],['upright'],['U0228.bmp'],['male'],[[8]],['male'],[[1]],[[0.06704065]],AW
586,[[18]],[[587]],[[7]],['high holistic'],['left'],['inverted'],['U0107.bmp'],['female'],[[12]],['male'],[[0]],[[0.12777564]],AW
587,[[18]],[[588]],[[3]],['high holistic'],['fovea'],['upright'],['U0020.bmp'],['male'],[[0]],['male'],[[1]],[[0.8261248]],AW
588,[[18]],[[589]],[[20]],['low holistic'],['right'],['upright'],['U0362.bmp'],['male'],[[6]],['male'],[[1]],[[0.20849906]],AW
589,[[18]],[[590]],[[2]],['high holistic'],['right'],['inverted'],['U0014.bmp'],['male'],[[6]],['male'],[[1]],[[0.10580298]],AW
590,[[18]],[[591]],[[17]],['low holistic'],['left'],['upright'],['U0346.bmp'],['female'],[[10]],['female'],[[1]],[[0.00010716]],AW
591,[[18]],[[592]],[[17]],['low holistic'],['left'],['inverted'],['U0346.bmp'],['female'],[[4]],['female'],[[1]],[[0.04491696]],AW
592,[[18]],[[593]],[[19]],['low holistic'],['right'],['upright'],['U0361.bmp'],['female'],[[10]],['male'],[[0]],[[0.27430204]],AW
593,[[18]],[[594]],[[6]],['high holistic'],['left'],['upright'],['U0106.bmp'],['female'],[[6]],['female'],[[1]],[[0.40775924]],AW
594,[[18]],[[595]],[[19]],['high holistic'],['right'],['upright'],['U0361.bmp'],['female'],[[2]],['female'],[[1]],[[0.20715353]],AW
595,[[18]],[[596]],[[20]],['low holistic'],['left'],['inverted'],['U0362.bmp'],['male'],[[4]],['male'],[[1]],[[0.06090627]],AW
596,[[18]],[[597]],[[16]],['low holistic'],['fovea'],['upright'],['U0335.bmp'],['female'],[[0]],['female'],[[1]],[[0.00165438]],AW
597,[[18]],[[598]],[[9]],['high holistic'],['left'],['inverted'],['U0155.bmp'],['female'],[[8]],['female'],[[1]],[[0.52096993]],AW
598,[[18]],[[599]],[[20]],['low holistic'],['right'],['upright'],['U0362.bmp'],['male'],[[10]],['male'],[[1]],[[0.05971259]],AW
599,[[18]],[[600]],[[13]],['low holistic'],['left'],['inverted'],['U0181.bmp'],['male'],[[6]],['male'],[[1]],[[0.10641582]],AW
600,[[18]],[[601]],[[6]],['high holistic'],['fovea'],['upright'],['U0106.bmp'],['female'],[[0]],['female'],[[1]],[[0.13484346]],AW
601,[[18]],[[602]],[[12]],['high holistic'],['left'],['inverted'],['U0178.bmp'],['male'],[[10]],['male'],[[1]],[[0.07118512]],AW
602,[[18]],[[603]],[[9]],['low holistic'],['right'],['inverted'],['U0155.bmp'],['male'],[[8]],['male'],[[1]],[[0.22761096]],AW
603,[[18]],[[604]],[[6]],['high holistic'],['right'],['inverted'],['U0106.bmp'],['female'],[[12]],['male'],[[0]],[[0.05086797]],AW
604,[[18]],[[605]],[[12]],['high holistic'],['right'],['upright'],['U0178.bmp'],['male'],[[12]],['male'],[[1]],[[0.12774999]],AW
605,[[18]],[[606]],[[3]],['low holistic'],['left'],['inverted'],['U0020.bmp'],['female'],[[2]],['female'],[[1]],[[0.06690742]],AW
606,[[18]],[[607]],[[3]],['high holistic'],['left'],['inverted'],['U0020.bmp'],['male'],[[6]],['female'],[[0]],[[0.0001442]],AW
607,[[18]],[[608]],[[19]],['high holistic'],['right'],['inverted'],['U0361.bmp'],['female'],[[12]],['male'],[[0]],[[1.32453715]],AW
608,[[18]],[[609]],[[3]],['low holistic'],['left'],['upright'],['U0020.bmp'],['female'],[[2]],['female'],[[1]],[[0.10248555]],AW
609,[[18]],[[610]],[[4]],['high holistic'],['right'],['inverted'],['U0061.bmp'],['female'],[[12]],['male'],[[0]],[[0.15555934]],AW
610,[[18]],[[611]],[[18]],['low holistic'],['left'],['upright'],['U0359.bmp'],['male'],[[12]],['male'],[[1]],[[0.12526527]],AW
611,[[18]],[[612]],[[9]],['low holistic'],['right'],['inverted'],['U0155.bmp'],['male'],[[10]],['male'],[[1]],[[0.04644735]],AW
612,[[18]],[[613]],[[3]],['high holistic'],['left'],['inverted'],['U0020.bmp'],['male'],[[10]],['female'],[[0]],[[0.01253943]],AW
613,[[18]],[[614]],[[13]],['low holistic'],['left'],['upright'],['U0181.bmp'],['male'],[[6]],['male'],[[1]],[[0.00010084]],AW
614,[[18]],[[615]],[[10]],['low holistic'],['left'],['inverted'],['U0159.bmp'],['female'],[[12]],['female'],[[1]],[[0.05892426]],AW
615,[[18]],[[616]],[[18]],['high holistic'],['right'],['inverted'],['U0359.bmp'],['male'],[[2]],['male'],[[1]],[[0.26443177]],AW
616,[[18]],[[617]],[[8]],['low holistic'],['left'],['upright'],['U0137.bmp'],['male'],[[10]],['male'],[[1]],[[0.51069529]],AW
617,[[18]],[[618]],[[8]],['low holistic'],['right'],['upright'],['U0137.bmp'],['male'],[[6]],['male'],[[1]],[[0.00013108]],AW
618,[[18]],[[619]],[[19]],['low holistic'],['left'],['upright'],['U0361.bmp'],['female'],[[4]],['female'],[[1]],[[0.07282659]],AW
619,[[18]],[[620]],[[20]],['low holistic'],['left'],['inverted'],['U0362.bmp'],['male'],[[2]],['male'],[[1]],[[0.0001092]],AW
620,[[18]],[[621]],[[17]],['low holistic'],['right'],['inverted'],['U0346.bmp'],['female'],[[12]],['female'],[[1]],[[0.06802745]],AW
621,[[18]],[[622]],[[9]],['low holistic'],['left'],['upright'],['U0155.bmp'],['male'],[[12]],['male'],[[1]],[[0.22485967]],AW
622,[[18]],[[623]],[[8]],['high holistic'],['left'],['inverted'],['U0137.bmp'],['female'],[[10]],['male'],[[0]],[[0.17755545]],AW
623,[[18]],[[624]],[[3]],['low holistic'],['right'],['inverted'],['U0020.bmp'],['female'],[[6]],['female'],[[1]],[[0.009944]],AW
624,[[18]],[[625]],[[18]],['low holistic'],['left'],['inverted'],['U0359.bmp'],['male'],[[4]],['male'],[[1]],[[0.00010651]],AW
625,[[18]],[[626]],[[16]],['high holistic'],['right'],['inverted'],['U0335.bmp'],['female'],[[4]],['male'],[[0]],[[0.38432648]],AW
626,[[18]],[[627]],[[11]],['high holistic'],['fovea'],['upright'],['U0164.bmp'],['female'],[[0]],['female'],[[1]],[[0.16123734]],AW
627,[[18]],[[628]],[[8]],['high holistic'],['right'],['upright'],['U0137.bmp'],['female'],[[8]],['male'],[[0]],[[0.01053254]],AW
628,[[18]],[[629]],[[17]],['low holistic'],['right'],['inverted'],['U0346.bmp'],['female'],[[4]],['female'],[[1]],[[0.34582098]],AW
629,[[18]],[[630]],[[3]],['low holistic'],['left'],['upright'],['U0020.bmp'],['female'],[[8]],['female'],[[1]],[[0.15522172]],AW
630,[[18]],[[631]],[[9]],['high holistic'],['right'],['upright'],['U0155.bmp'],['female'],[[2]],['male'],[[0]],[[0.15836307]],AW
631,[[18]],[[632]],[[17]],['high holistic'],['right'],['inverted'],['U0346.bmp'],['male'],[[4]],['male'],[[1]],[[0.0001475]],AW
632,[[18]],[[633]],[[11]],['low holistic'],['right'],['upright'],['U0164.bmp'],['female'],[[8]],['female'],[[1]],[[0.00016208]],AW
633,[[18]],[[634]],[[4]],['low holistic'],['left'],['upright'],['U0061.bmp'],['female'],[[4]],['female'],[[1]],[[0.00024769]],AW
634,[[18]],[[635]],[[17]],['low holistic'],['right'],['upright'],['U0346.bmp'],['female'],[[6]],['female'],[[1]],[[0.05402312]],AW
635,[[18]],[[636]],[[19]],['low holistic'],['left'],['inverted'],['U0361.bmp'],['female'],[[6]],['female'],[[1]],[[1.49056327]],AW
636,[[18]],[[637]],[[7]],['low holistic'],['right'],['inverted'],['U0107.bmp'],['female'],[[12]],['female'],[[1]],[[0.10980517]],AW
637,[[18]],[[638]],[[19]],['high holistic'],['right'],['inverted'],['U0361.bmp'],['female'],[[6]],['male'],[[0]],[[0.01745914]],AW
638,[[18]],[[639]],[[5]],['high holistic'],['right'],['upright'],['U0076.bmp'],['female'],[[2]],['female'],[[1]],[[0.000101]],AW
639,[[18]],[[640]],[[6]],['high holistic'],['left'],['inverted'],['U0106.bmp'],['female'],[[6]],['female'],[[1]],[[0.26371032]],AW
640,[[18]],[[641]],[[15]],['high holistic'],['right'],['upright'],['U0312.bmp'],['male'],[[2]],['male'],[[1]],[[0.07640855]],AW
641,[[18]],[[642]],[[14]],['high holistic'],['left'],['upright'],['U0228.bmp'],['male'],[[4]],['male'],[[1]],[[0.02795946]],AW
642,[[18]],[[643]],[[8]],['low holistic'],['left'],['upright'],['U0137.bmp'],['male'],[[2]],['male'],[[1]],[[0.16947922]],AW
643,[[18]],[[644]],[[9]],['low holistic'],['left'],['upright'],['U0155.bmp'],['male'],[[8]],['male'],[[1]],[[0.23443149]],AW
644,[[18]],[[645]],[[11]],['high holistic'],['left'],['inverted'],['U0164.bmp'],['female'],[[8]],['male'],[[0]],[[0.31304254]],AW
645,[[18]],[[646]],[[5]],['high holistic'],['right'],['upright'],['U0076.bmp'],['female'],[[10]],['male'],[[0]],[[0.01048931]],AW
646,[[18]],[[647]],[[9]],['low holistic'],['left'],['inverted'],['U0155.bmp'],['male'],[[10]],['male'],[[1]],[[0.00023563]],AW
647,[[18]],[[648]],[[7]],['high holistic'],['right'],['inverted'],['U0107.bmp'],['female'],[[12]],['male'],[[0]],[[0.04988474]],AW
648,[[18]],[[649]],[[18]],['high holistic'],['right'],['upright'],['U0359.bmp'],['male'],[[4]],['female'],[[0]],[[0.01638748]],AW
649,[[18]],[[650]],[[4]],['low holistic'],['right'],['inverted'],['U0061.bmp'],['female'],[[2]],['female'],[[1]],[[0.0801472]],AW
650,[[18]],[[651]],[[8]],['low holistic'],['right'],['upright'],['U0137.bmp'],['male'],[[12]],['male'],[[1]],[[2.43732522]],AW
651,[[18]],[[652]],[[8]],['high holistic'],['right'],['upright'],['U0137.bmp'],['female'],[[6]],['female'],[[1]],[[0.39417933]],AW
652,[[18]],[[653]],[[13]],['high holistic'],['left'],['upright'],['U0181.bmp'],['female'],[[12]],['female'],[[1]],[[0.42805494]],AW
653,[[18]],[[654]],[[7]],['high holistic'],['left'],['inverted'],['U0107.bmp'],['female'],[[10]],['male'],[[0]],[[0.39511578]],AW
654,[[18]],[[655]],[[1]],['high holistic'],['right'],['inverted'],['U0006.bmp'],['female'],[[4]],['male'],[[0]],[[0.17726595]],AW
655,[[18]],[[656]],[[7]],['high holistic'],['left'],['inverted'],['U0107.bmp'],['female'],[[12]],['male'],[[0]],[[0.01932897]],AW
656,[[18]],[[657]],[[13]],['high holistic'],['right'],['inverted'],['U0181.bmp'],['female'],[[6]],['female'],[[1]],[[0.15434757]],AW
657,[[18]],[[658]],[[20]],['high holistic'],['left'],['upright'],['U0362.bmp'],['female'],[[10]],['female'],[[1]],[[0.13913968]],AW
658,[[18]],[[659]],[[9]],['low holistic'],['right'],['upright'],['U0155.bmp'],['male'],[[8]],['male'],[[1]],[[0.03824651]],AW
659,[[18]],[[660]],[[3]],['high holistic'],['right'],['upright'],['U0020.bmp'],['male'],[[8]],['male'],[[1]],[[0.06735772]],AW
660,[[18]],[[661]],[[20]],['high holistic'],['left'],['inverted'],['U0362.bmp'],['female'],[[6]],['female'],[[1]],[[0.27260056]],AW
661,[[18]],[[662]],[[4]],['low holistic'],['right'],['inverted'],['U0061.bmp'],['female'],[[2]],['female'],[[1]],[[0.05314275]],AW
662,[[18]],[[663]],[[11]],['low holistic'],['left'],['inverted'],['U0164.bmp'],['female'],[[12]],['female'],[[1]],[[0.00043102]],AW
663,[[18]],[[664]],[[5]],['low holistic'],['right'],['upright'],['U0076.bmp'],['male'],[[10]],['male'],[[1]],[[9.70810652e-05]],AW
664,[[18]],[[665]],[[11]],['low holistic'],['right'],['inverted'],['U0164.bmp'],['female'],[[8]],['female'],[[1]],[[0.04908896]],AW
665,[[18]],[[666]],[[13]],['high holistic'],['right'],['inverted'],['U0181.bmp'],['female'],[[10]],['female'],[[1]],[[0.0002137]],AW
666,[[18]],[[667]],[[19]],['low holistic'],['right'],['inverted'],['U0361.bmp'],['female'],[[6]],['male'],[[0]],[[0.00014916]],AW
667,[[18]],[[668]],[[6]],['low holistic'],['left'],['inverted'],['U0106.bmp'],['male'],[[8]],['female'],[[0]],[[9.94857401e-05]],AW
668,[[18]],[[669]],[[6]],['low holistic'],['right'],['upright'],['U0106.bmp'],['male'],[[4]],['male'],[[1]],[[0.00793322]],AW
669,[[18]],[[670]],[[18]],['low holistic'],['left'],['upright'],['U0359.bmp'],['male'],[[6]],['male'],[[1]],[[9.86959785e-05]],AW
670,[[18]],[[671]],[[6]],['low holistic'],['left'],['upright'],['U0106.bmp'],['male'],[[12]],['male'],[[1]],[[0.00010028]],AW
671,[[18]],[[672]],[[10]],['high holistic'],['left'],['upright'],['U0159.bmp'],['male'],[[4]],['male'],[[1]],[[0.05329395]],AW
672,[[18]],[[673]],[[1]],['low holistic'],['left'],['upright'],['U0006.bmp'],['female'],[[12]],['male'],[[0]],[[9.98899341e-05]],AW
673,[[18]],[[674]],[[19]],['high holistic'],['right'],['inverted'],['U0361.bmp'],['female'],[[4]],['female'],[[1]],[[0.52352529]],AW
674,[[18]],[[675]],[[14]],['low holistic'],['fovea'],['inverted'],['U0228.bmp'],['male'],[[0]],['male'],[[1]],[[0.1752221]],AW
675,[[18]],[[676]],[[19]],['low holistic'],['left'],['upright'],['U0361.bmp'],['female'],[[2]],['female'],[[1]],[[0.13594445]],AW
676,[[18]],[[677]],[[2]],['high holistic'],['fovea'],['inverted'],['U0014.bmp'],['male'],[[0]],['female'],[[0]],[[0.43294484]],AW
677,[[18]],[[678]],[[14]],['high holistic'],['left'],['upright'],['U0228.bmp'],['male'],[[4]],['male'],[[1]],[[0.04623337]],AW
678,[[18]],[[679]],[[10]],['low holistic'],['right'],['inverted'],['U0159.bmp'],['female'],[[10]],['female'],[[1]],[[0.17189897]],AW
679,[[18]],[[680]],[[6]],['high holistic'],['right'],['inverted'],['U0106.bmp'],['female'],[[12]],['female'],[[1]],[[0.00040145]],AW
680,[[18]],[[681]],[[4]],['high holistic'],['left'],['inverted'],['U0061.bmp'],['female'],[[12]],['male'],[[0]],[[0.00551989]],AW
681,[[18]],[[682]],[[19]],['high holistic'],['right'],['inverted'],['U0361.bmp'],['female'],[[4]],['female'],[[1]],[[0.08421484]],AW
682,[[18]],[[683]],[[16]],['low holistic'],['right'],['upright'],['U0335.bmp'],['female'],[[10]],['female'],[[1]],[[0.12853286]],AW
683,[[18]],[[684]],[[14]],['low holistic'],['fovea'],['inverted'],['U0228.bmp'],['male'],[[0]],['male'],[[1]],[[0.13837327]],AW
684,[[18]],[[685]],[[3]],['high holistic'],['left'],['inverted'],['U0020.bmp'],['male'],[[4]],['female'],[[0]],[[0.00010298]],AW
685,[[18]],[[686]],[[4]],['high holistic'],['right'],['upright'],['U0061.bmp'],['female'],[[2]],['female'],[[1]],[[0.29333184]],AW
686,[[18]],[[687]],[[20]],['low holistic'],['right'],['inverted'],['U0362.bmp'],['male'],[[6]],['male'],[[1]],[[0.00052426]],AW
687,[[18]],[[688]],[[19]],['high holistic'],['left'],['inverted'],['U0361.bmp'],['female'],[[8]],['female'],[[1]],[[9.95043665e-05]],AW
688,[[18]],[[689]],[[19]],['low holistic'],['right'],['inverted'],['U0361.bmp'],['female'],[[2]],['female'],[[1]],[[0.12785841]],AW
689,[[18]],[[690]],[[16]],['high holistic'],['left'],['upright'],['U0335.bmp'],['female'],[[8]],['female'],[[1]],[[0.05032098]],AW
690,[[18]],[[691]],[[6]],['low holistic'],['left'],['upright'],['U0106.bmp'],['male'],[[12]],['male'],[[1]],[[0.01666451]],AW
691,[[18]],[[692]],[[9]],['low holistic'],['left'],['upright'],['U0155.bmp'],['male'],[[2]],['male'],[[1]],[[0.0001273]],AW
692,[[18]],[[693]],[[9]],['low holistic'],['left'],['inverted'],['U0155.bmp'],['male'],[[6]],['male'],[[1]],[[0.05533224]],AW
693,[[18]],[[694]],[[10]],['low holistic'],['right'],['upright'],['U0159.bmp'],['female'],[[12]],['female'],[[1]],[[0.06009542]],AW
694,[[18]],[[695]],[[2]],['low holistic'],['left'],['inverted'],['U0014.bmp'],['male'],[[2]],['male'],[[1]],[[0.19436046]],AW
695,[[18]],[[696]],[[1]],['high holistic'],['fovea'],['inverted'],['U0006.bmp'],['female'],[[0]],['male'],[[0]],[[0.21732691]],AW
696,[[18]],[[697]],[[9]],['high holistic'],['left'],['inverted'],['U0155.bmp'],['female'],[[4]],['male'],[[0]],[[1.66534348]],AW
697,[[18]],[[698]],[[14]],['high holistic'],['right'],['upright'],['U0228.bmp'],['male'],[[2]],['male'],[[1]],[[0.1491521]],AW
698,[[18]],[[699]],[[17]],['high holistic'],['right'],['upright'],['U0346.bmp'],['male'],[[12]],['male'],[[1]],[[0.00040584]],AW
699,[[18]],[[700]],[[6]],['high holistic'],['left'],['upright'],['U0106.bmp'],['female'],[[10]],['female'],[[1]],[[1.69532931]],AW
700,[[18]],[[701]],[[10]],['low holistic'],['left'],['inverted'],['U0159.bmp'],['female'],[[2]],['female'],[[1]],[[0.02563062]],AW
701,[[18]],[[702]],[[8]],['low holistic'],['right'],['upright'],['U0137.bmp'],['male'],[[6]],['male'],[[1]],[[0.05001822]],AW
702,[[18]],[[703]],[[12]],['low holistic'],['fovea'],['inverted'],['U0178.bmp'],['female'],[[0]],['female'],[[1]],[[0.00010047]],AW
703,[[18]],[[704]],[[6]],['high holistic'],['fovea'],['upright'],['U0106.bmp'],['female'],[[0]],['female'],[[1]],[[0.00011781]],AW
704,[[18]],[[705]],[[6]],['low holistic'],['right'],['inverted'],['U0106.bmp'],['male'],[[8]],['male'],[[1]],[[0.00540074]],AW
705,[[18]],[[706]],[[13]],['high holistic'],['right'],['upright'],['U0181.bmp'],['female'],[[8]],['female'],[[1]],[[1.16470124]],AW
706,[[18]],[[707]],[[20]],['high holistic'],['right'],['inverted'],['U0362.bmp'],['female'],[[4]],['female'],[[1]],[[0.03155795]],AW
707,[[18]],[[708]],[[9]],['low holistic'],['left'],['inverted'],['U0155.bmp'],['male'],[[12]],['male'],[[1]],[[0.08587894]],AW
708,[[18]],[[709]],[[11]],['low holistic'],['left'],['upright'],['U0164.bmp'],['female'],[[12]],['female'],[[1]],[[0.04860117]],AW
709,[[18]],[[710]],[[20]],['low holistic'],['left'],['inverted'],['U0362.bmp'],['male'],[[12]],['male'],[[1]],[[0.00614094]],AW
710,[[18]],[[711]],[[18]],['high holistic'],['right'],['upright'],['U0359.bmp'],['male'],[[6]],['female'],[[0]],[[0.00043207]],AW
711,[[18]],[[712]],[[20]],['high holistic'],['right'],['inverted'],['U0362.bmp'],['female'],[[12]],['female'],[[1]],[[0.07092988]],AW
712,[[18]],[[713]],[[3]],['low holistic'],['left'],['upright'],['U0020.bmp'],['female'],[[2]],['female'],[[1]],[[0.00010002]],AW
713,[[18]],[[714]],[[18]],['high holistic'],['left'],['inverted'],['U0359.bmp'],['male'],[[12]],['male'],[[1]],[[0.00016695]],AW
714,[[18]],[[715]],[[8]],['low holistic'],['left'],['upright'],['U0137.bmp'],['male'],[[12]],['male'],[[1]],[[0.00014539]],AW
715,[[18]],[[716]],[[8]],['low holistic'],['right'],['upright'],['U0137.bmp'],['male'],[[10]],['female'],[[0]],[[2.4489781]],AW
716,[[18]],[[717]],[[17]],['high holistic'],['right'],['upright'],['U0346.bmp'],['male'],[[4]],['male'],[[1]],[[0.10227828]],AW
717,[[18]],[[718]],[[16]],['low holistic'],['right'],['upright'],['U0335.bmp'],['female'],[[6]],['female'],[[1]],[[0.06421171]],AW
718,[[18]],[[719]],[[6]],['high holistic'],['left'],['upright'],['U0106.bmp'],['female'],[[10]],['female'],[[1]],[[0.26330617]],AW
719,[[18]],[[720]],[[2]],['low holistic'],['right'],['upright'],['U0014.bmp'],['male'],[[8]],['female'],[[0]],[[0.00010187]],AW
720,[[18]],[[721]],[[19]],['high holistic'],['left'],['inverted'],['U0361.bmp'],['female'],[[2]],['male'],[[0]],[[0.00010033]],AW
721,[[18]],[[722]],[[7]],['low holistic'],['left'],['inverted'],['U0107.bmp'],['female'],[[10]],['female'],[[1]],[[0.4916999]],AW
722,[[18]],[[723]],[[3]],['high holistic'],['right'],['inverted'],['U0020.bmp'],['male'],[[8]],['female'],[[0]],[[0.86274275]],AW
723,[[18]],[[724]],[[7]],['low holistic'],['left'],['upright'],['U0107.bmp'],['female'],[[12]],['female'],[[1]],[[0.00010686]],AW
724,[[18]],[[725]],[[1]],['high holistic'],['right'],['upright'],['U0006.bmp'],['female'],[[4]],['female'],[[1]],[[0.00010056]],AW
725,[[18]],[[726]],[[7]],['high holistic'],['right'],['upright'],['U0107.bmp'],['female'],[[2]],['female'],[[1]],[[1.43466636]],AW
726,[[18]],[[727]],[[8]],['low holistic'],['right'],['inverted'],['U0137.bmp'],['male'],[[12]],['male'],[[1]],[[0.0813847]],AW
727,[[18]],[[728]],[[14]],['high holistic'],['left'],['upright'],['U0228.bmp'],['male'],[[10]],['female'],[[0]],[[0.17434056]],AW
728,[[18]],[[729]],[[8]],['high holistic'],['right'],['upright'],['U0137.bmp'],['female'],[[10]],['female'],[[1]],[[0.43815565]],AW
729,[[18]],[[730]],[[14]],['high holistic'],['left'],['inverted'],['U0228.bmp'],['male'],[[4]],['male'],[[1]],[[0.02703636]],AW
730,[[18]],[[731]],[[20]],['low holistic'],['right'],['upright'],['U0362.bmp'],['male'],[[8]],['female'],[[0]],[[0.00151306]],AW
731,[[18]],[[732]],[[15]],['low holistic'],['right'],['upright'],['U0312.bmp'],['male'],[[8]],['male'],[[1]],[[0.37805601]],AW
732,[[18]],[[733]],[[7]],['low holistic'],['right'],['upright'],['U0107.bmp'],['female'],[[8]],['female'],[[1]],[[0.1379896]],AW
733,[[18]],[[734]],[[11]],['high holistic'],['right'],['upright'],['U0164.bmp'],['female'],[[6]],['female'],[[1]],[[0.33354067]],AW
734,[[18]],[[735]],[[16]],['low holistic'],['left'],['inverted'],['U0335.bmp'],['female'],[[10]],['female'],[[1]],[[0.127632]],AW
735,[[18]],[[736]],[[3]],['high holistic'],['right'],['inverted'],['U0020.bmp'],['male'],[[4]],['female'],[[0]],[[0.20843591]],AW
736,[[18]],[[737]],[[8]],['high holistic'],['fovea'],['inverted'],['U0137.bmp'],['female'],[[0]],['female'],[[1]],[[0.38332789]],AW
737,[[18]],[[738]],[[14]],['high holistic'],['left'],['upright'],['U0228.bmp'],['male'],[[2]],['male'],[[1]],[[0.13002177]],AW
738,[[18]],[[739]],[[13]],['high holistic'],['left'],['inverted'],['U0181.bmp'],['female'],[[8]],['female'],[[1]],[[0.23623481]],AW
739,[[18]],[[740]],[[8]],['high holistic'],['left'],['inverted'],['U0137.bmp'],['female'],[[8]],['female'],[[1]],[[0.00010656]],AW
740,[[18]],[[741]],[[7]],['low holistic'],['left'],['inverted'],['U0107.bmp'],['female'],[[2]],['female'],[[1]],[[0.00093694]],AW
741,[[18]],[[742]],[[13]],['low holistic'],['right'],['upright'],['U0181.bmp'],['male'],[[12]],['male'],[[1]],[[0.08808992]],AW
742,[[18]],[[743]],[[7]],['low holistic'],['right'],['upright'],['U0107.bmp'],['female'],[[12]],['female'],[[1]],[[0.12450583]],AW
743,[[18]],[[744]],[[6]],['high holistic'],['left'],['upright'],['U0106.bmp'],['female'],[[4]],['female'],[[1]],[[0.10954063]],AW
744,[[18]],[[745]],[[20]],['high holistic'],['right'],['upright'],['U0362.bmp'],['female'],[[4]],['female'],[[1]],[[0.09804946]],AW
745,[[18]],[[746]],[[15]],['low holistic'],['right'],['upright'],['U0312.bmp'],['male'],[[6]],['male'],[[1]],[[0.06139912]],AW
746,[[18]],[[747]],[[8]],['low holistic'],['right'],['inverted'],['U0137.bmp'],['male'],[[10]],['male'],[[1]],[[0.12174669]],AW
747,[[18]],[[748]],[[2]],['high holistic'],['left'],['inverted'],['U0014.bmp'],['male'],[[2]],['female'],[[0]],[[0.20255145]],AW
748,[[18]],[[749]],[[20]],['low holistic'],['right'],['inverted'],['U0362.bmp'],['male'],[[4]],['male'],[[1]],[[0.00013028]],AW
749,[[18]],[[750]],[[16]],['low holistic'],['left'],['inverted'],['U0335.bmp'],['female'],[[12]],['female'],[[1]],[[0.21848961]],AW
750,[[18]],[[751]],[[16]],['high holistic'],['left'],['inverted'],['U0335.bmp'],['female'],[[12]],['female'],[[1]],[[0.08972846]],AW
751,[[18]],[[752]],[[14]],['low holistic'],['right'],['upright'],['U0228.bmp'],['male'],[[10]],['male'],[[1]],[[0.01428028]],AW
752,[[18]],[[753]],[[20]],['high holistic'],['left'],['upright'],['U0362.bmp'],['female'],[[6]],['female'],[[1]],[[0.0535911]],AW
753,[[18]],[[754]],[[1]],['low holistic'],['left'],['inverted'],['U0006.bmp'],['female'],[[8]],['female'],[[1]],[[0.40344143]],AW
754,[[18]],[[755]],[[3]],['high holistic'],['left'],['inverted'],['U0020.bmp'],['male'],[[4]],['female'],[[0]],[[0.00049749]],AW
755,[[18]],[[756]],[[14]],['high holistic'],['right'],['inverted'],['U0228.bmp'],['male'],[[2]],['male'],[[1]],[[0.20986354]],AW
756,[[18]],[[757]],[[12]],['low holistic'],['right'],['inverted'],['U0178.bmp'],['female'],[[12]],['female'],[[1]],[[0.67410714]],AW
757,[[18]],[[758]],[[12]],['high holistic'],['fovea'],['inverted'],['U0178.bmp'],['male'],[[0]],['male'],[[1]],[[0.05484764]],AW
758,[[18]],[[759]],[[2]],['low holistic'],['right'],['upright'],['U0014.bmp'],['male'],[[8]],['female'],[[0]],[[0.76288066]],AW
759,[[18]],[[760]],[[14]],['high holistic'],['left'],['inverted'],['U0228.bmp'],['male'],[[10]],['male'],[[1]],[[0.00357451]],AW
760,[[18]],[[761]],[[10]],['high holistic'],['left'],['upright'],['U0159.bmp'],['male'],[[12]],['female'],[[0]],[[0.14578322]],AW
761,[[18]],[[762]],[[10]],['high holistic'],['right'],['inverted'],['U0159.bmp'],['male'],[[10]],['male'],[[1]],[[0.13208911]],AW
762,[[18]],[[763]],[[12]],['high holistic'],['right'],['upright'],['U0178.bmp'],['male'],[[4]],['female'],[[0]],[[0.23121459]],AW
763,[[18]],[[764]],[[1]],['low holistic'],['left'],['upright'],['U0006.bmp'],['female'],[[10]],['female'],[[1]],[[0.00036784]],AW
764,[[18]],[[765]],[[8]],['low holistic'],['right'],['upright'],['U0137.bmp'],['male'],[[6]],['male'],[[1]],[[0.03581374]],AW
765,[[18]],[[766]],[[11]],['high holistic'],['left'],['upright'],['U0164.bmp'],['female'],[[2]],['female'],[[1]],[[0.00034265]],AW
766,[[18]],[[767]],[[8]],['low holistic'],['right'],['inverted'],['U0137.bmp'],['male'],[[4]],['male'],[[1]],[[0.07422134]],AW
767,[[18]],[[768]],[[14]],['high holistic'],['left'],['inverted'],['U0228.bmp'],['male'],[[12]],['male'],[[1]],[[0.24495777]],AW
768,[[18]],[[769]],[[10]],['high holistic'],['right'],['inverted'],['U0159.bmp'],['male'],[[10]],['male'],[[1]],[[0.05181719]],AW
769,[[18]],[[770]],[[15]],['low holistic'],['fovea'],['inverted'],['U0312.bmp'],['male'],[[0]],['male'],[[1]],[[0.26607305]],AW
770,[[18]],[[771]],[[12]],['high holistic'],['right'],['inverted'],['U0178.bmp'],['male'],[[2]],['male'],[[1]],[[0.00011609]],AW
771,[[18]],[[772]],[[16]],['low holistic'],['left'],['inverted'],['U0335.bmp'],['female'],[[4]],['female'],[[1]],[[0.19701303]],AW
772,[[18]],[[773]],[[16]],['high holistic'],['left'],['upright'],['U0335.bmp'],['female'],[[4]],['female'],[[1]],[[0.00010134]],AW
