,SUBID,TRIAL,MOONEYID,MOONEYCATEGORY,LOC,COND,MOONEY_NAME,MOONEY_GENDER,ECCENTRICITY,RESPONSE,ACCURACY,RT,SUBINIT
0,[[2]],[[1]],[[9]],['low holistic'],['left'],['upright'],['U0155.bmp'],['male'],[],['male'],[[1]],[[0.00246694]],CC
1,[[2]],[[2]],[[14]],['low holistic'],['right'],['upright'],['U0228.bmp'],['male'],[],['male'],[[1]],[[0.00011299]],CC
2,[[2]],[[3]],[[19]],['high holistic'],['right'],['upright'],['U0361.bmp'],['female'],[],['female'],[[1]],[[0.03892961]],CC
3,[[2]],[[4]],[[17]],['low holistic'],['right'],['upright'],['U0346.bmp'],['female'],[],['male'],[[0]],[[0.23645403]],CC
4,[[2]],[[5]],[[10]],['high holistic'],['left'],['inverted'],['U0159.bmp'],['male'],[],['male'],[[1]],[[0.107894]],CC
5,[[2]],[[6]],[[16]],['low holistic'],['right'],['inverted'],['U0335.bmp'],['female'],[],['female'],[[1]],[[2.10416482]],CC
6,[[2]],[[7]],[[9]],['high holistic'],['right'],['inverted'],['U0155.bmp'],['female'],[],['male'],[[0]],[[0.41131287]],CC
7,[[2]],[[8]],[[20]],['high holistic'],['right'],['upright'],['U0362.bmp'],['female'],[],['female'],[[1]],[[0.06754837]],CC
8,[[2]],[[9]],[[20]],['high holistic'],['right'],['inverted'],['U0362.bmp'],['female'],[],['male'],[[0]],[[0.05611551]],CC
9,[[2]],[[10]],[[18]],['high holistic'],['right'],['upright'],['U0359.bmp'],['male'],[],['male'],[[1]],[[0.05513356]],CC
10,[[2]],[[11]],[[8]],['low holistic'],['fovea'],['upright'],['U0137.bmp'],['male'],[],['female'],[[0]],[[0.00019617]],CC
11,[[2]],[[12]],[[10]],['low holistic'],['left'],['upright'],['U0159.bmp'],['female'],[],['female'],[[1]],[[0.00013634]],CC
12,[[2]],[[13]],[[5]],['low holistic'],['right'],['inverted'],['U0076.bmp'],['male'],[],['male'],[[1]],[[0.0001111]],CC
13,[[2]],[[14]],[[16]],['low holistic'],['left'],['inverted'],['U0335.bmp'],['female'],[],['male'],[[0]],[[0.19781519]],CC
14,[[2]],[[15]],[[18]],['low holistic'],['left'],['upright'],['U0359.bmp'],['male'],[],['male'],[[1]],[[2.50978354]],CC
15,[[2]],[[16]],[[19]],['high holistic'],['left'],['inverted'],['U0361.bmp'],['female'],[],['male'],[[0]],[[0.00016354]],CC
16,[[2]],[[17]],[[12]],['low holistic'],['left'],['inverted'],['U0178.bmp'],['female'],[],['female'],[[1]],[[0.25164625]],CC
17,[[2]],[[18]],[[12]],['low holistic'],['right'],['inverted'],['U0178.bmp'],['female'],[],['female'],[[1]],[[0.00032898]],CC
18,[[2]],[[19]],[[3]],['low holistic'],['right'],['upright'],['U0020.bmp'],['female'],[],['female'],[[1]],[[0.00013403]],CC
19,[[2]],[[20]],[[18]],['high holistic'],['left'],['inverted'],['U0359.bmp'],['male'],[],['male'],[[1]],[[0.21010287]],CC
20,[[2]],[[21]],[[10]],['low holistic'],['right'],['inverted'],['U0159.bmp'],['female'],[],['female'],[[1]],[[0.00039854]],CC
21,[[2]],[[22]],[[5]],['high holistic'],['right'],['inverted'],['U0076.bmp'],['female'],[],['male'],[[0]],[[0.08125549]],CC
22,[[2]],[[23]],[[18]],['low holistic'],['left'],['inverted'],['U0359.bmp'],['male'],[],['male'],[[1]],[[0.00043948]],CC
23,[[2]],[[24]],[[16]],['high holistic'],['left'],['upright'],['U0335.bmp'],['female'],[],['male'],[[0]],[[0.00726514]],CC
24,[[2]],[[25]],[[18]],['high holistic'],['left'],['upright'],['U0359.bmp'],['male'],[],['female'],[[0]],[[0.23968384]],CC
25,[[2]],[[26]],[[6]],['low holistic'],['right'],['inverted'],['U0106.bmp'],['male'],[],['male'],[[1]],[[0.31650446]],CC
26,[[2]],[[27]],[[14]],['high holistic'],['left'],['upright'],['U0228.bmp'],['male'],[],['male'],[[1]],[[0.0001138]],CC
27,[[2]],[[28]],[[14]],['high holistic'],['right'],['inverted'],['U0228.bmp'],['male'],[],['male'],[[1]],[[0.00010857]],CC
28,[[2]],[[29]],[[3]],['high holistic'],['right'],['upright'],['U0020.bmp'],['male'],[],['male'],[[1]],[[1.60228789]],CC
29,[[2]],[[30]],[[9]],['low holistic'],['left'],['inverted'],['U0155.bmp'],['male'],[],['female'],[[0]],[[0.07217877]],CC
30,[[2]],[[31]],[[6]],['low holistic'],['left'],['upright'],['U0106.bmp'],['male'],[],['male'],[[1]],[[0.28624756]],CC
31,[[2]],[[32]],[[15]],['low holistic'],['right'],['upright'],['U0312.bmp'],['male'],[],['male'],[[1]],[[0.00019801]],CC
32,[[2]],[[33]],[[6]],['low holistic'],['right'],['upright'],['U0106.bmp'],['male'],[],['male'],[[1]],[[0.00017247]],CC
33,[[2]],[[34]],[[18]],['high holistic'],['right'],['upright'],['U0359.bmp'],['male'],[],['male'],[[1]],[[0.00011528]],CC
34,[[2]],[[35]],[[17]],['high holistic'],['fovea'],['upright'],['U0346.bmp'],['male'],[],['male'],[[1]],[[0.06031597]],CC
35,[[2]],[[36]],[[8]],['low holistic'],['right'],['upright'],['U0137.bmp'],['male'],[],['male'],[[1]],[[0.0001749]],CC
36,[[2]],[[37]],[[10]],['high holistic'],['left'],['inverted'],['U0159.bmp'],['male'],[],['male'],[[1]],[[2.24858238]],CC
37,[[2]],[[38]],[[14]],['high holistic'],['left'],['inverted'],['U0228.bmp'],['male'],[],['male'],[[1]],[[0.00010081]],CC
38,[[2]],[[39]],[[17]],['high holistic'],['left'],['upright'],['U0346.bmp'],['male'],[],['male'],[[1]],[[0.16787265]],CC
39,[[2]],[[40]],[[13]],['low holistic'],['right'],['inverted'],['U0181.bmp'],['male'],[],['male'],[[1]],[[0.00011854]],CC
40,[[2]],[[41]],[[12]],['low holistic'],['left'],['inverted'],['U0178.bmp'],['female'],[],['male'],[[0]],[[0.00024717]],CC
41,[[2]],[[42]],[[7]],['high holistic'],['left'],['upright'],['U0107.bmp'],['female'],[],['male'],[[0]],[[0.19357685]],CC
42,[[2]],[[43]],[[10]],['high holistic'],['fovea'],['inverted'],['U0159.bmp'],['male'],[],['female'],[[0]],[[0.05841572]],CC
43,[[2]],[[44]],[[15]],['low holistic'],['right'],['inverted'],['U0312.bmp'],['male'],[],['male'],[[1]],[[0.00739759]],CC
44,[[2]],[[45]],[[18]],['high holistic'],['right'],['upright'],['U0359.bmp'],['male'],[],['male'],[[1]],[[0.00013348]],CC
45,[[2]],[[46]],[[15]],['low holistic'],['right'],['inverted'],['U0312.bmp'],['male'],[],['male'],[[1]],[[2.57620334]],CC
46,[[2]],[[47]],[[1]],['low holistic'],['left'],['upright'],['U0006.bmp'],['female'],[],['female'],[[1]],[[0.00025228]],CC
47,[[2]],[[48]],[[14]],['low holistic'],['right'],['inverted'],['U0228.bmp'],['male'],[],['male'],[[1]],[[0.000129]],CC
48,[[2]],[[49]],[[9]],['high holistic'],['right'],['upright'],['U0155.bmp'],['female'],[],['male'],[[0]],[[2.50649138]],CC
49,[[2]],[[50]],[[9]],['low holistic'],['left'],['inverted'],['U0155.bmp'],['male'],[],['male'],[[1]],[[1.63015914]],CC
50,[[2]],[[51]],[[3]],['high holistic'],['right'],['inverted'],['U0020.bmp'],['male'],[],['female'],[[0]],[[0.37290527]],CC
51,[[2]],[[52]],[[17]],['low holistic'],['left'],['inverted'],['U0346.bmp'],['female'],[],['female'],[[1]],[[0.14998026]],CC
52,[[2]],[[53]],[[7]],['low holistic'],['left'],['inverted'],['U0107.bmp'],['female'],[],['female'],[[1]],[[0.00013468]],CC
53,[[2]],[[54]],[[5]],['high holistic'],['right'],['inverted'],['U0076.bmp'],['female'],[],['female'],[[1]],[[0.31049283]],CC
54,[[2]],[[55]],[[7]],['low holistic'],['left'],['upright'],['U0107.bmp'],['female'],[],['female'],[[1]],[[0.01076308]],CC
55,[[2]],[[56]],[[8]],['high holistic'],['right'],['upright'],['U0137.bmp'],['female'],[],['female'],[[1]],[[0.17841142]],CC
56,[[2]],[[57]],[[11]],['high holistic'],['right'],['inverted'],['U0164.bmp'],['female'],[],['male'],[[0]],[[1.99250749]],CC
57,[[2]],[[58]],[[12]],['high holistic'],['right'],['inverted'],['U0178.bmp'],['male'],[],['female'],[[0]],[[0.10625238]],CC
58,[[2]],[[59]],[[8]],['low holistic'],['fovea'],['upright'],['U0137.bmp'],['male'],[],['male'],[[1]],[[0.01344272]],CC
59,[[2]],[[60]],[[8]],['high holistic'],['right'],['inverted'],['U0137.bmp'],['female'],[],['female'],[[1]],[[0.13929893]],CC
60,[[2]],[[61]],[[11]],['high holistic'],['right'],['upright'],['U0164.bmp'],['female'],[],['male'],[[0]],[[0.17546591]],CC
61,[[2]],[[62]],[[14]],['high holistic'],['right'],['inverted'],['U0228.bmp'],['male'],[],['male'],[[1]],[[0.34470016]],CC
62,[[2]],[[63]],[[20]],['low holistic'],['right'],['inverted'],['U0362.bmp'],['male'],[],['male'],[[1]],[[0.05915348]],CC
63,[[2]],[[64]],[[15]],['low holistic'],['left'],['inverted'],['U0312.bmp'],['male'],[],['male'],[[1]],[[0.13602054]],CC
64,[[2]],[[65]],[[9]],['low holistic'],['left'],['upright'],['U0155.bmp'],['male'],[],['male'],[[1]],[[0.00011146]],CC
65,[[2]],[[66]],[[17]],['high holistic'],['right'],['inverted'],['U0346.bmp'],['male'],[],['male'],[[1]],[[0.00030517]],CC
66,[[2]],[[67]],[[3]],['high holistic'],['left'],['inverted'],['U0020.bmp'],['male'],[],['male'],[[1]],[[0.00019384]],CC
67,[[2]],[[68]],[[2]],['high holistic'],['left'],['upright'],['U0014.bmp'],['male'],[],['male'],[[1]],[[0.25253444]],CC
68,[[2]],[[69]],[[2]],['high holistic'],['right'],['upright'],['U0014.bmp'],['male'],[],['male'],[[1]],[[1.87490774]],CC
69,[[2]],[[70]],[[4]],['low holistic'],['fovea'],['inverted'],['U0061.bmp'],['female'],[],['female'],[[1]],[[0.00018232]],CC
70,[[2]],[[71]],[[7]],['high holistic'],['left'],['upright'],['U0107.bmp'],['female'],[],['male'],[[0]],[[0.00016441]],CC
71,[[2]],[[72]],[[7]],['high holistic'],['right'],['inverted'],['U0107.bmp'],['female'],[],['female'],[[1]],[[0.20049365]],CC
72,[[2]],[[73]],[[1]],['high holistic'],['right'],['inverted'],['U0006.bmp'],['female'],[],['male'],[[0]],[[0.03175287]],CC
73,[[2]],[[74]],[[11]],['high holistic'],['right'],['inverted'],['U0164.bmp'],['female'],[],['female'],[[1]],[[0.00737293]],CC
74,[[2]],[[75]],[[2]],['low holistic'],['left'],['upright'],['U0014.bmp'],['male'],[],['female'],[[0]],[[0.12723872]],CC
75,[[2]],[[76]],[[3]],['low holistic'],['fovea'],['inverted'],['U0020.bmp'],['female'],[],['female'],[[1]],[[0.04273495]],CC
76,[[2]],[[77]],[[13]],['low holistic'],['right'],['inverted'],['U0181.bmp'],['male'],[],['female'],[[0]],[[1.51224337]],CC
77,[[2]],[[78]],[[18]],['low holistic'],['right'],['upright'],['U0359.bmp'],['male'],[],['male'],[[1]],[[0.04496986]],CC
78,[[2]],[[79]],[[20]],['low holistic'],['right'],['upright'],['U0362.bmp'],['male'],[],['male'],[[1]],[[0.00011947]],CC
79,[[2]],[[80]],[[12]],['low holistic'],['left'],['inverted'],['U0178.bmp'],['female'],[],['female'],[[1]],[[1.84273504]],CC
80,[[2]],[[81]],[[20]],['high holistic'],['left'],['upright'],['U0362.bmp'],['female'],[],['female'],[[1]],[[0.17747028]],CC
81,[[2]],[[82]],[[12]],['high holistic'],['right'],['inverted'],['U0178.bmp'],['male'],[],['female'],[[0]],[[0.19340772]],CC
82,[[2]],[[83]],[[11]],['low holistic'],['left'],['inverted'],['U0164.bmp'],['female'],[],['female'],[[1]],[[0.01722089]],CC
83,[[2]],[[84]],[[7]],['high holistic'],['right'],['inverted'],['U0107.bmp'],['female'],[],['female'],[[1]],[[0.00014248]],CC
84,[[2]],[[85]],[[9]],['high holistic'],['left'],['inverted'],['U0155.bmp'],['female'],[],['female'],[[1]],[[2.54570957]],CC
85,[[2]],[[86]],[[10]],['high holistic'],['right'],['upright'],['U0159.bmp'],['male'],[],['male'],[[1]],[[0.0002538]],CC
86,[[2]],[[87]],[[2]],['high holistic'],['right'],['upright'],['U0014.bmp'],['male'],[],['female'],[[0]],[[0.0001494]],CC
87,[[2]],[[88]],[[18]],['high holistic'],['left'],['inverted'],['U0359.bmp'],['male'],[],['female'],[[0]],[[0.0354753]],CC
88,[[2]],[[89]],[[2]],['high holistic'],['right'],['upright'],['U0014.bmp'],['male'],[],['male'],[[1]],[[0.00956845]],CC
89,[[2]],[[90]],[[9]],['high holistic'],['right'],['inverted'],['U0155.bmp'],['female'],[],['female'],[[1]],[[0.072823]],CC
90,[[2]],[[91]],[[17]],['high holistic'],['left'],['upright'],['U0346.bmp'],['male'],[],['female'],[[0]],[[0.38945848]],CC
91,[[2]],[[92]],[[8]],['high holistic'],['fovea'],['inverted'],['U0137.bmp'],['female'],[],['male'],[[0]],[[0.03774661]],CC
92,[[2]],[[93]],[[13]],['low holistic'],['right'],['inverted'],['U0181.bmp'],['male'],[],['male'],[[1]],[[0.06902126]],CC
93,[[2]],[[94]],[[17]],['high holistic'],['left'],['upright'],['U0346.bmp'],['male'],[],['male'],[[1]],[[0.30563191]],CC
94,[[2]],[[95]],[[18]],['low holistic'],['left'],['upright'],['U0359.bmp'],['male'],[],['male'],[[1]],[[0.05380111]],CC
95,[[2]],[[96]],[[19]],['high holistic'],['right'],['upright'],['U0361.bmp'],['female'],[],['male'],[[0]],[[0.0001152]],CC
96,[[2]],[[97]],[[4]],['low holistic'],['left'],['inverted'],['U0061.bmp'],['female'],[],['female'],[[1]],[[0.02778995]],CC
97,[[2]],[[98]],[[6]],['high holistic'],['right'],['upright'],['U0106.bmp'],['female'],[],['male'],[[0]],[[0.0001283]],CC
98,[[2]],[[99]],[[18]],['high holistic'],['left'],['upright'],['U0359.bmp'],['male'],[],['male'],[[1]],[[0.033919]],CC
99,[[2]],[[100]],[[12]],['high holistic'],['right'],['inverted'],['U0178.bmp'],['male'],[],['female'],[[0]],[[0.04839385]],CC
100,[[2]],[[101]],[[11]],['high holistic'],['right'],['inverted'],['U0164.bmp'],['female'],[],['female'],[[1]],[[0.00011339]],CC
101,[[2]],[[102]],[[13]],['low holistic'],['right'],['inverted'],['U0181.bmp'],['male'],[],['female'],[[0]],[[0.29551886]],CC
102,[[2]],[[103]],[[17]],['low holistic'],['right'],['inverted'],['U0346.bmp'],['female'],[],['female'],[[1]],[[0.00029641]],CC
103,[[2]],[[104]],[[11]],['high holistic'],['right'],['inverted'],['U0164.bmp'],['female'],[],['male'],[[0]],[[0.1396576]],CC
104,[[2]],[[105]],[[5]],['high holistic'],['right'],['inverted'],['U0076.bmp'],['female'],[],['male'],[[0]],[[0.38269254]],CC
105,[[2]],[[106]],[[10]],['low holistic'],['left'],['upright'],['U0159.bmp'],['female'],[],['female'],[[1]],[[0.00031641]],CC
106,[[2]],[[107]],[[9]],['low holistic'],['right'],['upright'],['U0155.bmp'],['male'],[],['male'],[[1]],[[0.01522518]],CC
107,[[2]],[[108]],[[20]],['low holistic'],['right'],['upright'],['U0362.bmp'],['male'],[],['male'],[[1]],[[0.00020449]],CC
108,[[2]],[[109]],[[13]],['high holistic'],['left'],['inverted'],['U0181.bmp'],['female'],[],['female'],[[1]],[[0.31007666]],CC
109,[[2]],[[110]],[[14]],['high holistic'],['left'],['inverted'],['U0228.bmp'],['male'],[],['female'],[[0]],[[0.04989175]],CC
110,[[2]],[[111]],[[15]],['high holistic'],['right'],['inverted'],['U0312.bmp'],['male'],[],['female'],[[0]],[[0.28853449]],CC
111,[[2]],[[112]],[[7]],['low holistic'],['left'],['upright'],['U0107.bmp'],['female'],[],['female'],[[1]],[[0.00025794]],CC
112,[[2]],[[113]],[[11]],['low holistic'],['right'],['upright'],['U0164.bmp'],['female'],[],['female'],[[1]],[[0.00018083]],CC
113,[[2]],[[114]],[[12]],['low holistic'],['left'],['inverted'],['U0178.bmp'],['female'],[],['female'],[[1]],[[0.00011601]],CC
114,[[2]],[[115]],[[4]],['high holistic'],['right'],['upright'],['U0061.bmp'],['female'],[],['female'],[[1]],[[0.07629018]],CC
115,[[2]],[[116]],[[12]],['high holistic'],['left'],['upright'],['U0178.bmp'],['male'],[],['female'],[[0]],[[0.00056795]],CC
116,[[2]],[[117]],[[14]],['high holistic'],['right'],['upright'],['U0228.bmp'],['male'],[],['female'],[[0]],[[0.00010127]],CC
117,[[2]],[[118]],[[9]],['high holistic'],['fovea'],['upright'],['U0155.bmp'],['female'],[],['female'],[[1]],[[0.1794743]],CC
118,[[2]],[[119]],[[17]],['high holistic'],['left'],['inverted'],['U0346.bmp'],['male'],[],['female'],[[0]],[[0.11597924]],CC
119,[[2]],[[120]],[[15]],['high holistic'],['left'],['inverted'],['U0312.bmp'],['male'],[],['female'],[[0]],[[0.00023042]],CC
120,[[2]],[[121]],[[8]],['high holistic'],['left'],['upright'],['U0137.bmp'],['female'],[],['female'],[[1]],[[0.00014025]],CC
121,[[2]],[[122]],[[10]],['low holistic'],['right'],['inverted'],['U0159.bmp'],['female'],[],['male'],[[0]],[[0.00024681]],CC
122,[[2]],[[123]],[[8]],['low holistic'],['right'],['inverted'],['U0137.bmp'],['male'],[],['female'],[[0]],[[0.39920505]],CC
123,[[2]],[[124]],[[16]],['high holistic'],['right'],['inverted'],['U0335.bmp'],['female'],[],['male'],[[0]],[[0.00020417]],CC
124,[[2]],[[125]],[[15]],['high holistic'],['left'],['inverted'],['U0312.bmp'],['male'],[],['male'],[[1]],[[0.30385936]],CC
125,[[2]],[[126]],[[9]],['low holistic'],['right'],['inverted'],['U0155.bmp'],['male'],[],['male'],[[1]],[[0.00055138]],CC
126,[[2]],[[127]],[[14]],['high holistic'],['right'],['inverted'],['U0228.bmp'],['male'],[],['male'],[[1]],[[0.13955709]],CC
127,[[2]],[[128]],[[19]],['high holistic'],['right'],['inverted'],['U0361.bmp'],['female'],[],['male'],[[0]],[[0.00014256]],CC
128,[[2]],[[129]],[[16]],['high holistic'],['right'],['inverted'],['U0335.bmp'],['female'],[],['male'],[[0]],[[0.02109961]],CC
129,[[2]],[[130]],[[15]],['high holistic'],['left'],['inverted'],['U0312.bmp'],['male'],[],['female'],[[0]],[[0.0002402]],CC
130,[[2]],[[131]],[[3]],['low holistic'],['right'],['upright'],['U0020.bmp'],['female'],[],['female'],[[1]],[[0.04369128]],CC
131,[[2]],[[132]],[[8]],['high holistic'],['fovea'],['inverted'],['U0137.bmp'],['female'],[],['female'],[[1]],[[0.16094197]],CC
132,[[2]],[[133]],[[12]],['low holistic'],['left'],['upright'],['U0178.bmp'],['female'],[],['female'],[[1]],[[1.91453413]],CC
133,[[2]],[[134]],[[10]],['high holistic'],['left'],['inverted'],['U0159.bmp'],['male'],[],['female'],[[0]],[[0.11821569]],CC
134,[[2]],[[135]],[[2]],['low holistic'],['fovea'],['upright'],['U0014.bmp'],['male'],[],['male'],[[1]],[[0.00022857]],CC
135,[[2]],[[136]],[[5]],['high holistic'],['right'],['upright'],['U0076.bmp'],['female'],[],['female'],[[1]],[[0.04131509]],CC
136,[[2]],[[137]],[[17]],['high holistic'],['left'],['upright'],['U0346.bmp'],['male'],[],['male'],[[1]],[[0.05663516]],CC
137,[[2]],[[138]],[[1]],['low holistic'],['right'],['inverted'],['U0006.bmp'],['female'],[],['male'],[[0]],[[0.10138653]],CC
138,[[2]],[[139]],[[18]],['low holistic'],['right'],['upright'],['U0359.bmp'],['male'],[],['male'],[[1]],[[0.00019444]],CC
139,[[2]],[[140]],[[2]],['low holistic'],['right'],['inverted'],['U0014.bmp'],['male'],[],['male'],[[1]],[[0.00071882]],CC
140,[[2]],[[141]],[[14]],['high holistic'],['left'],['inverted'],['U0228.bmp'],['male'],[],['male'],[[1]],[[0.13624952]],CC
141,[[2]],[[142]],[[11]],['high holistic'],['right'],['inverted'],['U0164.bmp'],['female'],[],['female'],[[1]],[[0.21047711]],CC
142,[[2]],[[143]],[[5]],['low holistic'],['left'],['upright'],['U0076.bmp'],['male'],[],['male'],[[1]],[[0.00038177]],CC
143,[[2]],[[144]],[[12]],['high holistic'],['left'],['inverted'],['U0178.bmp'],['male'],[],['male'],[[1]],[[0.00035331]],CC
144,[[2]],[[145]],[[3]],['high holistic'],['right'],['inverted'],['U0020.bmp'],['male'],[],['male'],[[1]],[[0.00015926]],CC
145,[[2]],[[146]],[[14]],['high holistic'],['left'],['upright'],['U0228.bmp'],['male'],[],['female'],[[0]],[[0.04989612]],CC
146,[[2]],[[147]],[[12]],['high holistic'],['right'],['upright'],['U0178.bmp'],['male'],[],['male'],[[1]],[[0.07416446]],CC
147,[[2]],[[148]],[[2]],['low holistic'],['left'],['upright'],['U0014.bmp'],['male'],[],['male'],[[1]],[[0.23921959]],CC
148,[[2]],[[149]],[[2]],['high holistic'],['left'],['inverted'],['U0014.bmp'],['male'],[],['male'],[[1]],[[9.9811703e-05]],CC
149,[[2]],[[150]],[[4]],['high holistic'],['left'],['upright'],['U0061.bmp'],['female'],[],['female'],[[1]],[[0.1410707]],CC
150,[[2]],[[151]],[[1]],['high holistic'],['right'],['inverted'],['U0006.bmp'],['female'],[],['male'],[[0]],[[0.00632914]],CC
151,[[2]],[[152]],[[9]],['high holistic'],['right'],['inverted'],['U0155.bmp'],['female'],[],['female'],[[1]],[[0.25487982]],CC
152,[[2]],[[153]],[[17]],['high holistic'],['right'],['upright'],['U0346.bmp'],['male'],[],['male'],[[1]],[[0.2840884]],CC
153,[[2]],[[154]],[[13]],['low holistic'],['left'],['upright'],['U0181.bmp'],['male'],[],['male'],[[1]],[[0.20705106]],CC
154,[[2]],[[155]],[[11]],['low holistic'],['right'],['upright'],['U0164.bmp'],['female'],[],['female'],[[1]],[[0.04799213]],CC
155,[[2]],[[156]],[[18]],['high holistic'],['left'],['inverted'],['U0359.bmp'],['male'],[],['female'],[[0]],[[0.11093826]],CC
156,[[2]],[[157]],[[2]],['low holistic'],['right'],['upright'],['U0014.bmp'],['male'],[],['male'],[[1]],[[0.00011655]],CC
157,[[2]],[[158]],[[19]],['low holistic'],['left'],['upright'],['U0361.bmp'],['female'],[],['female'],[[1]],[[0.08196643]],CC
158,[[2]],[[159]],[[3]],['low holistic'],['left'],['inverted'],['U0020.bmp'],['female'],[],['female'],[[1]],[[0.00018308]],CC
159,[[2]],[[160]],[[11]],['low holistic'],['left'],['inverted'],['U0164.bmp'],['female'],[],['female'],[[1]],[[9.98554751e-05]],CC
160,[[2]],[[161]],[[3]],['low holistic'],['left'],['upright'],['U0020.bmp'],['female'],[],['female'],[[1]],[[0.00048756]],CC
161,[[2]],[[162]],[[12]],['high holistic'],['right'],['upright'],['U0178.bmp'],['male'],[],['male'],[[1]],[[0.00016537]],CC
162,[[2]],[[163]],[[1]],['high holistic'],['fovea'],['inverted'],['U0006.bmp'],['female'],[],['male'],[[0]],[[0.00061402]],CC
163,[[2]],[[164]],[[16]],['low holistic'],['left'],['inverted'],['U0335.bmp'],['female'],[],['female'],[[1]],[[0.07865154]],CC
164,[[2]],[[165]],[[17]],['high holistic'],['left'],['inverted'],['U0346.bmp'],['male'],[],['female'],[[0]],[[0.00038004]],CC
165,[[2]],[[166]],[[19]],['high holistic'],['left'],['inverted'],['U0361.bmp'],['female'],[],['male'],[[0]],[[0.15607441]],CC
166,[[2]],[[167]],[[20]],['low holistic'],['right'],['inverted'],['U0362.bmp'],['male'],[],['male'],[[1]],[[0.0136574]],CC
167,[[2]],[[168]],[[11]],['high holistic'],['left'],['inverted'],['U0164.bmp'],['female'],[],['female'],[[1]],[[0.07639025]],CC
168,[[2]],[[169]],[[6]],['high holistic'],['fovea'],['upright'],['U0106.bmp'],['female'],[],['female'],[[1]],[[0.04957693]],CC
169,[[2]],[[170]],[[3]],['high holistic'],['right'],['inverted'],['U0020.bmp'],['male'],[],['male'],[[1]],[[0.00021985]],CC
170,[[2]],[[171]],[[11]],['low holistic'],['right'],['upright'],['U0164.bmp'],['female'],[],['female'],[[1]],[[0.28818338]],CC
171,[[2]],[[172]],[[12]],['high holistic'],['right'],['upright'],['U0178.bmp'],['male'],[],['male'],[[1]],[[0.32381019]],CC
172,[[2]],[[173]],[[16]],['high holistic'],['left'],['inverted'],['U0335.bmp'],['female'],[],['male'],[[0]],[[0.11150791]],CC
173,[[2]],[[174]],[[2]],['high holistic'],['right'],['upright'],['U0014.bmp'],['male'],[],['male'],[[1]],[[0.21100903]],CC
174,[[2]],[[175]],[[14]],['high holistic'],['right'],['inverted'],['U0228.bmp'],['male'],[],['male'],[[1]],[[0.00010952]],CC
175,[[2]],[[176]],[[11]],['high holistic'],['left'],['upright'],['U0164.bmp'],['female'],[],['female'],[[1]],[[0.1616005]],CC
176,[[2]],[[177]],[[4]],['low holistic'],['left'],['inverted'],['U0061.bmp'],['female'],[],['female'],[[1]],[[9.99625772e-05]],CC
177,[[2]],[[178]],[[19]],['high holistic'],['right'],['inverted'],['U0361.bmp'],['female'],[],['male'],[[0]],[[0.02706813]],CC
178,[[2]],[[179]],[[12]],['high holistic'],['right'],['inverted'],['U0178.bmp'],['male'],[],['male'],[[1]],[[0.00034933]],CC
179,[[2]],[[180]],[[9]],['high holistic'],['left'],['inverted'],['U0155.bmp'],['female'],[],['female'],[[1]],[[0.18674805]],CC
180,[[2]],[[181]],[[19]],['high holistic'],['right'],['upright'],['U0361.bmp'],['female'],[],['female'],[[1]],[[0.23715675]],CC
181,[[2]],[[182]],[[14]],['low holistic'],['left'],['upright'],['U0228.bmp'],['male'],[],['male'],[[1]],[[0.00011415]],CC
182,[[2]],[[183]],[[10]],['high holistic'],['left'],['upright'],['U0159.bmp'],['male'],[],['male'],[[1]],[[0.0004138]],CC
183,[[2]],[[184]],[[17]],['low holistic'],['right'],['inverted'],['U0346.bmp'],['female'],[],['male'],[[0]],[[0.05932003]],CC
184,[[2]],[[185]],[[11]],['low holistic'],['left'],['inverted'],['U0164.bmp'],['female'],[],['female'],[[1]],[[0.00017258]],CC
185,[[2]],[[186]],[[12]],['low holistic'],['right'],['inverted'],['U0178.bmp'],['female'],[],['male'],[[0]],[[0.0069052]],CC
186,[[2]],[[187]],[[14]],['low holistic'],['left'],['inverted'],['U0228.bmp'],['male'],[],['male'],[[1]],[[0.00020229]],CC
187,[[2]],[[188]],[[8]],['high holistic'],['right'],['upright'],['U0137.bmp'],['female'],[],['female'],[[1]],[[0.93117513]],CC
188,[[2]],[[189]],[[5]],['low holistic'],['left'],['inverted'],['U0076.bmp'],['male'],[],['male'],[[1]],[[0.07734011]],CC
189,[[2]],[[190]],[[12]],['low holistic'],['left'],['upright'],['U0178.bmp'],['female'],[],['female'],[[1]],[[0.05814198]],CC
190,[[2]],[[191]],[[18]],['high holistic'],['fovea'],['upright'],['U0359.bmp'],['male'],[],['male'],[[1]],[[0.0003499]],CC
191,[[2]],[[192]],[[9]],['high holistic'],['left'],['inverted'],['U0155.bmp'],['female'],[],['female'],[[1]],[[0.00034899]],CC
192,[[2]],[[193]],[[3]],['high holistic'],['fovea'],['inverted'],['U0020.bmp'],['male'],[],['female'],[[0]],[[0.00050889]],CC
193,[[2]],[[194]],[[9]],['low holistic'],['right'],['inverted'],['U0155.bmp'],['male'],[],['female'],[[0]],[[0.00048971]],CC
194,[[2]],[[195]],[[7]],['high holistic'],['right'],['upright'],['U0107.bmp'],['female'],[],['female'],[[1]],[[0.23208978]],CC
195,[[2]],[[196]],[[9]],['high holistic'],['right'],['upright'],['U0155.bmp'],['female'],[],['male'],[[0]],[[0.07061107]],CC
196,[[2]],[[197]],[[17]],['high holistic'],['fovea'],['inverted'],['U0346.bmp'],['male'],[],['female'],[[0]],[[0.00010463]],CC
197,[[2]],[[198]],[[9]],['low holistic'],['left'],['upright'],['U0155.bmp'],['male'],[],['male'],[[1]],[[0.43654044]],CC
198,[[2]],[[199]],[[8]],['high holistic'],['right'],['upright'],['U0137.bmp'],['female'],[],['female'],[[1]],[[0.00015028]],CC
199,[[2]],[[200]],[[8]],['high holistic'],['left'],['upright'],['U0137.bmp'],['female'],[],['female'],[[1]],[[0.00017095]],CC
200,[[2]],[[201]],[[3]],['low holistic'],['left'],['upright'],['U0020.bmp'],['female'],[],['female'],[[1]],[[2.91341876]],CC
201,[[2]],[[202]],[[6]],['high holistic'],['left'],['inverted'],['U0106.bmp'],['female'],[],['female'],[[1]],[[0.00030789]],CC
202,[[2]],[[203]],[[2]],['low holistic'],['left'],['inverted'],['U0014.bmp'],['male'],[],['male'],[[1]],[[0.1256147]],CC
203,[[2]],[[204]],[[9]],['high holistic'],['right'],['upright'],['U0155.bmp'],['female'],[],['female'],[[1]],[[0.08791232]],CC
204,[[2]],[[205]],[[6]],['low holistic'],['right'],['upright'],['U0106.bmp'],['male'],[],['female'],[[0]],[[0.07009494]],CC
205,[[2]],[[206]],[[6]],['high holistic'],['left'],['inverted'],['U0106.bmp'],['female'],[],['female'],[[1]],[[2.41078269]],CC
206,[[2]],[[207]],[[9]],['low holistic'],['right'],['upright'],['U0155.bmp'],['male'],[],['male'],[[1]],[[0.00017421]],CC
207,[[2]],[[208]],[[3]],['high holistic'],['left'],['inverted'],['U0020.bmp'],['male'],[],['female'],[[0]],[[0.00015511]],CC
208,[[2]],[[209]],[[10]],['low holistic'],['left'],['upright'],['U0159.bmp'],['female'],[],['female'],[[1]],[[2.89758267]],CC
209,[[2]],[[210]],[[15]],['low holistic'],['right'],['upright'],['U0312.bmp'],['male'],[],['male'],[[1]],[[0.00010009]],CC
210,[[2]],[[211]],[[5]],['high holistic'],['fovea'],['upright'],['U0076.bmp'],['female'],[],['female'],[[1]],[[0.00026935]],CC
211,[[2]],[[212]],[[16]],['high holistic'],['left'],['inverted'],['U0335.bmp'],['female'],[],['male'],[[0]],[[0.02016592]],CC
212,[[2]],[[213]],[[2]],['low holistic'],['right'],['upright'],['U0014.bmp'],['male'],[],['male'],[[1]],[[0.00011142]],CC
213,[[2]],[[214]],[[8]],['high holistic'],['right'],['upright'],['U0137.bmp'],['female'],[],['female'],[[1]],[[0.02937372]],CC
214,[[2]],[[215]],[[1]],['high holistic'],['right'],['upright'],['U0006.bmp'],['female'],[],['female'],[[1]],[[0.00011601]],CC
215,[[2]],[[216]],[[5]],['high holistic'],['left'],['inverted'],['U0076.bmp'],['female'],[],['female'],[[1]],[[0.00018183]],CC
216,[[2]],[[217]],[[1]],['high holistic'],['left'],['inverted'],['U0006.bmp'],['female'],[],['female'],[[1]],[[0.20475183]],CC
217,[[2]],[[218]],[[4]],['high holistic'],['right'],['upright'],['U0061.bmp'],['female'],[],['female'],[[1]],[[0.05227721]],CC
218,[[2]],[[219]],[[3]],['high holistic'],['left'],['inverted'],['U0020.bmp'],['male'],[],['female'],[[0]],[[2.40970476]],CC
219,[[2]],[[220]],[[6]],['high holistic'],['fovea'],['inverted'],['U0106.bmp'],['female'],[],['female'],[[1]],[[0.00011598]],CC
220,[[2]],[[221]],[[4]],['low holistic'],['fovea'],['upright'],['U0061.bmp'],['female'],[],['female'],[[1]],[[9.94503498e-05]],CC
221,[[2]],[[222]],[[3]],['low holistic'],['left'],['upright'],['U0020.bmp'],['female'],[],['female'],[[1]],[[0.0002876]],CC
222,[[2]],[[223]],[[12]],['high holistic'],['left'],['upright'],['U0178.bmp'],['male'],[],['male'],[[1]],[[1.33791954]],CC
223,[[2]],[[224]],[[19]],['high holistic'],['left'],['inverted'],['U0361.bmp'],['female'],[],['male'],[[0]],[[0.13898915]],CC
224,[[2]],[[225]],[[19]],['high holistic'],['left'],['upright'],['U0361.bmp'],['female'],[],['male'],[[0]],[[0.00010529]],CC
225,[[2]],[[226]],[[5]],['high holistic'],['left'],['inverted'],['U0076.bmp'],['female'],[],['male'],[[0]],[[0.00042623]],CC
226,[[2]],[[227]],[[10]],['high holistic'],['left'],['upright'],['U0159.bmp'],['male'],[],['male'],[[1]],[[0.02973629]],CC
227,[[2]],[[228]],[[8]],['low holistic'],['right'],['upright'],['U0137.bmp'],['male'],[],['male'],[[1]],[[2.85245243]],CC
228,[[2]],[[229]],[[11]],['high holistic'],['right'],['upright'],['U0164.bmp'],['female'],[],['female'],[[1]],[[0.00281273]],CC
229,[[2]],[[230]],[[6]],['high holistic'],['left'],['upright'],['U0106.bmp'],['female'],[],['female'],[[1]],[[0.09702175]],CC
230,[[2]],[[231]],[[2]],['high holistic'],['left'],['inverted'],['U0014.bmp'],['male'],[],['male'],[[1]],[[0.33360724]],CC
231,[[2]],[[232]],[[9]],['high holistic'],['right'],['inverted'],['U0155.bmp'],['female'],[],['female'],[[1]],[[0.24944228]],CC
232,[[2]],[[233]],[[4]],['low holistic'],['right'],['upright'],['U0061.bmp'],['female'],[],['female'],[[1]],[[0.00027755]],CC
233,[[2]],[[234]],[[1]],['low holistic'],['right'],['inverted'],['U0006.bmp'],['female'],[],['female'],[[1]],[[0.00010014]],CC
234,[[2]],[[235]],[[20]],['high holistic'],['right'],['inverted'],['U0362.bmp'],['female'],[],['female'],[[1]],[[0.00017567]],CC
235,[[2]],[[236]],[[9]],['low holistic'],['right'],['inverted'],['U0155.bmp'],['male'],[],['female'],[[0]],[[0.11069989]],CC
236,[[2]],[[237]],[[20]],['high holistic'],['right'],['inverted'],['U0362.bmp'],['female'],[],['female'],[[1]],[[0.07384738]],CC
237,[[2]],[[238]],[[16]],['high holistic'],['right'],['inverted'],['U0335.bmp'],['female'],[],['male'],[[0]],[[0.05570176]],CC
238,[[2]],[[239]],[[1]],['low holistic'],['right'],['upright'],['U0006.bmp'],['female'],[],['female'],[[1]],[[0.00010904]],CC
239,[[2]],[[240]],[[14]],['low holistic'],['right'],['upright'],['U0228.bmp'],['male'],[],['male'],[[1]],[[0.01343143]],CC
240,[[2]],[[241]],[[15]],['low holistic'],['right'],['inverted'],['U0312.bmp'],['male'],[],['male'],[[1]],[[0.00010129]],CC
241,[[2]],[[242]],[[13]],['low holistic'],['right'],['inverted'],['U0181.bmp'],['male'],[],['male'],[[1]],[[0.04461966]],CC
242,[[2]],[[243]],[[12]],['high holistic'],['left'],['inverted'],['U0178.bmp'],['male'],[],['female'],[[0]],[[0.00021516]],CC
243,[[2]],[[244]],[[5]],['high holistic'],['right'],['upright'],['U0076.bmp'],['female'],[],['female'],[[1]],[[0.00051432]],CC
244,[[2]],[[245]],[[16]],['low holistic'],['right'],['inverted'],['U0335.bmp'],['female'],[],['female'],[[1]],[[0.00015409]],CC
245,[[2]],[[246]],[[5]],['low holistic'],['right'],['inverted'],['U0076.bmp'],['male'],[],['male'],[[1]],[[0.00031777]],CC
246,[[2]],[[247]],[[8]],['high holistic'],['left'],['upright'],['U0137.bmp'],['female'],[],['male'],[[0]],[[9.7819604e-05]],CC
247,[[2]],[[248]],[[18]],['high holistic'],['left'],['upright'],['U0359.bmp'],['male'],[],['male'],[[1]],[[0.02631974]],CC
248,[[2]],[[249]],[[18]],['high holistic'],['right'],['upright'],['U0359.bmp'],['male'],[],['male'],[[1]],[[0.00027155]],CC
249,[[2]],[[250]],[[9]],['low holistic'],['right'],['inverted'],['U0155.bmp'],['male'],[],['male'],[[1]],[[0.0005661]],CC
250,[[2]],[[251]],[[7]],['high holistic'],['right'],['inverted'],['U0107.bmp'],['female'],[],['female'],[[1]],[[0.04841377]],CC
251,[[2]],[[252]],[[13]],['high holistic'],['left'],['inverted'],['U0181.bmp'],['female'],[],['male'],[[0]],[[0.14395539]],CC
252,[[2]],[[253]],[[19]],['high holistic'],['left'],['upright'],['U0361.bmp'],['female'],[],['female'],[[1]],[[0.00039113]],CC
253,[[2]],[[254]],[[19]],['high holistic'],['right'],['upright'],['U0361.bmp'],['female'],[],['female'],[[1]],[[2.55440688]],CC
254,[[2]],[[255]],[[12]],['high holistic'],['left'],['inverted'],['U0178.bmp'],['male'],[],['female'],[[0]],[[0.00010007]],CC
255,[[2]],[[256]],[[7]],['low holistic'],['right'],['upright'],['U0107.bmp'],['female'],[],['female'],[[1]],[[0.08296114]],CC
256,[[2]],[[257]],[[18]],['high holistic'],['left'],['upright'],['U0359.bmp'],['male'],[],['male'],[[1]],[[0.00011875]],CC
257,[[2]],[[258]],[[9]],['high holistic'],['fovea'],['inverted'],['U0155.bmp'],['female'],[],['female'],[[1]],[[0.00019778]],CC
258,[[2]],[[259]],[[19]],['low holistic'],['left'],['inverted'],['U0361.bmp'],['female'],[],['female'],[[1]],[[4.25562188]],CC
259,[[2]],[[260]],[[1]],['low holistic'],['left'],['upright'],['U0006.bmp'],['female'],[],['female'],[[1]],[[0.00011711]],CC
260,[[2]],[[261]],[[11]],['low holistic'],['right'],['upright'],['U0164.bmp'],['female'],[],['female'],[[1]],[[0.00012843]],CC
261,[[2]],[[262]],[[15]],['low holistic'],['right'],['upright'],['U0312.bmp'],['male'],[],['male'],[[1]],[[0.00022017]],CC
262,[[2]],[[263]],[[4]],['low holistic'],['right'],['upright'],['U0061.bmp'],['female'],[],['female'],[[1]],[[0.00022664]],CC
263,[[2]],[[264]],[[7]],['low holistic'],['left'],['upright'],['U0107.bmp'],['female'],[],['male'],[[0]],[[2.48145044]],CC
264,[[2]],[[265]],[[4]],['low holistic'],['left'],['upright'],['U0061.bmp'],['female'],[],['female'],[[1]],[[0.02992061]],CC
265,[[2]],[[266]],[[7]],['low holistic'],['right'],['inverted'],['U0107.bmp'],['female'],[],['female'],[[1]],[[0.02064023]],CC
266,[[2]],[[267]],[[9]],['high holistic'],['left'],['upright'],['U0155.bmp'],['female'],[],['female'],[[1]],[[0.10747092]],CC
267,[[2]],[[268]],[[11]],['low holistic'],['left'],['inverted'],['U0164.bmp'],['female'],[],['female'],[[1]],[[0.00010027]],CC
268,[[2]],[[269]],[[1]],['high holistic'],['left'],['inverted'],['U0006.bmp'],['female'],[],['female'],[[1]],[[0.00863845]],CC
269,[[2]],[[270]],[[12]],['high holistic'],['right'],['upright'],['U0178.bmp'],['male'],[],['male'],[[1]],[[0.01657799]],CC
270,[[2]],[[271]],[[6]],['high holistic'],['right'],['inverted'],['U0106.bmp'],['female'],[],['male'],[[0]],[[0.00010031]],CC
271,[[2]],[[272]],[[5]],['low holistic'],['left'],['upright'],['U0076.bmp'],['male'],[],['male'],[[1]],[[0.00020856]],CC
272,[[2]],[[273]],[[5]],['high holistic'],['left'],['upright'],['U0076.bmp'],['female'],[],['female'],[[1]],[[9.92007554e-05]],CC
273,[[2]],[[274]],[[4]],['low holistic'],['fovea'],['upright'],['U0061.bmp'],['female'],[],['female'],[[1]],[[0.00017232]],CC
274,[[2]],[[275]],[[20]],['low holistic'],['left'],['upright'],['U0362.bmp'],['male'],[],['male'],[[1]],[[0.08596549]],CC
275,[[2]],[[276]],[[19]],['low holistic'],['left'],['upright'],['U0361.bmp'],['female'],[],['female'],[[1]],[[0.10624505]],CC
276,[[2]],[[277]],[[17]],['high holistic'],['left'],['inverted'],['U0346.bmp'],['male'],[],['female'],[[0]],[[0.00057539]],CC
277,[[2]],[[278]],[[15]],['high holistic'],['fovea'],['inverted'],['U0312.bmp'],['male'],[],['female'],[[0]],[[0.03070993]],CC
278,[[2]],[[279]],[[4]],['high holistic'],['right'],['inverted'],['U0061.bmp'],['female'],[],['male'],[[0]],[[9.90051776e-05]],CC
279,[[2]],[[280]],[[8]],['low holistic'],['left'],['inverted'],['U0137.bmp'],['male'],[],['female'],[[0]],[[0.08551675]],CC
280,[[2]],[[281]],[[4]],['high holistic'],['left'],['upright'],['U0061.bmp'],['female'],[],['female'],[[1]],[[0.09902942]],CC
281,[[2]],[[282]],[[1]],['high holistic'],['fovea'],['inverted'],['U0006.bmp'],['female'],[],['female'],[[1]],[[0.14197643]],CC
282,[[2]],[[283]],[[7]],['low holistic'],['right'],['upright'],['U0107.bmp'],['female'],[],['female'],[[1]],[[0.06413272]],CC
283,[[2]],[[284]],[[14]],['high holistic'],['right'],['inverted'],['U0228.bmp'],['male'],[],['male'],[[1]],[[0.16615326]],CC
284,[[2]],[[285]],[[13]],['low holistic'],['left'],['upright'],['U0181.bmp'],['male'],[],['female'],[[0]],[[0.00010784]],CC
285,[[2]],[[286]],[[11]],['low holistic'],['right'],['inverted'],['U0164.bmp'],['female'],[],['female'],[[1]],[[1.47958457]],CC
286,[[2]],[[287]],[[9]],['high holistic'],['left'],['inverted'],['U0155.bmp'],['female'],[],['female'],[[1]],[[0.15610677]],CC
287,[[2]],[[288]],[[6]],['high holistic'],['left'],['inverted'],['U0106.bmp'],['female'],[],['male'],[[0]],[[0.19773224]],CC
288,[[2]],[[289]],[[11]],['high holistic'],['right'],['inverted'],['U0164.bmp'],['female'],[],['male'],[[0]],[[0.00023433]],CC
289,[[2]],[[290]],[[16]],['low holistic'],['left'],['upright'],['U0335.bmp'],['female'],[],['male'],[[0]],[[0.00010296]],CC
290,[[2]],[[291]],[[16]],['high holistic'],['left'],['inverted'],['U0335.bmp'],['female'],[],['male'],[[0]],[[0.13409234]],CC
291,[[2]],[[292]],[[12]],['low holistic'],['right'],['inverted'],['U0178.bmp'],['female'],[],['female'],[[1]],[[0.00017489]],CC
292,[[2]],[[293]],[[15]],['low holistic'],['right'],['inverted'],['U0312.bmp'],['male'],[],['female'],[[0]],[[0.00018181]],CC
293,[[2]],[[294]],[[13]],['low holistic'],['left'],['upright'],['U0181.bmp'],['male'],[],['male'],[[1]],[[2.00927499]],CC
294,[[2]],[[295]],[[3]],['high holistic'],['left'],['upright'],['U0020.bmp'],['male'],[],['female'],[[0]],[[0.00039642]],CC
295,[[2]],[[296]],[[11]],['low holistic'],['right'],['inverted'],['U0164.bmp'],['female'],[],['female'],[[1]],[[0.00010728]],CC
296,[[2]],[[297]],[[7]],['high holistic'],['right'],['upright'],['U0107.bmp'],['female'],[],['female'],[[1]],[[0.00032653]],CC
297,[[2]],[[298]],[[2]],['low holistic'],['right'],['upright'],['U0014.bmp'],['male'],[],['female'],[[0]],[[0.00025857]],CC
298,[[2]],[[299]],[[3]],['low holistic'],['right'],['inverted'],['U0020.bmp'],['female'],[],['female'],[[1]],[[0.00010814]],CC
299,[[2]],[[300]],[[4]],['low holistic'],['right'],['inverted'],['U0061.bmp'],['female'],[],['male'],[[0]],[[9.8911114e-05]],CC
300,[[2]],[[301]],[[14]],['high holistic'],['left'],['upright'],['U0228.bmp'],['male'],[],['male'],[[1]],[[0.15978566]],CC
301,[[2]],[[302]],[[9]],['low holistic'],['right'],['upright'],['U0155.bmp'],['male'],[],['male'],[[1]],[[0.00033005]],CC
302,[[2]],[[303]],[[14]],['high holistic'],['left'],['upright'],['U0228.bmp'],['male'],[],['male'],[[1]],[[0.02476741]],CC
303,[[2]],[[304]],[[6]],['low holistic'],['right'],['inverted'],['U0106.bmp'],['male'],[],['male'],[[1]],[[0.00019647]],CC
304,[[2]],[[305]],[[1]],['low holistic'],['left'],['upright'],['U0006.bmp'],['female'],[],['female'],[[1]],[[0.00011495]],CC
305,[[2]],[[306]],[[11]],['low holistic'],['fovea'],['inverted'],['U0164.bmp'],['female'],[],['female'],[[1]],[[0.00010591]],CC
306,[[2]],[[307]],[[6]],['high holistic'],['left'],['inverted'],['U0106.bmp'],['female'],[],['male'],[[0]],[[0.1842587]],CC
307,[[2]],[[308]],[[19]],['high holistic'],['right'],['upright'],['U0361.bmp'],['female'],[],['female'],[[1]],[[0.18403049]],CC
308,[[2]],[[309]],[[19]],['low holistic'],['left'],['inverted'],['U0361.bmp'],['female'],[],['female'],[[1]],[[0.09615328]],CC
309,[[2]],[[310]],[[8]],['high holistic'],['left'],['upright'],['U0137.bmp'],['female'],[],['female'],[[1]],[[0.00487377]],CC
310,[[2]],[[311]],[[1]],['low holistic'],['left'],['inverted'],['U0006.bmp'],['female'],[],['female'],[[1]],[[1.95595582]],CC
311,[[2]],[[312]],[[14]],['high holistic'],['left'],['upright'],['U0228.bmp'],['male'],[],['male'],[[1]],[[2.59074241]],CC
312,[[2]],[[313]],[[17]],['high holistic'],['right'],['upright'],['U0346.bmp'],['male'],[],['male'],[[1]],[[2.69579523]],CC
313,[[2]],[[314]],[[20]],['high holistic'],['right'],['inverted'],['U0362.bmp'],['female'],[],['female'],[[1]],[[1.89037855]],CC
314,[[2]],[[315]],[[2]],['low holistic'],['right'],['upright'],['U0014.bmp'],['male'],[],['male'],[[1]],[[0.01505619]],CC
315,[[2]],[[316]],[[10]],['low holistic'],['right'],['inverted'],['U0159.bmp'],['female'],[],['female'],[[1]],[[0.02995905]],CC
316,[[2]],[[317]],[[12]],['high holistic'],['left'],['upright'],['U0178.bmp'],['male'],[],['female'],[[0]],[[9.86056402e-05]],CC
317,[[2]],[[318]],[[14]],['high holistic'],['left'],['inverted'],['U0228.bmp'],['male'],[],['male'],[[1]],[[0.5635988]],CC
318,[[2]],[[319]],[[15]],['high holistic'],['right'],['upright'],['U0312.bmp'],['male'],[],['male'],[[1]],[[0.00053963]],CC
319,[[2]],[[320]],[[14]],['high holistic'],['left'],['upright'],['U0228.bmp'],['male'],[],['male'],[[1]],[[0.00010521]],CC
320,[[2]],[[321]],[[15]],['high holistic'],['right'],['upright'],['U0312.bmp'],['male'],[],['male'],[[1]],[[3.34884657]],CC
321,[[2]],[[322]],[[8]],['high holistic'],['left'],['inverted'],['U0137.bmp'],['female'],[],['male'],[[0]],[[0.00020378]],CC
322,[[2]],[[323]],[[12]],['low holistic'],['right'],['upright'],['U0178.bmp'],['female'],[],['female'],[[1]],[[0.14394939]],CC
323,[[2]],[[324]],[[3]],['low holistic'],['left'],['inverted'],['U0020.bmp'],['female'],[],['female'],[[1]],[[0.00043542]],CC
324,[[2]],[[325]],[[2]],['high holistic'],['right'],['upright'],['U0014.bmp'],['male'],[],['male'],[[1]],[[0.29739836]],CC
325,[[2]],[[326]],[[20]],['high holistic'],['right'],['inverted'],['U0362.bmp'],['female'],[],['male'],[[0]],[[0.01365791]],CC
326,[[2]],[[327]],[[6]],['low holistic'],['left'],['upright'],['U0106.bmp'],['male'],[],['female'],[[0]],[[0.15735248]],CC
327,[[2]],[[328]],[[12]],['low holistic'],['right'],['upright'],['U0178.bmp'],['female'],[],['female'],[[1]],[[0.00045234]],CC
328,[[2]],[[329]],[[20]],['high holistic'],['right'],['upright'],['U0362.bmp'],['female'],[],['female'],[[1]],[[0.00013751]],CC
329,[[2]],[[330]],[[4]],['low holistic'],['right'],['inverted'],['U0061.bmp'],['female'],[],['female'],[[1]],[[0.00010024]],CC
330,[[2]],[[331]],[[4]],['low holistic'],['left'],['upright'],['U0061.bmp'],['female'],[],['female'],[[1]],[[9.96440649e-05]],CC
331,[[2]],[[332]],[[7]],['low holistic'],['right'],['inverted'],['U0107.bmp'],['female'],[],['female'],[[1]],[[1.27893778]],CC
332,[[2]],[[333]],[[19]],['high holistic'],['left'],['inverted'],['U0361.bmp'],['female'],[],['male'],[[0]],[[0.0275199]],CC
333,[[2]],[[334]],[[8]],['high holistic'],['right'],['upright'],['U0137.bmp'],['female'],[],['male'],[[0]],[[0.00010007]],CC
334,[[2]],[[335]],[[6]],['low holistic'],['right'],['upright'],['U0106.bmp'],['male'],[],['male'],[[1]],[[0.00159258]],CC
335,[[2]],[[336]],[[4]],['high holistic'],['right'],['upright'],['U0061.bmp'],['female'],[],['female'],[[1]],[[0.0029066]],CC
336,[[2]],[[337]],[[8]],['low holistic'],['right'],['upright'],['U0137.bmp'],['male'],[],['male'],[[1]],[[9.90349799e-05]],CC
337,[[2]],[[338]],[[8]],['high holistic'],['right'],['upright'],['U0137.bmp'],['female'],[],['female'],[[1]],[[0.0668081]],CC
338,[[2]],[[339]],[[3]],['high holistic'],['left'],['inverted'],['U0020.bmp'],['male'],[],['male'],[[1]],[[0.07346784]],CC
339,[[2]],[[340]],[[9]],['low holistic'],['right'],['upright'],['U0155.bmp'],['male'],[],['male'],[[1]],[[0.00011079]],CC
340,[[2]],[[341]],[[2]],['high holistic'],['right'],['upright'],['U0014.bmp'],['male'],[],['male'],[[1]],[[2.05265146]],CC
341,[[2]],[[342]],[[13]],['low holistic'],['fovea'],['inverted'],['U0181.bmp'],['male'],[],['male'],[[1]],[[9.80868936e-05]],CC
342,[[2]],[[343]],[[1]],['high holistic'],['left'],['inverted'],['U0006.bmp'],['female'],[],['male'],[[0]],[[0.00013429]],CC
343,[[2]],[[344]],[[12]],['low holistic'],['left'],['inverted'],['U0178.bmp'],['female'],[],['female'],[[1]],[[1.45904452]],CC
344,[[2]],[[345]],[[16]],['high holistic'],['left'],['upright'],['U0335.bmp'],['female'],[],['female'],[[1]],[[2.27171388]],CC
345,[[2]],[[346]],[[5]],['high holistic'],['right'],['upright'],['U0076.bmp'],['female'],[],['female'],[[1]],[[0.29353433]],CC
346,[[2]],[[347]],[[9]],['low holistic'],['right'],['upright'],['U0155.bmp'],['male'],[],['male'],[[1]],[[9.98266041e-05]],CC
347,[[2]],[[348]],[[12]],['high holistic'],['left'],['upright'],['U0178.bmp'],['male'],[],['male'],[[1]],[[0.00010683]],CC
348,[[2]],[[349]],[[2]],['low holistic'],['left'],['upright'],['U0014.bmp'],['male'],[],['male'],[[1]],[[0.47388362]],CC
349,[[2]],[[350]],[[10]],['high holistic'],['left'],['upright'],['U0159.bmp'],['male'],[],['male'],[[1]],[[0.00047251]],CC
350,[[2]],[[351]],[[13]],['high holistic'],['left'],['upright'],['U0181.bmp'],['female'],[],['male'],[[0]],[[0.00010546]],CC
351,[[2]],[[352]],[[5]],['high holistic'],['right'],['upright'],['U0076.bmp'],['female'],[],['female'],[[1]],[[0.01521273]],CC
352,[[2]],[[353]],[[17]],['high holistic'],['right'],['upright'],['U0346.bmp'],['male'],[],['male'],[[1]],[[0.00015161]],CC
353,[[2]],[[354]],[[20]],['low holistic'],['left'],['upright'],['U0362.bmp'],['male'],[],['male'],[[1]],[[2.71906575]],CC
354,[[2]],[[355]],[[17]],['low holistic'],['right'],['upright'],['U0346.bmp'],['female'],[],['female'],[[1]],[[3.15228114]],CC
355,[[2]],[[356]],[[11]],['low holistic'],['right'],['inverted'],['U0164.bmp'],['female'],[],['female'],[[1]],[[0.00010579]],CC
356,[[2]],[[357]],[[6]],['high holistic'],['left'],['inverted'],['U0106.bmp'],['female'],[],['female'],[[1]],[[0.08223156]],CC
357,[[2]],[[358]],[[15]],['low holistic'],['right'],['upright'],['U0312.bmp'],['male'],[],['male'],[[1]],[[0.00013015]],CC
358,[[2]],[[359]],[[5]],['low holistic'],['left'],['inverted'],['U0076.bmp'],['male'],[],['male'],[[1]],[[9.7380951e-05]],CC
359,[[2]],[[360]],[[20]],['low holistic'],['right'],['inverted'],['U0362.bmp'],['male'],[],['male'],[[1]],[[0.00015301]],CC
360,[[2]],[[361]],[[13]],['low holistic'],['right'],['upright'],['U0181.bmp'],['male'],[],['male'],[[1]],[[2.16792542]],CC
361,[[2]],[[362]],[[13]],['low holistic'],['left'],['inverted'],['U0181.bmp'],['male'],[],['female'],[[0]],[[0.0001079]],CC
362,[[2]],[[363]],[[4]],['low holistic'],['fovea'],['upright'],['U0061.bmp'],['female'],[],['female'],[[1]],[[9.60500911e-05]],CC
363,[[2]],[[364]],[[2]],['low holistic'],['left'],['upright'],['U0014.bmp'],['male'],[],['male'],[[1]],[[0.08120562]],CC
364,[[2]],[[365]],[[6]],['high holistic'],['fovea'],['inverted'],['U0106.bmp'],['female'],[],['female'],[[1]],[[0.00010416]],CC
365,[[2]],[[366]],[[18]],['high holistic'],['left'],['inverted'],['U0359.bmp'],['male'],[],['male'],[[1]],[[0.07837978]],CC
366,[[2]],[[367]],[[19]],['low holistic'],['right'],['inverted'],['U0361.bmp'],['female'],[],['female'],[[1]],[[0.09118127]],CC
367,[[2]],[[368]],[[14]],['high holistic'],['right'],['upright'],['U0228.bmp'],['male'],[],['male'],[[1]],[[0.00019902]],CC
368,[[2]],[[369]],[[15]],['high holistic'],['right'],['upright'],['U0312.bmp'],['male'],[],['male'],[[1]],[[0.04666544]],CC
369,[[2]],[[370]],[[5]],['high holistic'],['fovea'],['upright'],['U0076.bmp'],['female'],[],['male'],[[0]],[[0.00010636]],CC
370,[[2]],[[371]],[[12]],['low holistic'],['right'],['upright'],['U0178.bmp'],['female'],[],['female'],[[1]],[[0.00015664]],CC
371,[[2]],[[372]],[[17]],['low holistic'],['left'],['inverted'],['U0346.bmp'],['female'],[],['female'],[[1]],[[0.22026588]],CC
372,[[2]],[[373]],[[9]],['low holistic'],['left'],['inverted'],['U0155.bmp'],['male'],[],['male'],[[1]],[[0.18915824]],CC
373,[[2]],[[374]],[[20]],['high holistic'],['fovea'],['inverted'],['U0362.bmp'],['female'],[],['female'],[[1]],[[0.10089001]],CC
374,[[2]],[[375]],[[2]],['high holistic'],['right'],['upright'],['U0014.bmp'],['male'],[],['male'],[[1]],[[0.00035067]],CC
375,[[2]],[[376]],[[7]],['low holistic'],['left'],['inverted'],['U0107.bmp'],['female'],[],['female'],[[1]],[[0.00010112]],CC
376,[[2]],[[377]],[[11]],['low holistic'],['left'],['inverted'],['U0164.bmp'],['female'],[],['female'],[[1]],[[2.51208676]],CC
377,[[2]],[[378]],[[2]],['low holistic'],['right'],['upright'],['U0014.bmp'],['male'],[],['male'],[[1]],[[3.92396802]],CC
378,[[2]],[[379]],[[15]],['high holistic'],['right'],['inverted'],['U0312.bmp'],['male'],[],['female'],[[0]],[[9.91495326e-05]],CC
379,[[2]],[[380]],[[12]],['high holistic'],['right'],['inverted'],['U0178.bmp'],['male'],[],['female'],[[0]],[[0.05506978]],CC
380,[[2]],[[381]],[[11]],['low holistic'],['right'],['upright'],['U0164.bmp'],['female'],[],['female'],[[1]],[[0.00010035]],CC
381,[[2]],[[382]],[[17]],['high holistic'],['left'],['inverted'],['U0346.bmp'],['male'],[],['female'],[[0]],[[0.00010706]],CC
382,[[2]],[[383]],[[18]],['low holistic'],['right'],['upright'],['U0359.bmp'],['male'],[],['female'],[[0]],[[0.05209821]],CC
383,[[2]],[[384]],[[16]],['high holistic'],['left'],['inverted'],['U0335.bmp'],['female'],[],['male'],[[0]],[[2.27544729]],CC
384,[[2]],[[385]],[[7]],['low holistic'],['fovea'],['upright'],['U0107.bmp'],['female'],[],['female'],[[1]],[[0.00045487]],CC
385,[[2]],[[386]],[[10]],['high holistic'],['right'],['inverted'],['U0159.bmp'],['male'],[],['female'],[[0]],[[0.23939696]],CC
386,[[2]],[[387]],[[16]],['high holistic'],['left'],['inverted'],['U0335.bmp'],['female'],[],['male'],[[0]],[[0.00015448]],CC
387,[[2]],[[388]],[[3]],['high holistic'],['left'],['inverted'],['U0020.bmp'],['male'],[],['female'],[[0]],[[0.21371356]],CC
388,[[2]],[[389]],[[3]],['low holistic'],['right'],['inverted'],['U0020.bmp'],['female'],[],['female'],[[1]],[[0.00058495]],CC
389,[[2]],[[390]],[[6]],['high holistic'],['right'],['inverted'],['U0106.bmp'],['female'],[],['female'],[[1]],[[0.00016241]],CC
390,[[2]],[[391]],[[11]],['high holistic'],['left'],['upright'],['U0164.bmp'],['female'],[],['female'],[[1]],[[0.09860818]],CC
391,[[2]],[[392]],[[20]],['high holistic'],['left'],['upright'],['U0362.bmp'],['female'],[],['female'],[[1]],[[0.0074347]],CC
392,[[2]],[[393]],[[15]],['high holistic'],['right'],['inverted'],['U0312.bmp'],['male'],[],['male'],[[1]],[[0.16724853]],CC
393,[[2]],[[394]],[[7]],['high holistic'],['right'],['inverted'],['U0107.bmp'],['female'],[],['female'],[[1]],[[0.18303441]],CC
394,[[2]],[[395]],[[6]],['high holistic'],['left'],['inverted'],['U0106.bmp'],['female'],[],['female'],[[1]],[[9.95080918e-05]],CC
395,[[2]],[[396]],[[18]],['high holistic'],['right'],['inverted'],['U0359.bmp'],['male'],[],['male'],[[1]],[[0.1283178]],CC
396,[[2]],[[397]],[[19]],['low holistic'],['left'],['inverted'],['U0361.bmp'],['female'],[],['female'],[[1]],[[2.06080306]],CC
397,[[2]],[[398]],[[13]],['high holistic'],['left'],['upright'],['U0181.bmp'],['female'],[],['female'],[[1]],[[0.00011674]],CC
398,[[2]],[[399]],[[6]],['high holistic'],['right'],['inverted'],['U0106.bmp'],['female'],[],['female'],[[1]],[[0.00014482]],CC
399,[[2]],[[400]],[[2]],['low holistic'],['right'],['upright'],['U0014.bmp'],['male'],[],['male'],[[1]],[[9.80459154e-05]],CC
400,[[2]],[[401]],[[17]],['low holistic'],['left'],['inverted'],['U0346.bmp'],['female'],[],['female'],[[1]],[[9.93553549e-05]],CC
401,[[2]],[[402]],[[12]],['high holistic'],['left'],['upright'],['U0178.bmp'],['male'],[],['male'],[[1]],[[0.12929342]],CC
402,[[2]],[[403]],[[19]],['high holistic'],['right'],['inverted'],['U0361.bmp'],['female'],[],['male'],[[0]],[[0.20383469]],CC
403,[[2]],[[404]],[[2]],['low holistic'],['left'],['inverted'],['U0014.bmp'],['male'],[],['male'],[[1]],[[0.17379735]],CC
404,[[2]],[[405]],[[12]],['low holistic'],['right'],['inverted'],['U0178.bmp'],['female'],[],['female'],[[1]],[[9.91104171e-05]],CC
405,[[2]],[[406]],[[6]],['high holistic'],['left'],['upright'],['U0106.bmp'],['female'],[],['female'],[[1]],[[9.98005271e-05]],CC
406,[[2]],[[407]],[[17]],['high holistic'],['right'],['upright'],['U0346.bmp'],['male'],[],['male'],[[1]],[[0.00016435]],CC
407,[[2]],[[408]],[[4]],['low holistic'],['right'],['inverted'],['U0061.bmp'],['female'],[],['male'],[[0]],[[0.0003361]],CC
408,[[2]],[[409]],[[9]],['low holistic'],['right'],['upright'],['U0155.bmp'],['male'],[],['male'],[[1]],[[5.00488207]],CC
409,[[2]],[[410]],[[8]],['high holistic'],['left'],['inverted'],['U0137.bmp'],['female'],[],['female'],[[1]],[[0.2515839]],CC
410,[[2]],[[411]],[[17]],['high holistic'],['left'],['inverted'],['U0346.bmp'],['male'],[],['female'],[[0]],[[4.64958976]],CC
411,[[2]],[[412]],[[14]],['high holistic'],['left'],['inverted'],['U0228.bmp'],['male'],[],['female'],[[0]],[[0.00052311]],CC
412,[[2]],[[413]],[[5]],['high holistic'],['right'],['upright'],['U0076.bmp'],['female'],[],['female'],[[1]],[[9.80338082e-05]],CC
413,[[2]],[[414]],[[7]],['low holistic'],['fovea'],['inverted'],['U0107.bmp'],['female'],[],['female'],[[1]],[[0.00010489]],CC
414,[[2]],[[415]],[[3]],['high holistic'],['left'],['inverted'],['U0020.bmp'],['male'],[],['female'],[[0]],[[0.00034496]],CC
415,[[2]],[[416]],[[14]],['high holistic'],['left'],['inverted'],['U0228.bmp'],['male'],[],['female'],[[0]],[[0.000107]],CC
416,[[2]],[[417]],[[12]],['low holistic'],['left'],['upright'],['U0178.bmp'],['female'],[],['female'],[[1]],[[0.00036272]],CC
417,[[2]],[[418]],[[4]],['low holistic'],['left'],['upright'],['U0061.bmp'],['female'],[],['female'],[[1]],[[3.31848027]],CC
418,[[2]],[[419]],[[3]],['high holistic'],['left'],['upright'],['U0020.bmp'],['male'],[],['female'],[[0]],[[0.00029827]],CC
419,[[2]],[[420]],[[10]],['low holistic'],['right'],['upright'],['U0159.bmp'],['female'],[],['female'],[[1]],[[0.00010009]],CC
420,[[2]],[[421]],[[19]],['low holistic'],['left'],['inverted'],['U0361.bmp'],['female'],[],['female'],[[1]],[[0.00032571]],CC
421,[[2]],[[422]],[[12]],['low holistic'],['right'],['upright'],['U0178.bmp'],['female'],[],['female'],[[1]],[[1.72347249]],CC
422,[[2]],[[423]],[[1]],['low holistic'],['right'],['upright'],['U0006.bmp'],['female'],[],['female'],[[1]],[[0.00019818]],CC
423,[[2]],[[424]],[[2]],['high holistic'],['left'],['inverted'],['U0014.bmp'],['male'],[],['male'],[[1]],[[0.05344125]],CC
424,[[2]],[[425]],[[17]],['low holistic'],['left'],['upright'],['U0346.bmp'],['female'],[],['female'],[[1]],[[0.05895677]],CC
425,[[2]],[[426]],[[10]],['low holistic'],['left'],['inverted'],['U0159.bmp'],['female'],[],['female'],[[1]],[[9.97213647e-05]],CC
426,[[2]],[[427]],[[8]],['high holistic'],['right'],['inverted'],['U0137.bmp'],['female'],[],['male'],[[0]],[[0.0489857]],CC
427,[[2]],[[428]],[[16]],['low holistic'],['left'],['inverted'],['U0335.bmp'],['female'],[],['female'],[[1]],[[0.0049388]],CC
428,[[2]],[[429]],[[8]],['high holistic'],['right'],['inverted'],['U0137.bmp'],['female'],[],['female'],[[1]],[[0.17270365]],CC
429,[[2]],[[430]],[[11]],['low holistic'],['left'],['upright'],['U0164.bmp'],['female'],[],['female'],[[1]],[[4.27115729]],CC
430,[[2]],[[431]],[[15]],['low holistic'],['left'],['inverted'],['U0312.bmp'],['male'],[],['female'],[[0]],[[9.87350941e-05]],CC
431,[[2]],[[432]],[[18]],['high holistic'],['right'],['inverted'],['U0359.bmp'],['male'],[],['male'],[[1]],[[0.15650257]],CC
432,[[2]],[[433]],[[7]],['high holistic'],['right'],['inverted'],['U0107.bmp'],['female'],[],['female'],[[1]],[[0.01337687]],CC
433,[[2]],[[434]],[[14]],['high holistic'],['left'],['upright'],['U0228.bmp'],['male'],[],['female'],[[0]],[[0.00010794]],CC
434,[[2]],[[435]],[[20]],['high holistic'],['left'],['inverted'],['U0362.bmp'],['female'],[],['male'],[[0]],[[0.00032312]],CC
435,[[2]],[[436]],[[2]],['high holistic'],['left'],['upright'],['U0014.bmp'],['male'],[],['male'],[[1]],[[3.89377759]],CC
436,[[2]],[[437]],[[12]],['high holistic'],['right'],['inverted'],['U0178.bmp'],['male'],[],['female'],[[0]],[[0.00018959]],CC
437,[[2]],[[438]],[[9]],['low holistic'],['right'],['inverted'],['U0155.bmp'],['male'],[],['female'],[[0]],[[0.00017713]],CC
438,[[2]],[[439]],[[7]],['high holistic'],['right'],['upright'],['U0107.bmp'],['female'],[],['male'],[[0]],[[0.07284058]],CC
439,[[2]],[[440]],[[6]],['high holistic'],['right'],['inverted'],['U0106.bmp'],['female'],[],['male'],[[0]],[[2.5484265]],CC
440,[[2]],[[441]],[[16]],['high holistic'],['right'],['upright'],['U0335.bmp'],['female'],[],['female'],[[1]],[[0.1672967]],CC
441,[[2]],[[442]],[[20]],['high holistic'],['right'],['inverted'],['U0362.bmp'],['female'],[],['female'],[[1]],[[0.00030428]],CC
442,[[2]],[[443]],[[4]],['low holistic'],['right'],['inverted'],['U0061.bmp'],['female'],[],['male'],[[0]],[[0.13664946]],CC
443,[[2]],[[444]],[[16]],['low holistic'],['fovea'],['upright'],['U0335.bmp'],['female'],[],['female'],[[1]],[[0.00010705]],CC
444,[[2]],[[445]],[[4]],['high holistic'],['right'],['upright'],['U0061.bmp'],['female'],[],['female'],[[1]],[[0.00010031]],CC
445,[[2]],[[446]],[[20]],['low holistic'],['right'],['upright'],['U0362.bmp'],['male'],[],['male'],[[1]],[[0.21892925]],CC
446,[[2]],[[447]],[[17]],['low holistic'],['left'],['inverted'],['U0346.bmp'],['female'],[],['male'],[[0]],[[0.00010679]],CC
447,[[2]],[[448]],[[9]],['low holistic'],['left'],['inverted'],['U0155.bmp'],['male'],[],['male'],[[1]],[[0.09820011]],CC
448,[[2]],[[449]],[[15]],['low holistic'],['right'],['upright'],['U0312.bmp'],['male'],[],['male'],[[1]],[[0.00019299]],CC
449,[[2]],[[450]],[[10]],['low holistic'],['right'],['upright'],['U0159.bmp'],['female'],[],['female'],[[1]],[[0.00023292]],CC
450,[[2]],[[451]],[[17]],['low holistic'],['right'],['inverted'],['U0346.bmp'],['female'],[],['female'],[[1]],[[0.05958775]],CC
451,[[2]],[[452]],[[8]],['low holistic'],['right'],['inverted'],['U0137.bmp'],['male'],[],['male'],[[1]],[[0.21800943]],CC
452,[[2]],[[453]],[[2]],['low holistic'],['left'],['upright'],['U0014.bmp'],['male'],[],['male'],[[1]],[[0.00036127]],CC
453,[[2]],[[454]],[[12]],['high holistic'],['right'],['inverted'],['U0178.bmp'],['male'],[],['female'],[[0]],[[0.00010636]],CC
454,[[2]],[[455]],[[19]],['low holistic'],['left'],['inverted'],['U0361.bmp'],['female'],[],['male'],[[0]],[[0.00926516]],CC
455,[[2]],[[456]],[[4]],['low holistic'],['left'],['inverted'],['U0061.bmp'],['female'],[],['female'],[[1]],[[3.39273755]],CC
456,[[2]],[[457]],[[9]],['high holistic'],['right'],['upright'],['U0155.bmp'],['female'],[],['female'],[[1]],[[0.00033415]],CC
457,[[2]],[[458]],[[15]],['low holistic'],['right'],['upright'],['U0312.bmp'],['male'],[],['male'],[[1]],[[0.00027046]],CC
458,[[2]],[[459]],[[1]],['high holistic'],['left'],['upright'],['U0006.bmp'],['female'],[],['female'],[[1]],[[0.11197917]],CC
459,[[2]],[[460]],[[19]],['high holistic'],['left'],['inverted'],['U0361.bmp'],['female'],[],['female'],[[1]],[[0.34730921]],CC
460,[[2]],[[461]],[[16]],['high holistic'],['right'],['upright'],['U0335.bmp'],['female'],[],['female'],[[1]],[[0.22996889]],CC
461,[[2]],[[462]],[[12]],['high holistic'],['right'],['upright'],['U0178.bmp'],['male'],[],['male'],[[1]],[[9.81390476e-05]],CC
462,[[2]],[[463]],[[4]],['low holistic'],['left'],['inverted'],['U0061.bmp'],['female'],[],['female'],[[1]],[[0.04325593]],CC
463,[[2]],[[464]],[[10]],['high holistic'],['right'],['upright'],['U0159.bmp'],['male'],[],['male'],[[1]],[[0.04151871]],CC
464,[[2]],[[465]],[[11]],['low holistic'],['right'],['inverted'],['U0164.bmp'],['female'],[],['female'],[[1]],[[0.01556829]],CC
465,[[2]],[[466]],[[20]],['low holistic'],['right'],['inverted'],['U0362.bmp'],['male'],[],['female'],[[0]],[[0.00010335]],CC
466,[[2]],[[467]],[[18]],['low holistic'],['right'],['inverted'],['U0359.bmp'],['male'],[],['male'],[[1]],[[0.80597417]],CC
467,[[2]],[[468]],[[20]],['low holistic'],['left'],['inverted'],['U0362.bmp'],['male'],[],['male'],[[1]],[[0.01304028]],CC
468,[[2]],[[469]],[[14]],['low holistic'],['left'],['upright'],['U0228.bmp'],['male'],[],['male'],[[1]],[[0.00035179]],CC
469,[[2]],[[470]],[[9]],['high holistic'],['left'],['inverted'],['U0155.bmp'],['female'],[],['male'],[[0]],[[9.97241586e-05]],CC
470,[[2]],[[471]],[[19]],['high holistic'],['right'],['inverted'],['U0361.bmp'],['female'],[],['male'],[[0]],[[2.44357223]],CC
471,[[2]],[[472]],[[10]],['low holistic'],['left'],['inverted'],['U0159.bmp'],['female'],[],['female'],[[1]],[[0.00011041]],CC
472,[[2]],[[473]],[[5]],['low holistic'],['left'],['inverted'],['U0076.bmp'],['male'],[],['male'],[[1]],[[0.05799307]],CC
473,[[2]],[[474]],[[8]],['low holistic'],['left'],['upright'],['U0137.bmp'],['male'],[],['male'],[[1]],[[0.12905706]],CC
474,[[2]],[[475]],[[15]],['low holistic'],['left'],['inverted'],['U0312.bmp'],['male'],[],['male'],[[1]],[[0.21127982]],CC
475,[[2]],[[476]],[[12]],['low holistic'],['left'],['upright'],['U0178.bmp'],['female'],[],['female'],[[1]],[[0.00010004]],CC
476,[[2]],[[477]],[[16]],['low holistic'],['left'],['inverted'],['U0335.bmp'],['female'],[],['female'],[[1]],[[0.09868106]],CC
477,[[2]],[[478]],[[20]],['high holistic'],['right'],['inverted'],['U0362.bmp'],['female'],[],['male'],[[0]],[[0.00010542]],CC
478,[[2]],[[479]],[[20]],['high holistic'],['left'],['upright'],['U0362.bmp'],['female'],[],['female'],[[1]],[[0.19111714]],CC
479,[[2]],[[480]],[[11]],['high holistic'],['right'],['inverted'],['U0164.bmp'],['female'],[],['male'],[[0]],[[0.04807384]],CC
480,[[2]],[[481]],[[20]],['high holistic'],['left'],['upright'],['U0362.bmp'],['female'],[],['female'],[[1]],[[0.00012208]],CC
481,[[2]],[[482]],[[3]],['low holistic'],['right'],['upright'],['U0020.bmp'],['female'],[],['female'],[[1]],[[0.00011717]],CC
482,[[2]],[[483]],[[2]],['high holistic'],['right'],['inverted'],['U0014.bmp'],['male'],[],['female'],[[0]],[[0.02062811]],CC
483,[[2]],[[484]],[[7]],['high holistic'],['right'],['upright'],['U0107.bmp'],['female'],[],['female'],[[1]],[[9.77022573e-05]],CC
484,[[2]],[[485]],[[12]],['low holistic'],['right'],['inverted'],['U0178.bmp'],['female'],[],['female'],[[1]],[[1.25287692]],CC
485,[[2]],[[486]],[[11]],['low holistic'],['left'],['inverted'],['U0164.bmp'],['female'],[],['female'],[[1]],[[0.00012779]],CC
486,[[2]],[[487]],[[19]],['low holistic'],['fovea'],['upright'],['U0361.bmp'],['female'],[],['female'],[[1]],[[2.12880143]],CC
487,[[2]],[[488]],[[11]],['low holistic'],['left'],['inverted'],['U0164.bmp'],['female'],[],['female'],[[1]],[[2.94759301]],CC
488,[[2]],[[489]],[[9]],['low holistic'],['right'],['inverted'],['U0155.bmp'],['male'],[],['male'],[[1]],[[0.24665688]],CC
489,[[2]],[[490]],[[11]],['low holistic'],['right'],['upright'],['U0164.bmp'],['female'],[],['female'],[[1]],[[3.18681535]],CC
490,[[2]],[[491]],[[15]],['low holistic'],['left'],['upright'],['U0312.bmp'],['male'],[],['male'],[[1]],[[0.00010902]],CC
491,[[2]],[[492]],[[1]],['low holistic'],['right'],['inverted'],['U0006.bmp'],['female'],[],['female'],[[1]],[[0.00029436]],CC
492,[[2]],[[493]],[[17]],['high holistic'],['left'],['upright'],['U0346.bmp'],['male'],[],['male'],[[1]],[[0.12331507]],CC
493,[[2]],[[494]],[[3]],['high holistic'],['right'],['upright'],['U0020.bmp'],['male'],[],['male'],[[1]],[[0.03962386]],CC
494,[[2]],[[495]],[[10]],['high holistic'],['left'],['inverted'],['U0159.bmp'],['male'],[],['male'],[[1]],[[0.00010842]],CC
495,[[2]],[[496]],[[6]],['high holistic'],['right'],['upright'],['U0106.bmp'],['female'],[],['female'],[[1]],[[0.1891051]],CC
496,[[2]],[[497]],[[8]],['low holistic'],['right'],['inverted'],['U0137.bmp'],['male'],[],['male'],[[1]],[[0.00417106]],CC
497,[[2]],[[498]],[[14]],['low holistic'],['right'],['inverted'],['U0228.bmp'],['male'],[],['male'],[[1]],[[0.00037874]],CC
498,[[2]],[[499]],[[4]],['low holistic'],['right'],['upright'],['U0061.bmp'],['female'],[],['female'],[[1]],[[0.00031879]],CC
499,[[2]],[[500]],[[6]],['low holistic'],['right'],['upright'],['U0106.bmp'],['male'],[],['male'],[[1]],[[0.05287767]],CC
500,[[2]],[[501]],[[4]],['low holistic'],['right'],['inverted'],['U0061.bmp'],['female'],[],['female'],[[1]],[[9.94503498e-05]],CC
501,[[2]],[[502]],[[4]],['high holistic'],['left'],['inverted'],['U0061.bmp'],['female'],[],['female'],[[1]],[[9.9580735e-05]],CC
502,[[2]],[[503]],[[7]],['high holistic'],['right'],['upright'],['U0107.bmp'],['female'],[],['female'],[[1]],[[0.00046631]],CC
503,[[2]],[[504]],[[18]],['low holistic'],['right'],['inverted'],['U0359.bmp'],['male'],[],['female'],[[0]],[[0.05027757]],CC
504,[[2]],[[505]],[[10]],['low holistic'],['fovea'],['inverted'],['U0159.bmp'],['female'],[],['female'],[[1]],[[9.90619883e-05]],CC
505,[[2]],[[506]],[[9]],['low holistic'],['right'],['inverted'],['U0155.bmp'],['male'],[],['male'],[[1]],[[9.93302092e-05]],CC
506,[[2]],[[507]],[[4]],['high holistic'],['left'],['upright'],['U0061.bmp'],['female'],[],['male'],[[0]],[[0.00010718]],CC
507,[[2]],[[508]],[[20]],['low holistic'],['left'],['upright'],['U0362.bmp'],['male'],[],['female'],[[0]],[[9.95295122e-05]],CC
508,[[2]],[[509]],[[9]],['high holistic'],['right'],['upright'],['U0155.bmp'],['female'],[],['female'],[[1]],[[0.19710285]],CC
509,[[2]],[[510]],[[17]],['low holistic'],['left'],['upright'],['U0346.bmp'],['female'],[],['female'],[[1]],[[0.00017121]],CC
510,[[2]],[[511]],[[13]],['low holistic'],['left'],['upright'],['U0181.bmp'],['male'],[],['male'],[[1]],[[0.00038972]],CC
511,[[2]],[[512]],[[8]],['high holistic'],['left'],['upright'],['U0137.bmp'],['female'],[],['male'],[[0]],[[0.00025623]],CC
512,[[2]],[[513]],[[18]],['high holistic'],['left'],['inverted'],['U0359.bmp'],['male'],[],['male'],[[1]],[[0.06934528]],CC
513,[[2]],[[514]],[[16]],['high holistic'],['right'],['inverted'],['U0335.bmp'],['female'],[],['male'],[[0]],[[0.11845834]],CC
514,[[2]],[[515]],[[10]],['low holistic'],['left'],['upright'],['U0159.bmp'],['female'],[],['female'],[[1]],[[0.00016136]],CC
515,[[2]],[[516]],[[17]],['high holistic'],['left'],['inverted'],['U0346.bmp'],['male'],[],['female'],[[0]],[[2.37943286]],CC
516,[[2]],[[517]],[[18]],['low holistic'],['left'],['inverted'],['U0359.bmp'],['male'],[],['female'],[[0]],[[0.06886267]],CC
517,[[2]],[[518]],[[9]],['high holistic'],['right'],['inverted'],['U0155.bmp'],['female'],[],['male'],[[0]],[[0.01785201]],CC
518,[[2]],[[519]],[[7]],['high holistic'],['left'],['inverted'],['U0107.bmp'],['female'],[],['female'],[[1]],[[0.06415539]],CC
519,[[2]],[[520]],[[12]],['low holistic'],['left'],['inverted'],['U0178.bmp'],['female'],[],['female'],[[1]],[[0.00010697]],CC
520,[[2]],[[521]],[[19]],['low holistic'],['fovea'],['upright'],['U0361.bmp'],['female'],[],['female'],[[1]],[[0.09860747]],CC
521,[[2]],[[522]],[[15]],['high holistic'],['right'],['upright'],['U0312.bmp'],['male'],[],['female'],[[0]],[[0.00038071]],CC
522,[[2]],[[523]],[[8]],['high holistic'],['right'],['upright'],['U0137.bmp'],['female'],[],['male'],[[0]],[[9.9520199e-05]],CC
523,[[2]],[[524]],[[15]],['high holistic'],['left'],['inverted'],['U0312.bmp'],['male'],[],['female'],[[0]],[[0.11628128]],CC
524,[[2]],[[525]],[[20]],['high holistic'],['left'],['inverted'],['U0362.bmp'],['female'],[],['female'],[[1]],[[0.07229457]],CC
525,[[2]],[[526]],[[11]],['low holistic'],['left'],['inverted'],['U0164.bmp'],['female'],[],['female'],[[1]],[[1.87739606]],CC
526,[[2]],[[527]],[[11]],['high holistic'],['right'],['upright'],['U0164.bmp'],['female'],[],['female'],[[1]],[[0.18602612]],CC
527,[[2]],[[528]],[[7]],['low holistic'],['left'],['upright'],['U0107.bmp'],['female'],[],['female'],[[1]],[[3.36170392]],CC
528,[[2]],[[529]],[[2]],['high holistic'],['left'],['inverted'],['U0014.bmp'],['male'],[],['female'],[[0]],[[0.10622975]],CC
529,[[2]],[[530]],[[4]],['low holistic'],['left'],['upright'],['U0061.bmp'],['female'],[],['female'],[[1]],[[0.00010739]],CC
530,[[2]],[[531]],[[2]],['low holistic'],['right'],['upright'],['U0014.bmp'],['male'],[],['male'],[[1]],[[0.11717411]],CC
531,[[2]],[[532]],[[10]],['high holistic'],['left'],['upright'],['U0159.bmp'],['male'],[],['male'],[[1]],[[0.12987724]],CC
532,[[2]],[[533]],[[1]],['low holistic'],['right'],['inverted'],['U0006.bmp'],['female'],[],['female'],[[1]],[[0.00010035]],CC
533,[[2]],[[534]],[[19]],['low holistic'],['right'],['inverted'],['U0361.bmp'],['female'],[],['female'],[[1]],[[9.9289231e-05]],CC
534,[[2]],[[535]],[[13]],['low holistic'],['right'],['inverted'],['U0181.bmp'],['male'],[],['female'],[[0]],[[9.97176394e-05]],CC
535,[[2]],[[536]],[[1]],['low holistic'],['left'],['inverted'],['U0006.bmp'],['female'],[],['female'],[[1]],[[0.00010443]],CC
536,[[2]],[[537]],[[1]],['high holistic'],['right'],['inverted'],['U0006.bmp'],['female'],[],['male'],[[0]],[[0.05101689]],CC
537,[[2]],[[538]],[[5]],['high holistic'],['left'],['inverted'],['U0076.bmp'],['female'],[],['female'],[[1]],[[0.21705996]],CC
538,[[2]],[[539]],[[10]],['low holistic'],['right'],['upright'],['U0159.bmp'],['female'],[],['female'],[[1]],[[6.02375574]],CC
539,[[2]],[[540]],[[3]],['low holistic'],['fovea'],['upright'],['U0020.bmp'],['female'],[],['female'],[[1]],[[2.94363457]],CC
540,[[2]],[[541]],[[1]],['high holistic'],['fovea'],['inverted'],['U0006.bmp'],['female'],[],['male'],[[0]],[[0.00062346]],CC
541,[[2]],[[542]],[[15]],['high holistic'],['right'],['upright'],['U0312.bmp'],['male'],[],['male'],[[1]],[[0.03154164]],CC
542,[[2]],[[543]],[[8]],['low holistic'],['fovea'],['upright'],['U0137.bmp'],['male'],[],['male'],[[1]],[[0.00010732]],CC
543,[[2]],[[544]],[[16]],['low holistic'],['fovea'],['inverted'],['U0335.bmp'],['female'],[],['female'],[[1]],[[0.05530029]],CC
544,[[2]],[[545]],[[9]],['low holistic'],['right'],['inverted'],['U0155.bmp'],['male'],[],['male'],[[1]],[[0.01242458]],CC
545,[[2]],[[546]],[[9]],['high holistic'],['fovea'],['upright'],['U0155.bmp'],['female'],[],['female'],[[1]],[[2.34849598]],CC
546,[[2]],[[547]],[[1]],['high holistic'],['left'],['inverted'],['U0006.bmp'],['female'],[],['male'],[[0]],[[0.06025897]],CC
547,[[2]],[[548]],[[1]],['low holistic'],['fovea'],['upright'],['U0006.bmp'],['female'],[],['female'],[[1]],[[3.39356804]],CC
548,[[2]],[[549]],[[2]],['low holistic'],['right'],['upright'],['U0014.bmp'],['male'],[],['male'],[[1]],[[9.96002927e-05]],CC
549,[[2]],[[550]],[[12]],['high holistic'],['left'],['inverted'],['U0178.bmp'],['male'],[],['female'],[[0]],[[0.05055183]],CC
550,[[2]],[[551]],[[5]],['low holistic'],['right'],['upright'],['U0076.bmp'],['male'],[],['male'],[[1]],[[0.07285741]],CC
551,[[2]],[[552]],[[17]],['high holistic'],['left'],['upright'],['U0346.bmp'],['male'],[],['male'],[[1]],[[0.00348196]],CC
552,[[2]],[[553]],[[18]],['low holistic'],['left'],['upright'],['U0359.bmp'],['male'],[],['male'],[[1]],[[0.00025247]],CC
553,[[2]],[[554]],[[20]],['high holistic'],['left'],['inverted'],['U0362.bmp'],['female'],[],['male'],[[0]],[[0.22689201]],CC
554,[[2]],[[555]],[[10]],['low holistic'],['right'],['upright'],['U0159.bmp'],['female'],[],['female'],[[1]],[[0.00010714]],CC
555,[[2]],[[556]],[[5]],['low holistic'],['right'],['upright'],['U0076.bmp'],['male'],[],['male'],[[1]],[[0.01794246]],CC
556,[[2]],[[557]],[[5]],['low holistic'],['right'],['upright'],['U0076.bmp'],['male'],[],['male'],[[1]],[[0.00016725]],CC
557,[[2]],[[558]],[[11]],['low holistic'],['right'],['upright'],['U0164.bmp'],['female'],[],['female'],[[1]],[[0.00010045]],CC
558,[[2]],[[559]],[[16]],['high holistic'],['left'],['inverted'],['U0335.bmp'],['female'],[],['male'],[[0]],[[0.03174932]],CC
559,[[2]],[[560]],[[7]],['high holistic'],['left'],['inverted'],['U0107.bmp'],['female'],[],['female'],[[1]],[[0.00021291]],CC
560,[[2]],[[561]],[[10]],['low holistic'],['left'],['upright'],['U0159.bmp'],['female'],[],['female'],[[1]],[[1.74975802]],CC
561,[[2]],[[562]],[[13]],['high holistic'],['left'],['upright'],['U0181.bmp'],['female'],[],['male'],[[0]],[[0.12893228]],CC
562,[[2]],[[563]],[[19]],['high holistic'],['right'],['upright'],['U0361.bmp'],['female'],[],['male'],[[0]],[[9.87993553e-05]],CC
563,[[2]],[[564]],[[4]],['low holistic'],['fovea'],['upright'],['U0061.bmp'],['female'],[],['female'],[[1]],[[2.72290879]],CC
564,[[2]],[[565]],[[15]],['low holistic'],['right'],['inverted'],['U0312.bmp'],['male'],[],['male'],[[1]],[[9.885896e-05]],CC
565,[[2]],[[566]],[[12]],['high holistic'],['left'],['upright'],['U0178.bmp'],['male'],[],['female'],[[0]],[[0.00039998]],CC
566,[[2]],[[567]],[[9]],['high holistic'],['left'],['inverted'],['U0155.bmp'],['female'],[],['female'],[[1]],[[9.90349799e-05]],CC
567,[[2]],[[568]],[[18]],['high holistic'],['left'],['inverted'],['U0359.bmp'],['male'],[],['male'],[[1]],[[2.31550269]],CC
568,[[2]],[[569]],[[8]],['low holistic'],['left'],['inverted'],['U0137.bmp'],['male'],[],['male'],[[1]],[[0.00014746]],CC
569,[[2]],[[570]],[[4]],['high holistic'],['left'],['upright'],['U0061.bmp'],['female'],[],['female'],[[1]],[[0.23056394]],CC
570,[[2]],[[571]],[[13]],['high holistic'],['left'],['upright'],['U0181.bmp'],['female'],[],['female'],[[1]],[[9.94391739e-05]],CC
571,[[2]],[[572]],[[13]],['low holistic'],['left'],['upright'],['U0181.bmp'],['male'],[],['male'],[[1]],[[0.00010177]],CC
572,[[2]],[[573]],[[7]],['high holistic'],['right'],['upright'],['U0107.bmp'],['female'],[],['female'],[[1]],[[0.00010071]],CC
573,[[2]],[[574]],[[17]],['high holistic'],['left'],['upright'],['U0346.bmp'],['male'],[],['male'],[[1]],[[9.97437164e-05]],CC
574,[[2]],[[575]],[[20]],['low holistic'],['fovea'],['inverted'],['U0362.bmp'],['male'],[],['male'],[[1]],[[0.00030943]],CC
575,[[2]],[[576]],[[20]],['low holistic'],['right'],['upright'],['U0362.bmp'],['male'],[],['male'],[[1]],[[0.00010669]],CC
576,[[2]],[[577]],[[3]],['high holistic'],['right'],['inverted'],['U0020.bmp'],['male'],[],['female'],[[0]],[[0.0983973]],CC
577,[[2]],[[578]],[[5]],['low holistic'],['left'],['upright'],['U0076.bmp'],['male'],[],['male'],[[1]],[[0.00047898]],CC
578,[[2]],[[579]],[[1]],['low holistic'],['left'],['upright'],['U0006.bmp'],['female'],[],['male'],[[0]],[[9.91104171e-05]],CC
579,[[2]],[[580]],[[13]],['high holistic'],['right'],['upright'],['U0181.bmp'],['female'],[],['female'],[[1]],[[0.30954789]],CC
580,[[2]],[[581]],[[3]],['low holistic'],['fovea'],['inverted'],['U0020.bmp'],['female'],[],['female'],[[1]],[[2.56868668]],CC
581,[[2]],[[582]],[[9]],['high holistic'],['fovea'],['inverted'],['U0155.bmp'],['female'],[],['female'],[[1]],[[0.08872309]],CC
582,[[2]],[[583]],[[18]],['high holistic'],['right'],['upright'],['U0359.bmp'],['male'],[],['male'],[[1]],[[0.01378967]],CC
583,[[2]],[[584]],[[11]],['high holistic'],['right'],['inverted'],['U0164.bmp'],['female'],[],['male'],[[0]],[[0.00010631]],CC
584,[[2]],[[585]],[[8]],['low holistic'],['left'],['inverted'],['U0137.bmp'],['male'],[],['male'],[[1]],[[0.00015579]],CC
585,[[2]],[[586]],[[5]],['high holistic'],['left'],['upright'],['U0076.bmp'],['female'],[],['female'],[[1]],[[0.00010316]],CC
586,[[2]],[[587]],[[9]],['low holistic'],['left'],['upright'],['U0155.bmp'],['male'],[],['male'],[[1]],[[0.00016408]],CC
587,[[2]],[[588]],[[20]],['low holistic'],['left'],['inverted'],['U0362.bmp'],['male'],[],['male'],[[1]],[[0.00027392]],CC
588,[[2]],[[589]],[[3]],['low holistic'],['right'],['upright'],['U0020.bmp'],['female'],[],['female'],[[1]],[[0.00010818]],CC
589,[[2]],[[590]],[[10]],['high holistic'],['right'],['upright'],['U0159.bmp'],['male'],[],['male'],[[1]],[[0.09197376]],CC
590,[[2]],[[591]],[[18]],['high holistic'],['left'],['upright'],['U0359.bmp'],['male'],[],['male'],[[1]],[[0.18225661]],CC
591,[[2]],[[592]],[[1]],['low holistic'],['left'],['inverted'],['U0006.bmp'],['female'],[],['female'],[[1]],[[0.04807621]],CC
592,[[2]],[[593]],[[14]],['low holistic'],['right'],['inverted'],['U0228.bmp'],['male'],[],['male'],[[1]],[[0.00011837]],CC
593,[[2]],[[594]],[[20]],['high holistic'],['left'],['inverted'],['U0362.bmp'],['female'],[],['female'],[[1]],[[0.30901677]],CC
594,[[2]],[[595]],[[6]],['high holistic'],['left'],['inverted'],['U0106.bmp'],['female'],[],['female'],[[1]],[[0.00010854]],CC
595,[[2]],[[596]],[[3]],['high holistic'],['left'],['upright'],['U0020.bmp'],['male'],[],['female'],[[0]],[[0.00017868]],CC
596,[[2]],[[597]],[[14]],['low holistic'],['right'],['inverted'],['U0228.bmp'],['male'],[],['male'],[[1]],[[9.87499952e-05]],CC
597,[[2]],[[598]],[[19]],['high holistic'],['right'],['inverted'],['U0361.bmp'],['female'],[],['male'],[[0]],[[0.05374824]],CC
598,[[2]],[[599]],[[13]],['low holistic'],['right'],['upright'],['U0181.bmp'],['male'],[],['male'],[[1]],[[9.69897956e-05]],CC
599,[[2]],[[600]],[[18]],['high holistic'],['left'],['inverted'],['U0359.bmp'],['male'],[],['female'],[[0]],[[2.32303504]],CC
600,[[2]],[[601]],[[4]],['low holistic'],['right'],['upright'],['U0061.bmp'],['female'],[],['female'],[[1]],[[0.05574352]],CC
601,[[2]],[[602]],[[16]],['high holistic'],['left'],['upright'],['U0335.bmp'],['female'],[],['female'],[[1]],[[0.00012383]],CC
602,[[2]],[[603]],[[7]],['low holistic'],['right'],['upright'],['U0107.bmp'],['female'],[],['female'],[[1]],[[2.3633381]],CC
603,[[2]],[[604]],[[9]],['low holistic'],['right'],['upright'],['U0155.bmp'],['male'],[],['male'],[[1]],[[0.26948467]],CC
604,[[2]],[[605]],[[4]],['low holistic'],['right'],['upright'],['U0061.bmp'],['female'],[],['female'],[[1]],[[0.00010239]],CC
605,[[2]],[[606]],[[17]],['high holistic'],['left'],['inverted'],['U0346.bmp'],['male'],[],['female'],[[0]],[[0.00034416]],CC
606,[[2]],[[607]],[[13]],['high holistic'],['right'],['inverted'],['U0181.bmp'],['female'],[],['female'],[[1]],[[3.80029736]],CC
607,[[2]],[[608]],[[15]],['high holistic'],['right'],['inverted'],['U0312.bmp'],['male'],[],['female'],[[0]],[[2.28841248]],CC
608,[[2]],[[609]],[[17]],['high holistic'],['right'],['inverted'],['U0346.bmp'],['male'],[],['female'],[[0]],[[0.00011416]],CC
609,[[2]],[[610]],[[2]],['high holistic'],['right'],['upright'],['U0014.bmp'],['male'],[],['male'],[[1]],[[0.00044876]],CC
610,[[2]],[[611]],[[20]],['low holistic'],['left'],['inverted'],['U0362.bmp'],['male'],[],['male'],[[1]],[[0.29179469]],CC
611,[[2]],[[612]],[[10]],['high holistic'],['left'],['upright'],['U0159.bmp'],['male'],[],['male'],[[1]],[[0.00019737]],CC
612,[[2]],[[613]],[[16]],['low holistic'],['right'],['upright'],['U0335.bmp'],['female'],[],['female'],[[1]],[[0.00015164]],CC
613,[[2]],[[614]],[[15]],['high holistic'],['left'],['upright'],['U0312.bmp'],['male'],[],['female'],[[0]],[[0.00017124]],CC
614,[[2]],[[615]],[[17]],['low holistic'],['right'],['upright'],['U0346.bmp'],['female'],[],['male'],[[0]],[[0.10198953]],CC
615,[[2]],[[616]],[[4]],['high holistic'],['right'],['upright'],['U0061.bmp'],['female'],[],['female'],[[1]],[[0.07091342]],CC
616,[[2]],[[617]],[[10]],['low holistic'],['right'],['upright'],['U0159.bmp'],['female'],[],['female'],[[1]],[[2.72451263]],CC
617,[[2]],[[618]],[[13]],['low holistic'],['left'],['inverted'],['U0181.bmp'],['male'],[],['female'],[[0]],[[0.00051111]],CC
618,[[2]],[[619]],[[19]],['low holistic'],['right'],['inverted'],['U0361.bmp'],['female'],[],['female'],[[1]],[[0.18195199]],CC
619,[[2]],[[620]],[[17]],['low holistic'],['left'],['upright'],['U0346.bmp'],['female'],[],['female'],[[1]],[[0.00010653]],CC
620,[[2]],[[621]],[[18]],['low holistic'],['left'],['upright'],['U0359.bmp'],['male'],[],['male'],[[1]],[[0.03946314]],CC
621,[[2]],[[622]],[[12]],['high holistic'],['left'],['upright'],['U0178.bmp'],['male'],[],['male'],[[1]],[[2.48441459]],CC
622,[[2]],[[623]],[[12]],['low holistic'],['right'],['upright'],['U0178.bmp'],['female'],[],['female'],[[1]],[[0.00010535]],CC
623,[[2]],[[624]],[[18]],['low holistic'],['left'],['upright'],['U0359.bmp'],['male'],[],['male'],[[1]],[[0.00021191]],CC
624,[[2]],[[625]],[[1]],['high holistic'],['left'],['inverted'],['U0006.bmp'],['female'],[],['male'],[[0]],[[0.0725668]],CC
625,[[2]],[[626]],[[18]],['low holistic'],['left'],['upright'],['U0359.bmp'],['male'],[],['male'],[[1]],[[0.00010711]],CC
626,[[2]],[[627]],[[9]],['high holistic'],['right'],['inverted'],['U0155.bmp'],['female'],[],['male'],[[0]],[[0.15563923]],CC
627,[[2]],[[628]],[[1]],['high holistic'],['fovea'],['upright'],['U0006.bmp'],['female'],[],['male'],[[0]],[[0.00018784]],CC
628,[[2]],[[629]],[[15]],['low holistic'],['right'],['inverted'],['U0312.bmp'],['male'],[],['male'],[[1]],[[0.00010132]],CC
629,[[2]],[[630]],[[4]],['high holistic'],['left'],['upright'],['U0061.bmp'],['female'],[],['female'],[[1]],[[2.10159509]],CC
630,[[2]],[[631]],[[3]],['high holistic'],['left'],['inverted'],['U0020.bmp'],['male'],[],['female'],[[0]],[[0.00010668]],CC
631,[[2]],[[632]],[[13]],['high holistic'],['left'],['upright'],['U0181.bmp'],['female'],[],['female'],[[1]],[[0.00723039]],CC
632,[[2]],[[633]],[[6]],['high holistic'],['left'],['upright'],['U0106.bmp'],['female'],[],['female'],[[1]],[[0.01560627]],CC
633,[[2]],[[634]],[[7]],['high holistic'],['right'],['upright'],['U0107.bmp'],['female'],[],['male'],[[0]],[[0.00018515]],CC
634,[[2]],[[635]],[[9]],['low holistic'],['left'],['upright'],['U0155.bmp'],['male'],[],['female'],[[0]],[[0.00010558]],CC
635,[[2]],[[636]],[[9]],['low holistic'],['left'],['inverted'],['U0155.bmp'],['male'],[],['female'],[[0]],[[0.35852194]],CC
636,[[2]],[[637]],[[8]],['low holistic'],['fovea'],['upright'],['U0137.bmp'],['male'],[],['male'],[[1]],[[0.41533529]],CC
637,[[2]],[[638]],[[13]],['low holistic'],['right'],['inverted'],['U0181.bmp'],['male'],[],['male'],[[1]],[[0.00052123]],CC
638,[[2]],[[639]],[[4]],['high holistic'],['right'],['upright'],['U0061.bmp'],['female'],[],['female'],[[1]],[[0.00047058]],CC
639,[[2]],[[640]],[[4]],['high holistic'],['left'],['upright'],['U0061.bmp'],['female'],[],['female'],[[1]],[[0.00549106]],CC
640,[[2]],[[641]],[[2]],['high holistic'],['fovea'],['inverted'],['U0014.bmp'],['male'],[],['male'],[[1]],[[0.06855512]],CC
641,[[2]],[[642]],[[7]],['high holistic'],['right'],['upright'],['U0107.bmp'],['female'],[],['female'],[[1]],[[0.1218738]],CC
642,[[2]],[[643]],[[16]],['low holistic'],['left'],['inverted'],['U0335.bmp'],['female'],[],['female'],[[1]],[[0.0840572]],CC
643,[[2]],[[644]],[[5]],['high holistic'],['left'],['upright'],['U0076.bmp'],['female'],[],['female'],[[1]],[[9.86196101e-05]],CC
644,[[2]],[[645]],[[15]],['low holistic'],['left'],['upright'],['U0312.bmp'],['male'],[],['male'],[[1]],[[0.00016239]],CC
645,[[2]],[[646]],[[14]],['low holistic'],['left'],['upright'],['U0228.bmp'],['male'],[],['male'],[[1]],[[0.00010946]],CC
646,[[2]],[[647]],[[17]],['low holistic'],['left'],['upright'],['U0346.bmp'],['female'],[],['female'],[[1]],[[0.10324837]],CC
647,[[2]],[[648]],[[17]],['high holistic'],['right'],['upright'],['U0346.bmp'],['male'],[],['male'],[[1]],[[0.00010507]],CC
648,[[2]],[[649]],[[6]],['high holistic'],['fovea'],['inverted'],['U0106.bmp'],['female'],[],['female'],[[1]],[[0.00016234]],CC
649,[[2]],[[650]],[[7]],['high holistic'],['left'],['upright'],['U0107.bmp'],['female'],[],['female'],[[1]],[[0.12134791]],CC
650,[[2]],[[651]],[[11]],['high holistic'],['left'],['upright'],['U0164.bmp'],['female'],[],['female'],[[1]],[[0.19075349]],CC
651,[[2]],[[652]],[[7]],['low holistic'],['right'],['inverted'],['U0107.bmp'],['female'],[],['female'],[[1]],[[0.00016993]],CC
652,[[2]],[[653]],[[17]],['low holistic'],['left'],['inverted'],['U0346.bmp'],['female'],[],['female'],[[1]],[[2.39943195]],CC
653,[[2]],[[654]],[[17]],['low holistic'],['left'],['inverted'],['U0346.bmp'],['female'],[],['female'],[[1]],[[9.98452306e-05]],CC
654,[[2]],[[655]],[[12]],['high holistic'],['right'],['inverted'],['U0178.bmp'],['male'],[],['male'],[[1]],[[0.00012114]],CC
655,[[2]],[[656]],[[6]],['low holistic'],['fovea'],['inverted'],['U0106.bmp'],['male'],[],['male'],[[1]],[[0.00047271]],CC
656,[[2]],[[657]],[[14]],['high holistic'],['right'],['upright'],['U0228.bmp'],['male'],[],['male'],[[1]],[[9.97884199e-05]],CC
657,[[2]],[[658]],[[5]],['high holistic'],['left'],['upright'],['U0076.bmp'],['female'],[],['female'],[[1]],[[0.00046733]],CC
658,[[2]],[[659]],[[10]],['high holistic'],['left'],['upright'],['U0159.bmp'],['male'],[],['male'],[[1]],[[0.00014082]],CC
659,[[2]],[[660]],[[8]],['low holistic'],['right'],['inverted'],['U0137.bmp'],['male'],[],['male'],[[1]],[[0.00010584]],CC
660,[[2]],[[661]],[[11]],['high holistic'],['left'],['upright'],['U0164.bmp'],['female'],[],['female'],[[1]],[[0.00010333]],CC
661,[[2]],[[662]],[[20]],['low holistic'],['right'],['inverted'],['U0362.bmp'],['male'],[],['male'],[[1]],[[0.00020097]],CC
662,[[2]],[[663]],[[16]],['high holistic'],['right'],['upright'],['U0335.bmp'],['female'],[],['male'],[[0]],[[0.00010697]],CC
663,[[2]],[[664]],[[20]],['high holistic'],['right'],['inverted'],['U0362.bmp'],['female'],[],['female'],[[1]],[[0.09196458]],CC
664,[[2]],[[665]],[[5]],['low holistic'],['left'],['upright'],['U0076.bmp'],['male'],[],['male'],[[1]],[[0.0001002]],CC
665,[[2]],[[666]],[[11]],['high holistic'],['left'],['inverted'],['U0164.bmp'],['female'],[],['male'],[[0]],[[0.00012694]],CC
666,[[2]],[[667]],[[2]],['low holistic'],['right'],['upright'],['U0014.bmp'],['male'],[],['male'],[[1]],[[0.00021511]],CC
667,[[2]],[[668]],[[16]],['high holistic'],['left'],['upright'],['U0335.bmp'],['female'],[],['female'],[[1]],[[0.14301006]],CC
668,[[2]],[[669]],[[13]],['low holistic'],['left'],['upright'],['U0181.bmp'],['male'],[],['female'],[[0]],[[9.8564662e-05]],CC
669,[[2]],[[670]],[[18]],['high holistic'],['left'],['upright'],['U0359.bmp'],['male'],[],['male'],[[1]],[[2.08053944]],CC
670,[[2]],[[671]],[[20]],['low holistic'],['left'],['inverted'],['U0362.bmp'],['male'],[],['male'],[[1]],[[0.000344]],CC
671,[[2]],[[672]],[[19]],['high holistic'],['left'],['upright'],['U0361.bmp'],['female'],[],['male'],[[0]],[[0.00050406]],CC
672,[[2]],[[673]],[[9]],['high holistic'],['right'],['inverted'],['U0155.bmp'],['female'],[],['female'],[[1]],[[0.00015771]],CC
673,[[2]],[[674]],[[1]],['low holistic'],['left'],['upright'],['U0006.bmp'],['female'],[],['female'],[[1]],[[0.00060042]],CC
674,[[2]],[[675]],[[11]],['high holistic'],['left'],['inverted'],['U0164.bmp'],['female'],[],['female'],[[1]],[[0.0904572]],CC
675,[[2]],[[676]],[[5]],['low holistic'],['left'],['upright'],['U0076.bmp'],['male'],[],['female'],[[0]],[[0.00016088]],CC
676,[[2]],[[677]],[[5]],['high holistic'],['right'],['inverted'],['U0076.bmp'],['female'],[],['male'],[[0]],[[0.00021001]],CC
677,[[2]],[[678]],[[7]],['low holistic'],['fovea'],['upright'],['U0107.bmp'],['female'],[],['female'],[[1]],[[9.92100686e-05]],CC
678,[[2]],[[679]],[[2]],['low holistic'],['right'],['upright'],['U0014.bmp'],['male'],[],['male'],[[1]],[[0.20859248]],CC
679,[[2]],[[680]],[[15]],['low holistic'],['left'],['upright'],['U0312.bmp'],['male'],[],['male'],[[1]],[[9.92584974e-05]],CC
680,[[2]],[[681]],[[15]],['low holistic'],['right'],['inverted'],['U0312.bmp'],['male'],[],['male'],[[1]],[[0.00010074]],CC
681,[[2]],[[682]],[[11]],['high holistic'],['right'],['upright'],['U0164.bmp'],['female'],[],['female'],[[1]],[[0.00166646]],CC
682,[[2]],[[683]],[[7]],['low holistic'],['right'],['inverted'],['U0107.bmp'],['female'],[],['male'],[[0]],[[0.01632015]],CC
683,[[2]],[[684]],[[17]],['low holistic'],['left'],['upright'],['U0346.bmp'],['female'],[],['male'],[[0]],[[0.0001126]],CC
684,[[2]],[[685]],[[12]],['high holistic'],['left'],['inverted'],['U0178.bmp'],['male'],[],['female'],[[0]],[[0.09908615]],CC
685,[[2]],[[686]],[[20]],['high holistic'],['right'],['upright'],['U0362.bmp'],['female'],[],['female'],[[1]],[[0.041325]],CC
686,[[2]],[[687]],[[18]],['low holistic'],['right'],['upright'],['U0359.bmp'],['male'],[],['male'],[[1]],[[0.18628221]],CC
687,[[2]],[[688]],[[8]],['high holistic'],['left'],['inverted'],['U0137.bmp'],['female'],[],['male'],[[0]],[[0.29347218]],CC
688,[[2]],[[689]],[[11]],['high holistic'],['left'],['inverted'],['U0164.bmp'],['female'],[],['female'],[[1]],[[0.04468853]],CC
689,[[2]],[[690]],[[7]],['low holistic'],['right'],['upright'],['U0107.bmp'],['female'],[],['female'],[[1]],[[0.00010232]],CC
690,[[2]],[[691]],[[13]],['high holistic'],['left'],['upright'],['U0181.bmp'],['female'],[],['female'],[[1]],[[0.00015161]],CC
691,[[2]],[[692]],[[16]],['high holistic'],['right'],['inverted'],['U0335.bmp'],['female'],[],['male'],[[0]],[[0.01779196]],CC
692,[[2]],[[693]],[[15]],['low holistic'],['left'],['upright'],['U0312.bmp'],['male'],[],['male'],[[1]],[[0.14487279]],CC
693,[[2]],[[694]],[[3]],['low holistic'],['right'],['inverted'],['U0020.bmp'],['female'],[],['female'],[[1]],[[0.19196809]],CC
694,[[2]],[[695]],[[17]],['low holistic'],['right'],['inverted'],['U0346.bmp'],['female'],[],['female'],[[1]],[[0.00011243]],CC
695,[[2]],[[696]],[[1]],['high holistic'],['fovea'],['inverted'],['U0006.bmp'],['female'],[],['male'],[[0]],[[0.00012179]],CC
696,[[2]],[[697]],[[9]],['high holistic'],['right'],['upright'],['U0155.bmp'],['female'],[],['male'],[[0]],[[0.14639263]],CC
697,[[2]],[[698]],[[15]],['high holistic'],['fovea'],['inverted'],['U0312.bmp'],['male'],[],['female'],[[0]],[[0.12454483]],CC
698,[[2]],[[699]],[[16]],['low holistic'],['right'],['upright'],['U0335.bmp'],['female'],[],['female'],[[1]],[[0.00652053]],CC
699,[[2]],[[700]],[[8]],['high holistic'],['right'],['inverted'],['U0137.bmp'],['female'],[],['female'],[[1]],[[0.11763528]],CC
700,[[2]],[[701]],[[15]],['low holistic'],['left'],['upright'],['U0312.bmp'],['male'],[],['male'],[[1]],[[0.04243243]],CC
701,[[2]],[[702]],[[18]],['high holistic'],['left'],['inverted'],['U0359.bmp'],['male'],[],['female'],[[0]],[[0.13351293]],CC
702,[[2]],[[703]],[[5]],['low holistic'],['left'],['inverted'],['U0076.bmp'],['male'],[],['male'],[[1]],[[0.05686099]],CC
703,[[2]],[[704]],[[3]],['low holistic'],['left'],['upright'],['U0020.bmp'],['female'],[],['female'],[[1]],[[0.00010689]],CC
704,[[2]],[[705]],[[5]],['low holistic'],['left'],['upright'],['U0076.bmp'],['male'],[],['male'],[[1]],[[0.00070983]],CC
705,[[2]],[[706]],[[8]],['low holistic'],['left'],['inverted'],['U0137.bmp'],['male'],[],['male'],[[1]],[[0.00058393]],CC
706,[[2]],[[707]],[[6]],['high holistic'],['left'],['inverted'],['U0106.bmp'],['female'],[],['male'],[[0]],[[0.00018032]],CC
707,[[2]],[[708]],[[19]],['low holistic'],['right'],['upright'],['U0361.bmp'],['female'],[],['female'],[[1]],[[0.04628719]],CC
708,[[2]],[[709]],[[2]],['high holistic'],['left'],['upright'],['U0014.bmp'],['male'],[],['male'],[[1]],[[0.00010676]],CC
709,[[2]],[[710]],[[12]],['high holistic'],['fovea'],['upright'],['U0178.bmp'],['male'],[],['female'],[[0]],[[0.00019673]],CC
710,[[2]],[[711]],[[4]],['high holistic'],['left'],['upright'],['U0061.bmp'],['female'],[],['female'],[[1]],[[9.96319577e-05]],CC
711,[[2]],[[712]],[[17]],['high holistic'],['right'],['upright'],['U0346.bmp'],['male'],[],['male'],[[1]],[[0.00010732]],CC
712,[[2]],[[713]],[[4]],['low holistic'],['fovea'],['upright'],['U0061.bmp'],['female'],[],['female'],[[1]],[[3.01987329]],CC
713,[[2]],[[714]],[[11]],['low holistic'],['left'],['inverted'],['U0164.bmp'],['female'],[],['female'],[[1]],[[0.28113141]],CC
714,[[2]],[[715]],[[20]],['low holistic'],['left'],['inverted'],['U0362.bmp'],['male'],[],['male'],[[1]],[[0.02342881]],CC
715,[[2]],[[716]],[[8]],['high holistic'],['right'],['inverted'],['U0137.bmp'],['female'],[],['male'],[[0]],[[0.0283525]],CC
716,[[2]],[[717]],[[1]],['high holistic'],['right'],['upright'],['U0006.bmp'],['female'],[],['female'],[[1]],[[0.04433075]],CC
717,[[2]],[[718]],[[5]],['high holistic'],['right'],['upright'],['U0076.bmp'],['female'],[],['female'],[[1]],[[2.5790825]],CC
718,[[2]],[[719]],[[8]],['high holistic'],['left'],['upright'],['U0137.bmp'],['female'],[],['female'],[[1]],[[0.0001742]],CC
719,[[2]],[[720]],[[7]],['high holistic'],['left'],['inverted'],['U0107.bmp'],['female'],[],['female'],[[1]],[[0.18680259]],CC
720,[[2]],[[721]],[[5]],['low holistic'],['right'],['inverted'],['U0076.bmp'],['male'],[],['female'],[[0]],[[0.12270329]],CC
721,[[2]],[[722]],[[19]],['low holistic'],['left'],['inverted'],['U0361.bmp'],['female'],[],['female'],[[1]],[[2.67751059]],CC
722,[[2]],[[723]],[[14]],['low holistic'],['left'],['upright'],['U0228.bmp'],['male'],[],['male'],[[1]],[[0.0652404]],CC
723,[[2]],[[724]],[[20]],['high holistic'],['left'],['inverted'],['U0362.bmp'],['female'],[],['male'],[[0]],[[0.00014051]],CC
724,[[2]],[[725]],[[9]],['high holistic'],['right'],['inverted'],['U0155.bmp'],['female'],[],['female'],[[1]],[[0.19770504]],CC
725,[[2]],[[726]],[[19]],['low holistic'],['right'],['inverted'],['U0361.bmp'],['female'],[],['female'],[[1]],[[9.97837633e-05]],CC
726,[[2]],[[727]],[[1]],['high holistic'],['left'],['inverted'],['U0006.bmp'],['female'],[],['female'],[[1]],[[0.07826907]],CC
727,[[2]],[[728]],[[13]],['high holistic'],['left'],['inverted'],['U0181.bmp'],['female'],[],['female'],[[1]],[[0.0026075]],CC
728,[[2]],[[729]],[[17]],['high holistic'],['right'],['inverted'],['U0346.bmp'],['male'],[],['female'],[[0]],[[1.85054266]],CC
729,[[2]],[[730]],[[5]],['low holistic'],['left'],['inverted'],['U0076.bmp'],['male'],[],['male'],[[1]],[[0.0001011]],CC
730,[[2]],[[731]],[[19]],['low holistic'],['left'],['upright'],['U0361.bmp'],['female'],[],['female'],[[1]],[[0.11138736]],CC
731,[[2]],[[732]],[[16]],['low holistic'],['left'],['inverted'],['U0335.bmp'],['female'],[],['female'],[[1]],[[0.00010815]],CC
732,[[2]],[[733]],[[17]],['low holistic'],['right'],['upright'],['U0346.bmp'],['female'],[],['female'],[[1]],[[0.00039238]],CC
733,[[2]],[[734]],[[12]],['high holistic'],['right'],['inverted'],['U0178.bmp'],['male'],[],['female'],[[0]],[[0.00026187]],CC
734,[[2]],[[735]],[[16]],['high holistic'],['fovea'],['inverted'],['U0335.bmp'],['female'],[],['female'],[[1]],[[0.00010833]],CC
735,[[2]],[[736]],[[7]],['high holistic'],['right'],['upright'],['U0107.bmp'],['female'],[],['female'],[[1]],[[0.04162619]],CC
736,[[2]],[[737]],[[5]],['high holistic'],['right'],['upright'],['U0076.bmp'],['female'],[],['female'],[[1]],[[0.00045905]],CC
737,[[2]],[[738]],[[7]],['low holistic'],['right'],['inverted'],['U0107.bmp'],['female'],[],['female'],[[1]],[[0.00615795]],CC
738,[[2]],[[739]],[[12]],['high holistic'],['right'],['inverted'],['U0178.bmp'],['male'],[],['female'],[[0]],[[1.4212681]],CC
739,[[2]],[[740]],[[17]],['low holistic'],['left'],['upright'],['U0346.bmp'],['female'],[],['female'],[[1]],[[0.08555146]],CC
740,[[2]],[[741]],[[6]],['high holistic'],['right'],['upright'],['U0106.bmp'],['female'],[],['female'],[[1]],[[0.16773817]],CC
741,[[2]],[[742]],[[9]],['low holistic'],['right'],['inverted'],['U0155.bmp'],['male'],[],['male'],[[1]],[[0.1451964]],CC
742,[[2]],[[743]],[[18]],['low holistic'],['right'],['upright'],['U0359.bmp'],['male'],[],['male'],[[1]],[[0.01875154]],CC
743,[[2]],[[744]],[[13]],['high holistic'],['left'],['upright'],['U0181.bmp'],['female'],[],['female'],[[1]],[[0.08146066]],CC
744,[[2]],[[745]],[[20]],['low holistic'],['left'],['inverted'],['U0362.bmp'],['male'],[],['male'],[[1]],[[0.10317911]],CC
745,[[2]],[[746]],[[5]],['low holistic'],['fovea'],['inverted'],['U0076.bmp'],['male'],[],['male'],[[1]],[[0.00032859]],CC
746,[[2]],[[747]],[[17]],['high holistic'],['left'],['upright'],['U0346.bmp'],['male'],[],['male'],[[1]],[[9.95378941e-05]],CC
747,[[2]],[[748]],[[14]],['high holistic'],['right'],['upright'],['U0228.bmp'],['male'],[],['male'],[[1]],[[0.0005234]],CC
748,[[2]],[[749]],[[5]],['low holistic'],['left'],['upright'],['U0076.bmp'],['male'],[],['male'],[[1]],[[0.33001119]],CC
749,[[2]],[[750]],[[10]],['low holistic'],['left'],['upright'],['U0159.bmp'],['female'],[],['male'],[[0]],[[9.9979341e-05]],CC
750,[[2]],[[751]],[[8]],['low holistic'],['left'],['upright'],['U0137.bmp'],['male'],[],['male'],[[1]],[[0.0497828]],CC
751,[[2]],[[752]],[[12]],['low holistic'],['left'],['inverted'],['U0178.bmp'],['female'],[],['female'],[[1]],[[6.60094939]],CC
752,[[2]],[[753]],[[17]],['low holistic'],['left'],['upright'],['U0346.bmp'],['female'],[],['female'],[[1]],[[9.99672338e-05]],CC
753,[[2]],[[754]],[[3]],['low holistic'],['right'],['upright'],['U0020.bmp'],['female'],[],['female'],[[1]],[[1.52086549]],CC
754,[[2]],[[755]],[[17]],['high holistic'],['right'],['inverted'],['U0346.bmp'],['male'],[],['male'],[[1]],[[0.00036378]],CC
755,[[2]],[[756]],[[17]],['low holistic'],['right'],['inverted'],['U0346.bmp'],['female'],[],['male'],[[0]],[[0.00010016]],CC
756,[[2]],[[757]],[[8]],['low holistic'],['right'],['inverted'],['U0137.bmp'],['male'],[],['male'],[[1]],[[0.00010052]],CC
757,[[2]],[[758]],[[9]],['low holistic'],['right'],['upright'],['U0155.bmp'],['male'],[],['male'],[[1]],[[0.00010072]],CC
758,[[2]],[[759]],[[12]],['high holistic'],['right'],['upright'],['U0178.bmp'],['male'],[],['male'],[[1]],[[9.9898316e-05]],CC
759,[[2]],[[760]],[[15]],['high holistic'],['right'],['upright'],['U0312.bmp'],['male'],[],['male'],[[1]],[[0.01727609]],CC
760,[[2]],[[761]],[[15]],['low holistic'],['left'],['upright'],['U0312.bmp'],['male'],[],['male'],[[1]],[[0.00010024]],CC
761,[[2]],[[762]],[[16]],['low holistic'],['left'],['upright'],['U0335.bmp'],['female'],[],['female'],[[1]],[[0.23185646]],CC
762,[[2]],[[763]],[[8]],['low holistic'],['left'],['inverted'],['U0137.bmp'],['male'],[],['male'],[[1]],[[0.01306827]],CC
763,[[2]],[[764]],[[9]],['high holistic'],['left'],['upright'],['U0155.bmp'],['female'],[],['male'],[[0]],[[0.18868658]],CC
764,[[2]],[[765]],[[20]],['low holistic'],['left'],['upright'],['U0362.bmp'],['male'],[],['male'],[[1]],[[0.00010631]],CC
765,[[2]],[[766]],[[12]],['low holistic'],['left'],['inverted'],['U0178.bmp'],['female'],[],['female'],[[1]],[[0.00010151]],CC
766,[[2]],[[767]],[[17]],['low holistic'],['right'],['upright'],['U0346.bmp'],['female'],[],['female'],[[1]],[[9.97995958e-05]],CC
767,[[2]],[[768]],[[6]],['low holistic'],['left'],['inverted'],['U0106.bmp'],['male'],[],['male'],[[1]],[[0.04526804]],CC
768,[[2]],[[769]],[[13]],['low holistic'],['left'],['inverted'],['U0181.bmp'],['male'],[],['male'],[[1]],[[0.04344285]],CC
769,[[2]],[[770]],[[12]],['low holistic'],['right'],['upright'],['U0178.bmp'],['female'],[],['female'],[[1]],[[2.20843942]],CC
770,[[2]],[[771]],[[20]],['high holistic'],['left'],['upright'],['U0362.bmp'],['female'],[],['female'],[[1]],[[0.01692358]],CC
771,[[2]],[[772]],[[2]],['high holistic'],['right'],['inverted'],['U0014.bmp'],['male'],[],['female'],[[0]],[[0.00010093]],CC
772,[[2]],[[773]],[[11]],['high holistic'],['left'],['inverted'],['U0164.bmp'],['female'],[],['male'],[[0]],[[0.00010209]],CC
773,[[2]],[[774]],[[11]],['low holistic'],['left'],['inverted'],['U0164.bmp'],['female'],[],['female'],[[1]],[[0.00036707]],CC
774,[[2]],[[775]],[[2]],['high holistic'],['right'],['inverted'],['U0014.bmp'],['male'],[],['female'],[[0]],[[0.10064136]],CC
775,[[2]],[[776]],[[19]],['low holistic'],['right'],['upright'],['U0361.bmp'],['female'],[],['female'],[[1]],[[4.41048759]],CC
776,[[2]],[[777]],[[18]],['high holistic'],['right'],['upright'],['U0359.bmp'],['male'],[],['female'],[[0]],[[0.00010004]],CC
777,[[2]],[[778]],[[9]],['low holistic'],['right'],['upright'],['U0155.bmp'],['male'],[],['male'],[[1]],[[2.55194006]],CC
778,[[2]],[[779]],[[16]],['low holistic'],['right'],['inverted'],['U0335.bmp'],['female'],[],['male'],[[0]],[[0.33780415]],CC
779,[[2]],[[780]],[[3]],['high holistic'],['left'],['upright'],['U0020.bmp'],['male'],[],['female'],[[0]],[[0.00010708]],CC
780,[[2]],[[781]],[[13]],['high holistic'],['right'],['inverted'],['U0181.bmp'],['female'],[],['male'],[[0]],[[0.21886946]],CC
781,[[2]],[[782]],[[6]],['high holistic'],['left'],['inverted'],['U0106.bmp'],['female'],[],['female'],[[1]],[[0.00010019]],CC
782,[[2]],[[783]],[[9]],['low holistic'],['right'],['inverted'],['U0155.bmp'],['male'],[],['male'],[[1]],[[0.11463401]],CC
783,[[2]],[[784]],[[17]],['low holistic'],['right'],['upright'],['U0346.bmp'],['female'],[],['female'],[[1]],[[0.00011138]],CC
784,[[2]],[[785]],[[4]],['low holistic'],['right'],['upright'],['U0061.bmp'],['female'],[],['female'],[[1]],[[2.10205809]],CC
785,[[2]],[[786]],[[7]],['high holistic'],['right'],['inverted'],['U0107.bmp'],['female'],[],['female'],[[1]],[[0.03149509]],CC
786,[[2]],[[787]],[[10]],['high holistic'],['left'],['inverted'],['U0159.bmp'],['male'],[],['male'],[[1]],[[0.00010075]],CC
787,[[2]],[[788]],[[7]],['high holistic'],['left'],['upright'],['U0107.bmp'],['female'],[],['female'],[[1]],[[0.14327083]],CC
788,[[2]],[[789]],[[16]],['low holistic'],['right'],['upright'],['U0335.bmp'],['female'],[],['female'],[[1]],[[0.02307536]],CC
789,[[2]],[[790]],[[20]],['low holistic'],['left'],['upright'],['U0362.bmp'],['male'],[],['male'],[[1]],[[0.00010074]],CC
790,[[2]],[[791]],[[4]],['low holistic'],['right'],['upright'],['U0061.bmp'],['female'],[],['female'],[[1]],[[0.30171322]],CC
791,[[2]],[[792]],[[5]],['low holistic'],['left'],['upright'],['U0076.bmp'],['male'],[],['male'],[[1]],[[9.92547721e-05]],CC
792,[[2]],[[793]],[[15]],['high holistic'],['right'],['upright'],['U0312.bmp'],['male'],[],['male'],[[1]],[[0.00016252]],CC
793,[[2]],[[794]],[[8]],['low holistic'],['right'],['inverted'],['U0137.bmp'],['male'],[],['male'],[[1]],[[9.93432477e-05]],CC
794,[[2]],[[795]],[[20]],['low holistic'],['right'],['upright'],['U0362.bmp'],['male'],[],['male'],[[1]],[[9.85516235e-05]],CC
795,[[2]],[[796]],[[20]],['low holistic'],['right'],['inverted'],['U0362.bmp'],['male'],[],['male'],[[1]],[[0.00010766]],CC
796,[[2]],[[797]],[[13]],['high holistic'],['left'],['upright'],['U0181.bmp'],['female'],[],['female'],[[1]],[[0.00020364]],CC
