,SUBID,TRIAL,MOONEYID,MOONEYCATEGORY,LOC,COND,MOONEY_NAME,MOONEY_GENDER,ECCENTRICITY,RESPONSE,ACCURACY,RT,SUBINIT
0,[[19]],[[1]],[[9]],['low holistic'],['left'],['upright'],['U0155.bmp'],['male'],[[10]],['male'],[[1]],[[0.00248773]],CN
1,[[19]],[[2]],[[14]],['low holistic'],['right'],['upright'],['U0228.bmp'],['male'],[[10]],['male'],[[1]],[[0.00016392]],CN
2,[[19]],[[3]],[[19]],['high holistic'],['right'],['upright'],['U0361.bmp'],['female'],[[8]],['male'],[[0]],[[0.00206859]],CN
3,[[19]],[[4]],[[17]],['low holistic'],['right'],['upright'],['U0346.bmp'],['female'],[[8]],['female'],[[1]],[[0.0001281]],CN
4,[[19]],[[5]],[[10]],['high holistic'],['left'],['inverted'],['U0159.bmp'],['male'],[[4]],['male'],[[1]],[[0.00016951]],CN
5,[[19]],[[6]],[[16]],['low holistic'],['right'],['inverted'],['U0335.bmp'],['female'],[[10]],['female'],[[1]],[[0.0106995]],CN
6,[[19]],[[7]],[[9]],['high holistic'],['right'],['inverted'],['U0155.bmp'],['female'],[[8]],['female'],[[1]],[[0.62016801]],CN
7,[[19]],[[8]],[[20]],['high holistic'],['right'],['upright'],['U0362.bmp'],['female'],[[6]],['female'],[[1]],[[2.2191021]],CN
8,[[19]],[[9]],[[20]],['high holistic'],['right'],['inverted'],['U0362.bmp'],['female'],[[6]],['male'],[[0]],[[0.00014957]],CN
9,[[19]],[[10]],[[18]],['high holistic'],['right'],['upright'],['U0359.bmp'],['male'],[[12]],['male'],[[1]],[[0.0001047]],CN
10,[[19]],[[11]],[[8]],['low holistic'],['fovea'],['upright'],['U0137.bmp'],['male'],[[0]],['male'],[[1]],[[2.89071461]],CN
11,[[19]],[[12]],[[10]],['low holistic'],['left'],['upright'],['U0159.bmp'],['female'],[[12]],['female'],[[1]],[[0.00740609]],CN
12,[[19]],[[13]],[[5]],['low holistic'],['right'],['inverted'],['U0076.bmp'],['male'],[[6]],['male'],[[1]],[[0.23234362]],CN
13,[[19]],[[14]],[[16]],['low holistic'],['left'],['inverted'],['U0335.bmp'],['female'],[[6]],['female'],[[1]],[[0.00011438]],CN
14,[[19]],[[15]],[[18]],['low holistic'],['left'],['upright'],['U0359.bmp'],['male'],[[6]],['female'],[[0]],[[0.00010896]],CN
15,[[19]],[[16]],[[19]],['high holistic'],['left'],['inverted'],['U0361.bmp'],['female'],[[12]],['male'],[[0]],[[2.33577124]],CN
16,[[19]],[[17]],[[12]],['low holistic'],['left'],['inverted'],['U0178.bmp'],['female'],[[10]],['female'],[[1]],[[0.00025331]],CN
17,[[19]],[[18]],[[12]],['low holistic'],['right'],['inverted'],['U0178.bmp'],['female'],[[4]],['female'],[[1]],[[0.00021706]],CN
18,[[19]],[[19]],[[3]],['low holistic'],['right'],['upright'],['U0020.bmp'],['female'],[[4]],['female'],[[1]],[[0.0002058]],CN
19,[[19]],[[20]],[[18]],['high holistic'],['left'],['inverted'],['U0359.bmp'],['male'],[[10]],['female'],[[0]],[[0.00018638]],CN
20,[[19]],[[21]],[[10]],['low holistic'],['right'],['inverted'],['U0159.bmp'],['female'],[[2]],['female'],[[1]],[[0.09153945]],CN
21,[[19]],[[22]],[[5]],['high holistic'],['right'],['inverted'],['U0076.bmp'],['female'],[[2]],['male'],[[0]],[[0.0001491]],CN
22,[[19]],[[23]],[[18]],['low holistic'],['left'],['inverted'],['U0359.bmp'],['male'],[[12]],['female'],[[0]],[[0.0001133]],CN
23,[[19]],[[24]],[[16]],['high holistic'],['left'],['upright'],['U0335.bmp'],['female'],[[10]],['male'],[[0]],[[0.00012421]],CN
24,[[19]],[[25]],[[18]],['high holistic'],['left'],['upright'],['U0359.bmp'],['male'],[[6]],['male'],[[1]],[[0.00014279]],CN
25,[[19]],[[26]],[[6]],['low holistic'],['right'],['inverted'],['U0106.bmp'],['male'],[[4]],['female'],[[0]],[[0.00016795]],CN
26,[[19]],[[27]],[[14]],['high holistic'],['left'],['upright'],['U0228.bmp'],['male'],[[10]],['male'],[[1]],[[0.00010267]],CN
27,[[19]],[[28]],[[14]],['high holistic'],['right'],['inverted'],['U0228.bmp'],['male'],[[2]],['male'],[[1]],[[0.00023843]],CN
28,[[19]],[[29]],[[3]],['high holistic'],['right'],['upright'],['U0020.bmp'],['male'],[[2]],['male'],[[1]],[[3.58464722]],CN
29,[[19]],[[30]],[[9]],['low holistic'],['left'],['inverted'],['U0155.bmp'],['male'],[[4]],['male'],[[1]],[[0.00020684]],CN
30,[[19]],[[31]],[[6]],['low holistic'],['left'],['upright'],['U0106.bmp'],['male'],[[12]],['male'],[[1]],[[0.00010532]],CN
31,[[19]],[[32]],[[15]],['low holistic'],['right'],['upright'],['U0312.bmp'],['male'],[[2]],['male'],[[1]],[[2.69928428]],CN
32,[[19]],[[33]],[[6]],['low holistic'],['right'],['upright'],['U0106.bmp'],['male'],[[6]],['male'],[[1]],[[0.04564]],CN
33,[[19]],[[34]],[[18]],['high holistic'],['right'],['upright'],['U0359.bmp'],['male'],[[2]],['female'],[[0]],[[3.6131819]],CN
34,[[19]],[[35]],[[17]],['high holistic'],['fovea'],['upright'],['U0346.bmp'],['male'],[[0]],['male'],[[1]],[[0.11743857]],CN
35,[[19]],[[36]],[[8]],['low holistic'],['right'],['upright'],['U0137.bmp'],['male'],[[10]],['male'],[[1]],[[0.12686949]],CN
36,[[19]],[[37]],[[10]],['high holistic'],['left'],['inverted'],['U0159.bmp'],['male'],[[12]],['male'],[[1]],[[0.00405316]],CN
37,[[19]],[[38]],[[14]],['high holistic'],['left'],['inverted'],['U0228.bmp'],['male'],[[4]],['female'],[[0]],[[0.05932711]],CN
38,[[19]],[[39]],[[17]],['high holistic'],['left'],['upright'],['U0346.bmp'],['male'],[[8]],['male'],[[1]],[[0.04109361]],CN
39,[[19]],[[40]],[[13]],['low holistic'],['right'],['inverted'],['U0181.bmp'],['male'],[[6]],['male'],[[1]],[[0.00014652]],CN
40,[[19]],[[41]],[[12]],['low holistic'],['left'],['inverted'],['U0178.bmp'],['female'],[[6]],['female'],[[1]],[[3.24907656]],CN
41,[[19]],[[42]],[[7]],['high holistic'],['left'],['upright'],['U0107.bmp'],['female'],[[12]],['male'],[[0]],[[0.07846778]],CN
42,[[19]],[[43]],[[10]],['high holistic'],['fovea'],['inverted'],['U0159.bmp'],['male'],[[0]],['male'],[[1]],[[0.00011166]],CN
43,[[19]],[[44]],[[15]],['low holistic'],['right'],['inverted'],['U0312.bmp'],['male'],[[10]],['male'],[[1]],[[0.00013281]],CN
44,[[19]],[[45]],[[18]],['high holistic'],['right'],['upright'],['U0359.bmp'],['male'],[[12]],['male'],[[1]],[[0.00019635]],CN
45,[[19]],[[46]],[[15]],['low holistic'],['right'],['inverted'],['U0312.bmp'],['male'],[[12]],['male'],[[1]],[[0.02074528]],CN
46,[[19]],[[47]],[[1]],['low holistic'],['left'],['upright'],['U0006.bmp'],['female'],[[4]],['female'],[[1]],[[0.00011505]],CN
47,[[19]],[[48]],[[14]],['low holistic'],['right'],['inverted'],['U0228.bmp'],['male'],[[4]],['male'],[[1]],[[9.93162394e-05]],CN
48,[[19]],[[49]],[[9]],['high holistic'],['right'],['upright'],['U0155.bmp'],['female'],[[2]],['male'],[[0]],[[0.00012087]],CN
49,[[19]],[[50]],[[9]],['low holistic'],['left'],['inverted'],['U0155.bmp'],['male'],[[8]],['male'],[[1]],[[0.00014978]],CN
50,[[19]],[[51]],[[3]],['high holistic'],['right'],['inverted'],['U0020.bmp'],['male'],[[8]],['male'],[[1]],[[0.04539474]],CN
51,[[19]],[[52]],[[17]],['low holistic'],['left'],['inverted'],['U0346.bmp'],['female'],[[8]],['male'],[[0]],[[0.00021214]],CN
52,[[19]],[[53]],[[7]],['low holistic'],['left'],['inverted'],['U0107.bmp'],['female'],[[4]],['female'],[[1]],[[7.0261682]],CN
53,[[19]],[[54]],[[5]],['high holistic'],['right'],['inverted'],['U0076.bmp'],['female'],[[8]],['male'],[[0]],[[0.28145428]],CN
54,[[19]],[[55]],[[7]],['low holistic'],['left'],['upright'],['U0107.bmp'],['female'],[[12]],['female'],[[1]],[[0.35047038]],CN
55,[[19]],[[56]],[[8]],['high holistic'],['right'],['upright'],['U0137.bmp'],['female'],[[12]],['female'],[[1]],[[0.45701987]],CN
56,[[19]],[[57]],[[11]],['high holistic'],['right'],['inverted'],['U0164.bmp'],['female'],[[10]],['female'],[[1]],[[0.31963732]],CN
57,[[19]],[[58]],[[12]],['high holistic'],['right'],['inverted'],['U0178.bmp'],['male'],[[2]],['male'],[[1]],[[0.37885417]],CN
58,[[19]],[[59]],[[8]],['low holistic'],['fovea'],['upright'],['U0137.bmp'],['male'],[[0]],['male'],[[1]],[[0.2757667]],CN
59,[[19]],[[60]],[[8]],['high holistic'],['right'],['inverted'],['U0137.bmp'],['female'],[[6]],['female'],[[1]],[[0.48860032]],CN
60,[[19]],[[61]],[[11]],['high holistic'],['right'],['upright'],['U0164.bmp'],['female'],[[6]],['female'],[[1]],[[0.27765512]],CN
61,[[19]],[[62]],[[14]],['high holistic'],['right'],['inverted'],['U0228.bmp'],['male'],[[4]],['male'],[[1]],[[0.27424697]],CN
62,[[19]],[[63]],[[20]],['low holistic'],['right'],['inverted'],['U0362.bmp'],['male'],[[12]],['female'],[[0]],[[0.35176427]],CN
63,[[19]],[[64]],[[15]],['low holistic'],['left'],['inverted'],['U0312.bmp'],['male'],[[8]],['male'],[[1]],[[0.31379149]],CN
64,[[19]],[[65]],[[9]],['low holistic'],['left'],['upright'],['U0155.bmp'],['male'],[[8]],['male'],[[1]],[[0.30116143]],CN
65,[[19]],[[66]],[[17]],['high holistic'],['right'],['inverted'],['U0346.bmp'],['male'],[[4]],['male'],[[1]],[[0.37680214]],CN
66,[[19]],[[67]],[[3]],['high holistic'],['left'],['inverted'],['U0020.bmp'],['male'],[[4]],['female'],[[0]],[[0.29125845]],CN
67,[[19]],[[68]],[[2]],['high holistic'],['left'],['upright'],['U0014.bmp'],['male'],[[12]],['male'],[[1]],[[0.29414284]],CN
68,[[19]],[[69]],[[2]],['high holistic'],['right'],['upright'],['U0014.bmp'],['male'],[[12]],['male'],[[1]],[[0.28292753]],CN
69,[[19]],[[70]],[[4]],['low holistic'],['fovea'],['inverted'],['U0061.bmp'],['female'],[[0]],['female'],[[1]],[[0.23271149]],CN
70,[[19]],[[71]],[[7]],['high holistic'],['left'],['upright'],['U0107.bmp'],['female'],[[12]],['female'],[[1]],[[0.33429086]],CN
71,[[19]],[[72]],[[7]],['high holistic'],['right'],['inverted'],['U0107.bmp'],['female'],[[10]],['female'],[[1]],[[0.27283707]],CN
72,[[19]],[[73]],[[1]],['high holistic'],['right'],['inverted'],['U0006.bmp'],['female'],[[8]],['female'],[[1]],[[0.28642651]],CN
73,[[19]],[[74]],[[11]],['high holistic'],['right'],['inverted'],['U0164.bmp'],['female'],[[2]],['female'],[[1]],[[0.27510164]],CN
74,[[19]],[[75]],[[2]],['low holistic'],['left'],['upright'],['U0014.bmp'],['male'],[[2]],['male'],[[1]],[[0.3131479]],CN
75,[[19]],[[76]],[[3]],['low holistic'],['fovea'],['inverted'],['U0020.bmp'],['female'],[[0]],['female'],[[1]],[[0.30832922]],CN
76,[[19]],[[77]],[[13]],['low holistic'],['right'],['inverted'],['U0181.bmp'],['male'],[[6]],['male'],[[1]],[[0.30604761]],CN
77,[[19]],[[78]],[[18]],['low holistic'],['right'],['upright'],['U0359.bmp'],['male'],[[8]],['male'],[[1]],[[0.36503974]],CN
78,[[19]],[[79]],[[20]],['low holistic'],['right'],['upright'],['U0362.bmp'],['male'],[[6]],['male'],[[1]],[[0.31734603]],CN
79,[[19]],[[80]],[[12]],['low holistic'],['left'],['inverted'],['U0178.bmp'],['female'],[[8]],['female'],[[1]],[[0.23445358]],CN
80,[[19]],[[81]],[[20]],['high holistic'],['left'],['upright'],['U0362.bmp'],['female'],[[12]],['female'],[[1]],[[0.32069572]],CN
81,[[19]],[[82]],[[12]],['high holistic'],['right'],['inverted'],['U0178.bmp'],['male'],[[6]],['male'],[[1]],[[0.36397548]],CN
82,[[19]],[[83]],[[11]],['low holistic'],['left'],['inverted'],['U0164.bmp'],['female'],[[12]],['female'],[[1]],[[0.2854093]],CN
83,[[19]],[[84]],[[7]],['high holistic'],['right'],['inverted'],['U0107.bmp'],['female'],[[10]],['female'],[[1]],[[0.33116053]],CN
84,[[19]],[[85]],[[9]],['high holistic'],['left'],['inverted'],['U0155.bmp'],['female'],[[8]],['male'],[[0]],[[0.24581473]],CN
85,[[19]],[[86]],[[10]],['high holistic'],['right'],['upright'],['U0159.bmp'],['male'],[[6]],['male'],[[1]],[[0.34715932]],CN
86,[[19]],[[87]],[[2]],['high holistic'],['right'],['upright'],['U0014.bmp'],['male'],[[10]],['male'],[[1]],[[0.35049735]],CN
87,[[19]],[[88]],[[18]],['high holistic'],['left'],['inverted'],['U0359.bmp'],['male'],[[6]],['male'],[[1]],[[0.30264211]],CN
88,[[19]],[[89]],[[2]],['high holistic'],['right'],['upright'],['U0014.bmp'],['male'],[[8]],['male'],[[1]],[[0.3078688]],CN
89,[[19]],[[90]],[[9]],['high holistic'],['right'],['inverted'],['U0155.bmp'],['female'],[[8]],['male'],[[0]],[[0.21511436]],CN
90,[[19]],[[91]],[[17]],['high holistic'],['left'],['upright'],['U0346.bmp'],['male'],[[2]],['male'],[[1]],[[0.31852357]],CN
91,[[19]],[[92]],[[8]],['high holistic'],['fovea'],['inverted'],['U0137.bmp'],['female'],[[0]],['female'],[[1]],[[0.27325878]],CN
92,[[19]],[[93]],[[13]],['low holistic'],['right'],['inverted'],['U0181.bmp'],['male'],[[8]],['male'],[[1]],[[0.3095729]],CN
93,[[19]],[[94]],[[17]],['high holistic'],['left'],['upright'],['U0346.bmp'],['male'],[[12]],['male'],[[1]],[[0.26655787]],CN
94,[[19]],[[95]],[[18]],['low holistic'],['left'],['upright'],['U0359.bmp'],['male'],[[10]],['male'],[[1]],[[0.23218351]],CN
95,[[19]],[[96]],[[19]],['high holistic'],['right'],['upright'],['U0361.bmp'],['female'],[[8]],['female'],[[1]],[[0.29429143]],CN
96,[[19]],[[97]],[[4]],['low holistic'],['left'],['inverted'],['U0061.bmp'],['female'],[[6]],['female'],[[1]],[[0.21103667]],CN
97,[[19]],[[98]],[[6]],['high holistic'],['right'],['upright'],['U0106.bmp'],['female'],[[10]],['male'],[[0]],[[0.27331365]],CN
98,[[19]],[[99]],[[18]],['high holistic'],['left'],['upright'],['U0359.bmp'],['male'],[[6]],['male'],[[1]],[[0.27097762]],CN
99,[[19]],[[100]],[[12]],['high holistic'],['right'],['inverted'],['U0178.bmp'],['male'],[[12]],['male'],[[1]],[[0.11602016]],CN
100,[[19]],[[101]],[[11]],['high holistic'],['right'],['inverted'],['U0164.bmp'],['female'],[[12]],['male'],[[0]],[[0.35942451]],CN
101,[[19]],[[102]],[[13]],['low holistic'],['right'],['inverted'],['U0181.bmp'],['male'],[[4]],['male'],[[1]],[[0.20165514]],CN
102,[[19]],[[103]],[[17]],['low holistic'],['right'],['inverted'],['U0346.bmp'],['female'],[[2]],['female'],[[1]],[[0.24201812]],CN
103,[[19]],[[104]],[[11]],['high holistic'],['right'],['inverted'],['U0164.bmp'],['female'],[[10]],['male'],[[0]],[[0.23099315]],CN
104,[[19]],[[105]],[[5]],['high holistic'],['right'],['inverted'],['U0076.bmp'],['female'],[[8]],['male'],[[0]],[[0.23848122]],CN
105,[[19]],[[106]],[[10]],['low holistic'],['left'],['upright'],['U0159.bmp'],['female'],[[8]],['female'],[[1]],[[0.17983747]],CN
106,[[19]],[[107]],[[9]],['low holistic'],['right'],['upright'],['U0155.bmp'],['male'],[[6]],['male'],[[1]],[[0.17454485]],CN
107,[[19]],[[108]],[[20]],['low holistic'],['right'],['upright'],['U0362.bmp'],['male'],[[10]],['male'],[[1]],[[0.23889118]],CN
108,[[19]],[[109]],[[13]],['high holistic'],['left'],['inverted'],['U0181.bmp'],['female'],[[2]],['female'],[[1]],[[0.48516063]],CN
109,[[19]],[[110]],[[14]],['high holistic'],['left'],['inverted'],['U0228.bmp'],['male'],[[4]],['female'],[[0]],[[0.21001014]],CN
110,[[19]],[[111]],[[15]],['high holistic'],['right'],['inverted'],['U0312.bmp'],['male'],[[6]],['male'],[[1]],[[0.36219654]],CN
111,[[19]],[[112]],[[7]],['low holistic'],['left'],['upright'],['U0107.bmp'],['female'],[[4]],['female'],[[1]],[[0.27299782]],CN
112,[[19]],[[113]],[[11]],['low holistic'],['right'],['upright'],['U0164.bmp'],['female'],[[6]],['female'],[[1]],[[0.23035519]],CN
113,[[19]],[[114]],[[12]],['low holistic'],['left'],['inverted'],['U0178.bmp'],['female'],[[8]],['male'],[[0]],[[0.25316005]],CN
114,[[19]],[[115]],[[4]],['high holistic'],['right'],['upright'],['U0061.bmp'],['female'],[[12]],['male'],[[0]],[[0.26900101]],CN
115,[[19]],[[116]],[[12]],['high holistic'],['left'],['upright'],['U0178.bmp'],['male'],[[12]],['male'],[[1]],[[0.23403814]],CN
116,[[19]],[[117]],[[14]],['high holistic'],['right'],['upright'],['U0228.bmp'],['male'],[[2]],['male'],[[1]],[[0.22415837]],CN
117,[[19]],[[118]],[[9]],['high holistic'],['fovea'],['upright'],['U0155.bmp'],['female'],[[0]],['female'],[[1]],[[0.22377868]],CN
118,[[19]],[[119]],[[17]],['high holistic'],['left'],['inverted'],['U0346.bmp'],['male'],[[10]],['male'],[[1]],[[0.24625806]],CN
119,[[19]],[[120]],[[15]],['high holistic'],['left'],['inverted'],['U0312.bmp'],['male'],[[6]],['male'],[[1]],[[0.3550632]],CN
120,[[19]],[[121]],[[8]],['high holistic'],['left'],['upright'],['U0137.bmp'],['female'],[[8]],['male'],[[0]],[[0.26183698]],CN
121,[[19]],[[122]],[[10]],['low holistic'],['right'],['inverted'],['U0159.bmp'],['female'],[[12]],['female'],[[1]],[[0.26684026]],CN
122,[[19]],[[123]],[[8]],['low holistic'],['right'],['inverted'],['U0137.bmp'],['male'],[[10]],['female'],[[0]],[[0.24145536]],CN
123,[[19]],[[124]],[[16]],['high holistic'],['right'],['inverted'],['U0335.bmp'],['female'],[[4]],['male'],[[0]],[[0.28553231]],CN
124,[[19]],[[125]],[[15]],['high holistic'],['left'],['inverted'],['U0312.bmp'],['male'],[[2]],['male'],[[1]],[[0.30876514]],CN
125,[[19]],[[126]],[[9]],['low holistic'],['right'],['inverted'],['U0155.bmp'],['male'],[[12]],['female'],[[0]],[[0.23090629]],CN
126,[[19]],[[127]],[[14]],['high holistic'],['right'],['inverted'],['U0228.bmp'],['male'],[[8]],['male'],[[1]],[[0.22901476]],CN
127,[[19]],[[128]],[[19]],['high holistic'],['right'],['inverted'],['U0361.bmp'],['female'],[[6]],['male'],[[0]],[[0.37322009]],CN
128,[[19]],[[129]],[[16]],['high holistic'],['right'],['inverted'],['U0335.bmp'],['female'],[[10]],['male'],[[0]],[[0.26200924]],CN
129,[[19]],[[130]],[[15]],['high holistic'],['left'],['inverted'],['U0312.bmp'],['male'],[[2]],['male'],[[1]],[[0.29850832]],CN
130,[[19]],[[131]],[[3]],['low holistic'],['right'],['upright'],['U0020.bmp'],['female'],[[6]],['male'],[[0]],[[0.10033496]],CN
131,[[19]],[[132]],[[8]],['high holistic'],['fovea'],['inverted'],['U0137.bmp'],['female'],[[0]],['male'],[[0]],[[0.11135283]],CN
132,[[19]],[[133]],[[12]],['low holistic'],['left'],['upright'],['U0178.bmp'],['female'],[[2]],['female'],[[1]],[[0.11542882]],CN
133,[[19]],[[134]],[[10]],['high holistic'],['left'],['inverted'],['U0159.bmp'],['male'],[[10]],['male'],[[1]],[[0.14136127]],CN
134,[[19]],[[135]],[[2]],['low holistic'],['fovea'],['upright'],['U0014.bmp'],['male'],[[0]],['male'],[[1]],[[0.17701374]],CN
135,[[19]],[[136]],[[5]],['high holistic'],['right'],['upright'],['U0076.bmp'],['female'],[[8]],['female'],[[1]],[[0.22593694]],CN
136,[[19]],[[137]],[[17]],['high holistic'],['left'],['upright'],['U0346.bmp'],['male'],[[8]],['male'],[[1]],[[0.15338152]],CN
137,[[19]],[[138]],[[1]],['low holistic'],['right'],['inverted'],['U0006.bmp'],['female'],[[6]],['female'],[[1]],[[0.1063874]],CN
138,[[19]],[[139]],[[18]],['low holistic'],['right'],['upright'],['U0359.bmp'],['male'],[[4]],['male'],[[1]],[[0.19093219]],CN
139,[[19]],[[140]],[[2]],['low holistic'],['right'],['inverted'],['U0014.bmp'],['male'],[[10]],['female'],[[0]],[[0.23113786]],CN
140,[[19]],[[141]],[[14]],['high holistic'],['left'],['inverted'],['U0228.bmp'],['male'],[[6]],['male'],[[1]],[[0.11762503]],CN
141,[[19]],[[142]],[[11]],['high holistic'],['right'],['inverted'],['U0164.bmp'],['female'],[[8]],['female'],[[1]],[[0.14333902]],CN
142,[[19]],[[143]],[[5]],['low holistic'],['left'],['upright'],['U0076.bmp'],['male'],[[2]],['male'],[[1]],[[0.18813196]],CN
143,[[19]],[[144]],[[12]],['high holistic'],['left'],['inverted'],['U0178.bmp'],['male'],[[4]],['male'],[[1]],[[0.20230979]],CN
144,[[19]],[[145]],[[3]],['high holistic'],['right'],['inverted'],['U0020.bmp'],['male'],[[12]],['male'],[[1]],[[0.25207596]],CN
145,[[19]],[[146]],[[14]],['high holistic'],['left'],['upright'],['U0228.bmp'],['male'],[[6]],['male'],[[1]],[[0.23343649]],CN
146,[[19]],[[147]],[[12]],['high holistic'],['right'],['upright'],['U0178.bmp'],['male'],[[12]],['male'],[[1]],[[0.23083526]],CN
147,[[19]],[[148]],[[2]],['low holistic'],['left'],['upright'],['U0014.bmp'],['male'],[[8]],['male'],[[1]],[[0.21393946]],CN
148,[[19]],[[149]],[[2]],['high holistic'],['left'],['inverted'],['U0014.bmp'],['male'],[[2]],['female'],[[0]],[[0.22329259]],CN
149,[[19]],[[150]],[[4]],['high holistic'],['left'],['upright'],['U0061.bmp'],['female'],[[6]],['female'],[[1]],[[0.18941925]],CN
150,[[19]],[[151]],[[1]],['high holistic'],['right'],['inverted'],['U0006.bmp'],['female'],[[12]],['male'],[[0]],[[0.14982641]],CN
151,[[19]],[[152]],[[9]],['high holistic'],['right'],['inverted'],['U0155.bmp'],['female'],[[4]],['female'],[[1]],[[0.23104273]],CN
152,[[19]],[[153]],[[17]],['high holistic'],['right'],['upright'],['U0346.bmp'],['male'],[[4]],['male'],[[1]],[[0.21442446]],CN
153,[[19]],[[154]],[[13]],['low holistic'],['left'],['upright'],['U0181.bmp'],['male'],[[2]],['male'],[[1]],[[0.18909345]],CN
154,[[19]],[[155]],[[11]],['low holistic'],['right'],['upright'],['U0164.bmp'],['female'],[[12]],['female'],[[1]],[[0.19006605]],CN
155,[[19]],[[156]],[[18]],['high holistic'],['left'],['inverted'],['U0359.bmp'],['male'],[[12]],['male'],[[1]],[[0.16597361]],CN
156,[[19]],[[157]],[[2]],['low holistic'],['right'],['upright'],['U0014.bmp'],['male'],[[4]],['male'],[[1]],[[0.16773958]],CN
157,[[19]],[[158]],[[19]],['low holistic'],['left'],['upright'],['U0361.bmp'],['female'],[[12]],['female'],[[1]],[[0.21597221]],CN
158,[[19]],[[159]],[[3]],['low holistic'],['left'],['inverted'],['U0020.bmp'],['female'],[[8]],['female'],[[1]],[[0.25666776]],CN
159,[[19]],[[160]],[[11]],['low holistic'],['left'],['inverted'],['U0164.bmp'],['female'],[[6]],['female'],[[1]],[[0.17334534]],CN
160,[[19]],[[161]],[[3]],['low holistic'],['left'],['upright'],['U0020.bmp'],['female'],[[12]],['female'],[[1]],[[0.1430955]],CN
161,[[19]],[[162]],[[12]],['high holistic'],['right'],['upright'],['U0178.bmp'],['male'],[[10]],['female'],[[0]],[[0.22427208]],CN
162,[[19]],[[163]],[[1]],['high holistic'],['fovea'],['inverted'],['U0006.bmp'],['female'],[[0]],['male'],[[0]],[[0.16715724]],CN
163,[[19]],[[164]],[[16]],['low holistic'],['left'],['inverted'],['U0335.bmp'],['female'],[[2]],['female'],[[1]],[[0.20232761]],CN
164,[[19]],[[165]],[[17]],['high holistic'],['left'],['inverted'],['U0346.bmp'],['male'],[[10]],['female'],[[0]],[[0.23408356]],CN
165,[[19]],[[166]],[[19]],['high holistic'],['left'],['inverted'],['U0361.bmp'],['female'],[[4]],['male'],[[0]],[[0.17653828]],CN
166,[[19]],[[167]],[[20]],['low holistic'],['right'],['inverted'],['U0362.bmp'],['male'],[[8]],['female'],[[0]],[[0.43377579]],CN
167,[[19]],[[168]],[[11]],['high holistic'],['left'],['inverted'],['U0164.bmp'],['female'],[[6]],['male'],[[0]],[[0.18454063]],CN
168,[[19]],[[169]],[[6]],['high holistic'],['fovea'],['upright'],['U0106.bmp'],['female'],[[0]],['female'],[[1]],[[0.20901681]],CN
169,[[19]],[[170]],[[3]],['high holistic'],['right'],['inverted'],['U0020.bmp'],['male'],[[10]],['male'],[[1]],[[0.25578819]],CN
170,[[19]],[[171]],[[11]],['low holistic'],['right'],['upright'],['U0164.bmp'],['female'],[[2]],['female'],[[1]],[[0.1656082]],CN
171,[[19]],[[172]],[[12]],['high holistic'],['right'],['upright'],['U0178.bmp'],['male'],[[6]],['male'],[[1]],[[0.35094121]],CN
172,[[19]],[[173]],[[16]],['high holistic'],['left'],['inverted'],['U0335.bmp'],['female'],[[4]],['female'],[[1]],[[0.28045707]],CN
173,[[19]],[[174]],[[2]],['high holistic'],['right'],['upright'],['U0014.bmp'],['male'],[[12]],['male'],[[1]],[[0.23035836]],CN
174,[[19]],[[175]],[[14]],['high holistic'],['right'],['inverted'],['U0228.bmp'],['male'],[[12]],['male'],[[1]],[[0.25257329]],CN
175,[[19]],[[176]],[[11]],['high holistic'],['left'],['upright'],['U0164.bmp'],['female'],[[12]],['male'],[[0]],[[0.03486203]],CN
176,[[19]],[[177]],[[4]],['low holistic'],['left'],['inverted'],['U0061.bmp'],['female'],[[10]],['female'],[[1]],[[0.14444034]],CN
177,[[19]],[[178]],[[19]],['high holistic'],['right'],['inverted'],['U0361.bmp'],['female'],[[2]],['male'],[[0]],[[0.16311765]],CN
178,[[19]],[[179]],[[12]],['high holistic'],['right'],['inverted'],['U0178.bmp'],['male'],[[6]],['female'],[[0]],[[0.05309704]],CN
179,[[19]],[[180]],[[9]],['high holistic'],['left'],['inverted'],['U0155.bmp'],['female'],[[6]],['male'],[[0]],[[0.14723996]],CN
180,[[19]],[[181]],[[19]],['high holistic'],['right'],['upright'],['U0361.bmp'],['female'],[[10]],['male'],[[0]],[[0.11718407]],CN
181,[[19]],[[182]],[[14]],['low holistic'],['left'],['upright'],['U0228.bmp'],['male'],[[8]],['female'],[[0]],[[0.16063338]],CN
182,[[19]],[[183]],[[10]],['high holistic'],['left'],['upright'],['U0159.bmp'],['male'],[[8]],['female'],[[0]],[[0.12144868]],CN
183,[[19]],[[184]],[[17]],['low holistic'],['right'],['inverted'],['U0346.bmp'],['female'],[[12]],['female'],[[1]],[[0.24443103]],CN
184,[[19]],[[185]],[[11]],['low holistic'],['left'],['inverted'],['U0164.bmp'],['female'],[[4]],['female'],[[1]],[[0.10735263]],CN
185,[[19]],[[186]],[[12]],['low holistic'],['right'],['inverted'],['U0178.bmp'],['female'],[[6]],['female'],[[1]],[[0.11884761]],CN
186,[[19]],[[187]],[[14]],['low holistic'],['left'],['inverted'],['U0228.bmp'],['male'],[[4]],['male'],[[1]],[[0.14665144]],CN
187,[[19]],[[188]],[[8]],['high holistic'],['right'],['upright'],['U0137.bmp'],['female'],[[4]],['female'],[[1]],[[0.17278617]],CN
188,[[19]],[[189]],[[5]],['low holistic'],['left'],['inverted'],['U0076.bmp'],['male'],[[10]],['male'],[[1]],[[0.03841581]],CN
189,[[19]],[[190]],[[12]],['low holistic'],['left'],['upright'],['U0178.bmp'],['female'],[[4]],['female'],[[1]],[[0.15590604]],CN
190,[[19]],[[191]],[[18]],['high holistic'],['fovea'],['upright'],['U0359.bmp'],['male'],[[0]],['female'],[[0]],[[0.1805087]],CN
191,[[19]],[[192]],[[9]],['high holistic'],['left'],['inverted'],['U0155.bmp'],['female'],[[6]],['female'],[[1]],[[0.24651474]],CN
192,[[19]],[[193]],[[3]],['high holistic'],['fovea'],['inverted'],['U0020.bmp'],['male'],[[0]],['female'],[[0]],[[0.21272609]],CN
193,[[19]],[[194]],[[9]],['low holistic'],['right'],['inverted'],['U0155.bmp'],['male'],[[2]],['male'],[[1]],[[0.18086157]],CN
194,[[19]],[[195]],[[7]],['high holistic'],['right'],['upright'],['U0107.bmp'],['female'],[[10]],['female'],[[1]],[[0.24485718]],CN
195,[[19]],[[196]],[[9]],['high holistic'],['right'],['upright'],['U0155.bmp'],['female'],[[10]],['male'],[[0]],[[0.22698416]],CN
196,[[19]],[[197]],[[17]],['high holistic'],['fovea'],['inverted'],['U0346.bmp'],['male'],[[0]],['female'],[[0]],[[0.12856323]],CN
197,[[19]],[[198]],[[9]],['low holistic'],['left'],['upright'],['U0155.bmp'],['male'],[[8]],['male'],[[1]],[[0.18080472]],CN
198,[[19]],[[199]],[[8]],['high holistic'],['right'],['upright'],['U0137.bmp'],['female'],[[4]],['male'],[[0]],[[0.20466635]],CN
199,[[19]],[[200]],[[8]],['high holistic'],['left'],['upright'],['U0137.bmp'],['female'],[[12]],['female'],[[1]],[[0.22994251]],CN
200,[[19]],[[201]],[[3]],['low holistic'],['left'],['upright'],['U0020.bmp'],['female'],[[4]],['female'],[[1]],[[0.18812215]],CN
201,[[19]],[[202]],[[6]],['high holistic'],['left'],['inverted'],['U0106.bmp'],['female'],[[2]],['female'],[[1]],[[0.25242527]],CN
202,[[19]],[[203]],[[2]],['low holistic'],['left'],['inverted'],['U0014.bmp'],['male'],[[8]],['male'],[[1]],[[0.14657416]],CN
203,[[19]],[[204]],[[9]],['high holistic'],['right'],['upright'],['U0155.bmp'],['female'],[[8]],['female'],[[1]],[[0.18031327]],CN
204,[[19]],[[205]],[[6]],['low holistic'],['right'],['upright'],['U0106.bmp'],['male'],[[10]],['male'],[[1]],[[0.10849191]],CN
205,[[19]],[[206]],[[6]],['high holistic'],['left'],['inverted'],['U0106.bmp'],['female'],[[12]],['female'],[[1]],[[0.04086257]],CN
206,[[19]],[[207]],[[9]],['low holistic'],['right'],['upright'],['U0155.bmp'],['male'],[[6]],['male'],[[1]],[[9.98396426e-05]],CN
207,[[19]],[[208]],[[3]],['high holistic'],['left'],['inverted'],['U0020.bmp'],['male'],[[8]],['female'],[[0]],[[3.48756886]],CN
208,[[19]],[[209]],[[10]],['low holistic'],['left'],['upright'],['U0159.bmp'],['female'],[[8]],['female'],[[1]],[[0.13177123]],CN
209,[[19]],[[210]],[[15]],['low holistic'],['right'],['upright'],['U0312.bmp'],['male'],[[2]],['male'],[[1]],[[0.05391124]],CN
210,[[19]],[[211]],[[5]],['high holistic'],['fovea'],['upright'],['U0076.bmp'],['female'],[[0]],['female'],[[1]],[[0.15666049]],CN
211,[[19]],[[212]],[[16]],['high holistic'],['left'],['inverted'],['U0335.bmp'],['female'],[[8]],['female'],[[1]],[[0.15786748]],CN
212,[[19]],[[213]],[[2]],['low holistic'],['right'],['upright'],['U0014.bmp'],['male'],[[4]],['male'],[[1]],[[0.12498577]],CN
213,[[19]],[[214]],[[8]],['high holistic'],['right'],['upright'],['U0137.bmp'],['female'],[[8]],['male'],[[0]],[[0.1986236]],CN
214,[[19]],[[215]],[[1]],['high holistic'],['right'],['upright'],['U0006.bmp'],['female'],[[4]],['female'],[[1]],[[0.14335297]],CN
215,[[19]],[[216]],[[5]],['high holistic'],['left'],['inverted'],['U0076.bmp'],['female'],[[12]],['female'],[[1]],[[0.10605163]],CN
216,[[19]],[[217]],[[1]],['high holistic'],['left'],['inverted'],['U0006.bmp'],['female'],[[12]],['female'],[[1]],[[0.14156644]],CN
217,[[19]],[[218]],[[4]],['high holistic'],['right'],['upright'],['U0061.bmp'],['female'],[[8]],['female'],[[1]],[[0.14511282]],CN
218,[[19]],[[219]],[[3]],['high holistic'],['left'],['inverted'],['U0020.bmp'],['male'],[[6]],['female'],[[0]],[[0.10611588]],CN
219,[[19]],[[220]],[[6]],['high holistic'],['fovea'],['inverted'],['U0106.bmp'],['female'],[[0]],['male'],[[0]],[[0.11884769]],CN
220,[[19]],[[221]],[[4]],['low holistic'],['fovea'],['upright'],['U0061.bmp'],['female'],[[0]],['female'],[[1]],[[0.19333684]],CN
221,[[19]],[[222]],[[3]],['low holistic'],['left'],['upright'],['U0020.bmp'],['female'],[[8]],['female'],[[1]],[[0.20230133]],CN
222,[[19]],[[223]],[[12]],['high holistic'],['left'],['upright'],['U0178.bmp'],['male'],[[10]],['female'],[[0]],[[0.138366]],CN
223,[[19]],[[224]],[[19]],['high holistic'],['left'],['inverted'],['U0361.bmp'],['female'],[[6]],['female'],[[1]],[[0.07620554]],CN
224,[[19]],[[225]],[[19]],['high holistic'],['left'],['upright'],['U0361.bmp'],['female'],[[2]],['female'],[[1]],[[0.16953092]],CN
225,[[19]],[[226]],[[5]],['high holistic'],['left'],['inverted'],['U0076.bmp'],['female'],[[8]],['male'],[[0]],[[0.15532742]],CN
226,[[19]],[[227]],[[10]],['high holistic'],['left'],['upright'],['U0159.bmp'],['male'],[[4]],['male'],[[1]],[[0.15661867]],CN
227,[[19]],[[228]],[[8]],['low holistic'],['right'],['upright'],['U0137.bmp'],['male'],[[2]],['male'],[[1]],[[0.21321288]],CN
228,[[19]],[[229]],[[11]],['high holistic'],['right'],['upright'],['U0164.bmp'],['female'],[[2]],['female'],[[1]],[[0.38185575]],CN
229,[[19]],[[230]],[[6]],['high holistic'],['left'],['upright'],['U0106.bmp'],['female'],[[12]],['female'],[[1]],[[0.30950769]],CN
230,[[19]],[[231]],[[2]],['high holistic'],['left'],['inverted'],['U0014.bmp'],['male'],[[10]],['female'],[[0]],[[0.11311276]],CN
231,[[19]],[[232]],[[9]],['high holistic'],['right'],['inverted'],['U0155.bmp'],['female'],[[6]],['male'],[[0]],[[0.17213907]],CN
232,[[19]],[[233]],[[4]],['low holistic'],['right'],['upright'],['U0061.bmp'],['female'],[[10]],['female'],[[1]],[[0.16610289]],CN
233,[[19]],[[234]],[[1]],['low holistic'],['right'],['inverted'],['U0006.bmp'],['female'],[[2]],['female'],[[1]],[[0.13535175]],CN
234,[[19]],[[235]],[[20]],['high holistic'],['right'],['inverted'],['U0362.bmp'],['female'],[[4]],['female'],[[1]],[[0.19390178]],CN
235,[[19]],[[236]],[[9]],['low holistic'],['right'],['inverted'],['U0155.bmp'],['male'],[[10]],['female'],[[0]],[[0.10538578]],CN
236,[[19]],[[237]],[[20]],['high holistic'],['right'],['inverted'],['U0362.bmp'],['female'],[[2]],['female'],[[1]],[[0.11825741]],CN
237,[[19]],[[238]],[[16]],['high holistic'],['right'],['inverted'],['U0335.bmp'],['female'],[[4]],['female'],[[1]],[[0.15314471]],CN
238,[[19]],[[239]],[[1]],['low holistic'],['right'],['upright'],['U0006.bmp'],['female'],[[2]],['female'],[[1]],[[0.13995402]],CN
239,[[19]],[[240]],[[14]],['low holistic'],['right'],['upright'],['U0228.bmp'],['male'],[[4]],['male'],[[1]],[[0.1808155]],CN
240,[[19]],[[241]],[[15]],['low holistic'],['right'],['inverted'],['U0312.bmp'],['male'],[[12]],['male'],[[1]],[[0.32751311]],CN
241,[[19]],[[242]],[[13]],['low holistic'],['right'],['inverted'],['U0181.bmp'],['male'],[[2]],['male'],[[1]],[[0.19290281]],CN
242,[[19]],[[243]],[[12]],['high holistic'],['left'],['inverted'],['U0178.bmp'],['male'],[[12]],['male'],[[1]],[[0.15976888]],CN
243,[[19]],[[244]],[[5]],['high holistic'],['right'],['upright'],['U0076.bmp'],['female'],[[10]],['female'],[[1]],[[0.21139923]],CN
244,[[19]],[[245]],[[16]],['low holistic'],['right'],['inverted'],['U0335.bmp'],['female'],[[6]],['female'],[[1]],[[0.12338501]],CN
245,[[19]],[[246]],[[5]],['low holistic'],['right'],['inverted'],['U0076.bmp'],['male'],[[10]],['female'],[[0]],[[0.23040444]],CN
246,[[19]],[[247]],[[8]],['high holistic'],['left'],['upright'],['U0137.bmp'],['female'],[[10]],['female'],[[1]],[[0.05197021]],CN
247,[[19]],[[248]],[[18]],['high holistic'],['left'],['upright'],['U0359.bmp'],['male'],[[2]],['female'],[[0]],[[0.12230196]],CN
248,[[19]],[[249]],[[18]],['high holistic'],['right'],['upright'],['U0359.bmp'],['male'],[[10]],['male'],[[1]],[[0.09326166]],CN
249,[[19]],[[250]],[[9]],['low holistic'],['right'],['inverted'],['U0155.bmp'],['male'],[[2]],['male'],[[1]],[[0.16270767]],CN
250,[[19]],[[251]],[[7]],['high holistic'],['right'],['inverted'],['U0107.bmp'],['female'],[[6]],['male'],[[0]],[[0.26692704]],CN
251,[[19]],[[252]],[[13]],['high holistic'],['left'],['inverted'],['U0181.bmp'],['female'],[[6]],['male'],[[0]],[[0.16010775]],CN
252,[[19]],[[253]],[[19]],['high holistic'],['left'],['upright'],['U0361.bmp'],['female'],[[4]],['female'],[[1]],[[0.09181189]],CN
253,[[19]],[[254]],[[19]],['high holistic'],['right'],['upright'],['U0361.bmp'],['female'],[[2]],['female'],[[1]],[[0.12576281]],CN
254,[[19]],[[255]],[[12]],['high holistic'],['left'],['inverted'],['U0178.bmp'],['male'],[[4]],['male'],[[1]],[[0.10458415]],CN
255,[[19]],[[256]],[[7]],['low holistic'],['right'],['upright'],['U0107.bmp'],['female'],[[10]],['female'],[[1]],[[0.22150657]],CN
256,[[19]],[[257]],[[18]],['high holistic'],['left'],['upright'],['U0359.bmp'],['male'],[[2]],['male'],[[1]],[[0.13209751]],CN
257,[[19]],[[258]],[[9]],['high holistic'],['fovea'],['inverted'],['U0155.bmp'],['female'],[[0]],['female'],[[1]],[[0.30316105]],CN
258,[[19]],[[259]],[[19]],['low holistic'],['left'],['inverted'],['U0361.bmp'],['female'],[[6]],['male'],[[0]],[[0.16400917]],CN
259,[[19]],[[260]],[[1]],['low holistic'],['left'],['upright'],['U0006.bmp'],['female'],[[8]],['female'],[[1]],[[0.16393543]],CN
260,[[19]],[[261]],[[11]],['low holistic'],['right'],['upright'],['U0164.bmp'],['female'],[[2]],['female'],[[1]],[[0.01331651]],CN
261,[[19]],[[262]],[[15]],['low holistic'],['right'],['upright'],['U0312.bmp'],['male'],[[2]],['male'],[[1]],[[1.52520062]],CN
262,[[19]],[[263]],[[4]],['low holistic'],['right'],['upright'],['U0061.bmp'],['female'],[[10]],['female'],[[1]],[[0.05561794]],CN
263,[[19]],[[264]],[[7]],['low holistic'],['left'],['upright'],['U0107.bmp'],['female'],[[4]],['female'],[[1]],[[0.14248719]],CN
264,[[19]],[[265]],[[4]],['low holistic'],['left'],['upright'],['U0061.bmp'],['female'],[[12]],['female'],[[1]],[[0.19948333]],CN
265,[[19]],[[266]],[[7]],['low holistic'],['right'],['inverted'],['U0107.bmp'],['female'],[[10]],['female'],[[1]],[[0.16017148]],CN
266,[[19]],[[267]],[[9]],['high holistic'],['left'],['upright'],['U0155.bmp'],['female'],[[4]],['female'],[[1]],[[0.19400527]],CN
267,[[19]],[[268]],[[11]],['low holistic'],['left'],['inverted'],['U0164.bmp'],['female'],[[8]],['female'],[[1]],[[0.14724012]],CN
268,[[19]],[[269]],[[1]],['high holistic'],['left'],['inverted'],['U0006.bmp'],['female'],[[6]],['female'],[[1]],[[0.17189451]],CN
269,[[19]],[[270]],[[12]],['high holistic'],['right'],['upright'],['U0178.bmp'],['male'],[[6]],['male'],[[1]],[[0.19699323]],CN
270,[[19]],[[271]],[[6]],['high holistic'],['right'],['inverted'],['U0106.bmp'],['female'],[[6]],['female'],[[1]],[[0.17307245]],CN
271,[[19]],[[272]],[[5]],['low holistic'],['left'],['upright'],['U0076.bmp'],['male'],[[6]],['male'],[[1]],[[0.13451411]],CN
272,[[19]],[[273]],[[5]],['high holistic'],['left'],['upright'],['U0076.bmp'],['female'],[[10]],['male'],[[0]],[[0.24954771]],CN
273,[[19]],[[274]],[[4]],['low holistic'],['fovea'],['upright'],['U0061.bmp'],['female'],[[0]],['female'],[[1]],[[0.1829345]],CN
274,[[19]],[[275]],[[20]],['low holistic'],['left'],['upright'],['U0362.bmp'],['male'],[[8]],['male'],[[1]],[[0.18357448]],CN
275,[[19]],[[276]],[[19]],['low holistic'],['left'],['upright'],['U0361.bmp'],['female'],[[12]],['female'],[[1]],[[0.20094782]],CN
276,[[19]],[[277]],[[17]],['high holistic'],['left'],['inverted'],['U0346.bmp'],['male'],[[2]],['female'],[[0]],[[0.20684496]],CN
277,[[19]],[[278]],[[15]],['high holistic'],['fovea'],['inverted'],['U0312.bmp'],['male'],[[0]],['male'],[[1]],[[0.14419166]],CN
278,[[19]],[[279]],[[4]],['high holistic'],['right'],['inverted'],['U0061.bmp'],['female'],[[12]],['female'],[[1]],[[0.19423584]],CN
279,[[19]],[[280]],[[8]],['low holistic'],['left'],['inverted'],['U0137.bmp'],['male'],[[12]],['female'],[[0]],[[0.2509096]],CN
280,[[19]],[[281]],[[4]],['high holistic'],['left'],['upright'],['U0061.bmp'],['female'],[[4]],['female'],[[1]],[[0.19260578]],CN
281,[[19]],[[282]],[[1]],['high holistic'],['fovea'],['inverted'],['U0006.bmp'],['female'],[[0]],['female'],[[1]],[[0.15946218]],CN
282,[[19]],[[283]],[[7]],['low holistic'],['right'],['upright'],['U0107.bmp'],['female'],[[12]],['female'],[[1]],[[0.21872021]],CN
283,[[19]],[[284]],[[14]],['high holistic'],['right'],['inverted'],['U0228.bmp'],['male'],[[6]],['female'],[[0]],[[0.16040069]],CN
284,[[19]],[[285]],[[13]],['low holistic'],['left'],['upright'],['U0181.bmp'],['male'],[[12]],['male'],[[1]],[[0.18620576]],CN
285,[[19]],[[286]],[[11]],['low holistic'],['right'],['inverted'],['U0164.bmp'],['female'],[[12]],['female'],[[1]],[[0.16524747]],CN
286,[[19]],[[287]],[[9]],['high holistic'],['left'],['inverted'],['U0155.bmp'],['female'],[[6]],['female'],[[1]],[[0.15691255]],CN
287,[[19]],[[288]],[[6]],['high holistic'],['left'],['inverted'],['U0106.bmp'],['female'],[[10]],['female'],[[1]],[[0.15222109]],CN
288,[[19]],[[289]],[[11]],['high holistic'],['right'],['inverted'],['U0164.bmp'],['female'],[[6]],['female'],[[1]],[[0.19211616]],CN
289,[[19]],[[290]],[[16]],['low holistic'],['left'],['upright'],['U0335.bmp'],['female'],[[6]],['female'],[[1]],[[0.12797383]],CN
290,[[19]],[[291]],[[16]],['high holistic'],['left'],['inverted'],['U0335.bmp'],['female'],[[6]],['female'],[[1]],[[0.14840045]],CN
291,[[19]],[[292]],[[12]],['low holistic'],['right'],['inverted'],['U0178.bmp'],['female'],[[8]],['female'],[[1]],[[0.17367684]],CN
292,[[19]],[[293]],[[15]],['low holistic'],['right'],['inverted'],['U0312.bmp'],['male'],[[6]],['male'],[[1]],[[0.22360545]],CN
293,[[19]],[[294]],[[13]],['low holistic'],['left'],['upright'],['U0181.bmp'],['male'],[[2]],['male'],[[1]],[[0.18171865]],CN
294,[[19]],[[295]],[[3]],['high holistic'],['left'],['upright'],['U0020.bmp'],['male'],[[6]],['female'],[[0]],[[0.19847286]],CN
295,[[19]],[[296]],[[11]],['low holistic'],['right'],['inverted'],['U0164.bmp'],['female'],[[2]],['female'],[[1]],[[0.18284318]],CN
296,[[19]],[[297]],[[7]],['high holistic'],['right'],['upright'],['U0107.bmp'],['female'],[[4]],['female'],[[1]],[[0.19089957]],CN
297,[[19]],[[298]],[[2]],['low holistic'],['right'],['upright'],['U0014.bmp'],['male'],[[8]],['male'],[[1]],[[0.23095635]],CN
298,[[19]],[[299]],[[3]],['low holistic'],['right'],['inverted'],['U0020.bmp'],['female'],[[2]],['female'],[[1]],[[0.22228002]],CN
299,[[19]],[[300]],[[4]],['low holistic'],['right'],['inverted'],['U0061.bmp'],['female'],[[10]],['female'],[[1]],[[0.17443656]],CN
300,[[19]],[[301]],[[14]],['high holistic'],['left'],['upright'],['U0228.bmp'],['male'],[[4]],['male'],[[1]],[[0.22149878]],CN
301,[[19]],[[302]],[[9]],['low holistic'],['right'],['upright'],['U0155.bmp'],['male'],[[4]],['male'],[[1]],[[0.25073027]],CN
302,[[19]],[[303]],[[14]],['high holistic'],['left'],['upright'],['U0228.bmp'],['male'],[[4]],['male'],[[1]],[[0.23531511]],CN
303,[[19]],[[304]],[[6]],['low holistic'],['right'],['inverted'],['U0106.bmp'],['male'],[[4]],['male'],[[1]],[[0.20158846]],CN
304,[[19]],[[305]],[[1]],['low holistic'],['left'],['upright'],['U0006.bmp'],['female'],[[10]],['female'],[[1]],[[0.17745912]],CN
305,[[19]],[[306]],[[11]],['low holistic'],['fovea'],['inverted'],['U0164.bmp'],['female'],[[0]],['female'],[[1]],[[0.20182516]],CN
306,[[19]],[[307]],[[6]],['high holistic'],['left'],['inverted'],['U0106.bmp'],['female'],[[2]],['female'],[[1]],[[0.1377546]],CN
307,[[19]],[[308]],[[19]],['high holistic'],['right'],['upright'],['U0361.bmp'],['female'],[[8]],['female'],[[1]],[[0.09258942]],CN
308,[[19]],[[309]],[[19]],['low holistic'],['left'],['inverted'],['U0361.bmp'],['female'],[[4]],['female'],[[1]],[[0.16856824]],CN
309,[[19]],[[310]],[[8]],['high holistic'],['left'],['upright'],['U0137.bmp'],['female'],[[4]],['female'],[[1]],[[0.18626747]],CN
310,[[19]],[[311]],[[1]],['low holistic'],['left'],['inverted'],['U0006.bmp'],['female'],[[6]],['female'],[[1]],[[0.17979778]],CN
311,[[19]],[[312]],[[14]],['high holistic'],['left'],['upright'],['U0228.bmp'],['male'],[[8]],['male'],[[1]],[[0.22827199]],CN
312,[[19]],[[313]],[[17]],['high holistic'],['right'],['upright'],['U0346.bmp'],['male'],[[12]],['male'],[[1]],[[0.17882013]],CN
313,[[19]],[[314]],[[20]],['high holistic'],['right'],['inverted'],['U0362.bmp'],['female'],[[12]],['male'],[[0]],[[0.17955532]],CN
314,[[19]],[[315]],[[2]],['low holistic'],['right'],['upright'],['U0014.bmp'],['male'],[[12]],['male'],[[1]],[[0.18852092]],CN
315,[[19]],[[316]],[[10]],['low holistic'],['right'],['inverted'],['U0159.bmp'],['female'],[[10]],['female'],[[1]],[[0.26002523]],CN
316,[[19]],[[317]],[[12]],['high holistic'],['left'],['upright'],['U0178.bmp'],['male'],[[6]],['male'],[[1]],[[0.23560622]],CN
317,[[19]],[[318]],[[14]],['high holistic'],['left'],['inverted'],['U0228.bmp'],['male'],[[2]],['female'],[[0]],[[0.19417092]],CN
318,[[19]],[[319]],[[15]],['high holistic'],['right'],['upright'],['U0312.bmp'],['male'],[[10]],['male'],[[1]],[[0.16079125]],CN
319,[[19]],[[320]],[[14]],['high holistic'],['left'],['upright'],['U0228.bmp'],['male'],[[10]],['male'],[[1]],[[0.22688669]],CN
320,[[19]],[[321]],[[15]],['high holistic'],['right'],['upright'],['U0312.bmp'],['male'],[[10]],['male'],[[1]],[[0.17863918]],CN
321,[[19]],[[322]],[[8]],['high holistic'],['left'],['inverted'],['U0137.bmp'],['female'],[[10]],['male'],[[0]],[[0.0524218]],CN
322,[[19]],[[323]],[[12]],['low holistic'],['right'],['upright'],['U0178.bmp'],['female'],[[8]],['female'],[[1]],[[0.17706453]],CN
323,[[19]],[[324]],[[3]],['low holistic'],['left'],['inverted'],['U0020.bmp'],['female'],[[4]],['female'],[[1]],[[0.14472841]],CN
324,[[19]],[[325]],[[2]],['high holistic'],['right'],['upright'],['U0014.bmp'],['male'],[[12]],['male'],[[1]],[[0.14961854]],CN
325,[[19]],[[326]],[[20]],['high holistic'],['right'],['inverted'],['U0362.bmp'],['female'],[[6]],['male'],[[0]],[[0.14333225]],CN
326,[[19]],[[327]],[[6]],['low holistic'],['left'],['upright'],['U0106.bmp'],['male'],[[4]],['male'],[[1]],[[0.17746715]],CN
327,[[19]],[[328]],[[12]],['low holistic'],['right'],['upright'],['U0178.bmp'],['female'],[[10]],['female'],[[1]],[[0.26569817]],CN
328,[[19]],[[329]],[[20]],['high holistic'],['right'],['upright'],['U0362.bmp'],['female'],[[4]],['female'],[[1]],[[0.21539542]],CN
329,[[19]],[[330]],[[4]],['low holistic'],['right'],['inverted'],['U0061.bmp'],['female'],[[8]],['female'],[[1]],[[0.19921083]],CN
330,[[19]],[[331]],[[4]],['low holistic'],['left'],['upright'],['U0061.bmp'],['female'],[[10]],['female'],[[1]],[[0.20682555]],CN
331,[[19]],[[332]],[[7]],['low holistic'],['right'],['inverted'],['U0107.bmp'],['female'],[[4]],['female'],[[1]],[[0.13350897]],CN
332,[[19]],[[333]],[[19]],['high holistic'],['left'],['inverted'],['U0361.bmp'],['female'],[[6]],['male'],[[0]],[[0.24044756]],CN
333,[[19]],[[334]],[[8]],['high holistic'],['right'],['upright'],['U0137.bmp'],['female'],[[6]],['female'],[[1]],[[0.19048393]],CN
334,[[19]],[[335]],[[6]],['low holistic'],['right'],['upright'],['U0106.bmp'],['male'],[[4]],['female'],[[0]],[[0.14354585]],CN
335,[[19]],[[336]],[[4]],['high holistic'],['right'],['upright'],['U0061.bmp'],['female'],[[4]],['female'],[[1]],[[0.20885763]],CN
336,[[19]],[[337]],[[8]],['low holistic'],['right'],['upright'],['U0137.bmp'],['male'],[[8]],['male'],[[1]],[[0.17058543]],CN
337,[[19]],[[338]],[[8]],['high holistic'],['right'],['upright'],['U0137.bmp'],['female'],[[4]],['female'],[[1]],[[0.22747001]],CN
338,[[19]],[[339]],[[3]],['high holistic'],['left'],['inverted'],['U0020.bmp'],['male'],[[12]],['female'],[[0]],[[0.22466195]],CN
339,[[19]],[[340]],[[9]],['low holistic'],['right'],['upright'],['U0155.bmp'],['male'],[[12]],['male'],[[1]],[[0.20122234]],CN
340,[[19]],[[341]],[[2]],['high holistic'],['right'],['upright'],['U0014.bmp'],['male'],[[4]],['male'],[[1]],[[0.20083065]],CN
341,[[19]],[[342]],[[13]],['low holistic'],['fovea'],['inverted'],['U0181.bmp'],['male'],[[0]],['male'],[[1]],[[0.21671738]],CN
342,[[19]],[[343]],[[1]],['high holistic'],['left'],['inverted'],['U0006.bmp'],['female'],[[8]],['male'],[[0]],[[0.17647129]],CN
343,[[19]],[[344]],[[12]],['low holistic'],['left'],['inverted'],['U0178.bmp'],['female'],[[6]],['female'],[[1]],[[0.25571594]],CN
344,[[19]],[[345]],[[16]],['high holistic'],['left'],['upright'],['U0335.bmp'],['female'],[[6]],['female'],[[1]],[[0.19721521]],CN
345,[[19]],[[346]],[[5]],['high holistic'],['right'],['upright'],['U0076.bmp'],['female'],[[10]],['male'],[[0]],[[0.29571008]],CN
346,[[19]],[[347]],[[9]],['low holistic'],['right'],['upright'],['U0155.bmp'],['male'],[[4]],['male'],[[1]],[[0.20407366]],CN
347,[[19]],[[348]],[[12]],['high holistic'],['left'],['upright'],['U0178.bmp'],['male'],[[8]],['male'],[[1]],[[0.19579407]],CN
348,[[19]],[[349]],[[2]],['low holistic'],['left'],['upright'],['U0014.bmp'],['male'],[[4]],['male'],[[1]],[[0.24274403]],CN
349,[[19]],[[350]],[[10]],['high holistic'],['left'],['upright'],['U0159.bmp'],['male'],[[6]],['male'],[[1]],[[0.21622362]],CN
350,[[19]],[[351]],[[13]],['high holistic'],['left'],['upright'],['U0181.bmp'],['female'],[[6]],['female'],[[1]],[[0.17704302]],CN
351,[[19]],[[352]],[[5]],['high holistic'],['right'],['upright'],['U0076.bmp'],['female'],[[8]],['female'],[[1]],[[0.20985783]],CN
352,[[19]],[[353]],[[17]],['high holistic'],['right'],['upright'],['U0346.bmp'],['male'],[[10]],['male'],[[1]],[[0.22558011]],CN
353,[[19]],[[354]],[[20]],['low holistic'],['left'],['upright'],['U0362.bmp'],['male'],[[2]],['male'],[[1]],[[0.20647441]],CN
354,[[19]],[[355]],[[17]],['low holistic'],['right'],['upright'],['U0346.bmp'],['female'],[[4]],['female'],[[1]],[[0.23226027]],CN
355,[[19]],[[356]],[[11]],['low holistic'],['right'],['inverted'],['U0164.bmp'],['female'],[[2]],['female'],[[1]],[[0.26942908]],CN
356,[[19]],[[357]],[[6]],['high holistic'],['left'],['inverted'],['U0106.bmp'],['female'],[[4]],['female'],[[1]],[[0.17200552]],CN
357,[[19]],[[358]],[[15]],['low holistic'],['right'],['upright'],['U0312.bmp'],['male'],[[6]],['male'],[[1]],[[0.18047264]],CN
358,[[19]],[[359]],[[5]],['low holistic'],['left'],['inverted'],['U0076.bmp'],['male'],[[6]],['male'],[[1]],[[0.30881612]],CN
359,[[19]],[[360]],[[20]],['low holistic'],['right'],['inverted'],['U0362.bmp'],['male'],[[10]],['female'],[[0]],[[0.28158265]],CN
360,[[19]],[[361]],[[13]],['low holistic'],['right'],['upright'],['U0181.bmp'],['male'],[[10]],['male'],[[1]],[[0.22178537]],CN
361,[[19]],[[362]],[[13]],['low holistic'],['left'],['inverted'],['U0181.bmp'],['male'],[[10]],['male'],[[1]],[[0.2846083]],CN
362,[[19]],[[363]],[[4]],['low holistic'],['fovea'],['upright'],['U0061.bmp'],['female'],[[0]],['female'],[[1]],[[0.18630561]],CN
363,[[19]],[[364]],[[2]],['low holistic'],['left'],['upright'],['U0014.bmp'],['male'],[[6]],['male'],[[1]],[[0.26606268]],CN
364,[[19]],[[365]],[[6]],['high holistic'],['fovea'],['inverted'],['U0106.bmp'],['female'],[[0]],['male'],[[0]],[[0.22211454]],CN
365,[[19]],[[366]],[[18]],['high holistic'],['left'],['inverted'],['U0359.bmp'],['male'],[[4]],['male'],[[1]],[[0.21423497]],CN
366,[[19]],[[367]],[[19]],['low holistic'],['right'],['inverted'],['U0361.bmp'],['female'],[[4]],['female'],[[1]],[[0.21246885]],CN
367,[[19]],[[368]],[[14]],['high holistic'],['right'],['upright'],['U0228.bmp'],['male'],[[4]],['male'],[[1]],[[0.21354459]],CN
368,[[19]],[[369]],[[15]],['high holistic'],['right'],['upright'],['U0312.bmp'],['male'],[[2]],['male'],[[1]],[[0.26111633]],CN
369,[[19]],[[370]],[[5]],['high holistic'],['fovea'],['upright'],['U0076.bmp'],['female'],[[0]],['female'],[[1]],[[0.13859258]],CN
370,[[19]],[[371]],[[12]],['low holistic'],['right'],['upright'],['U0178.bmp'],['female'],[[8]],['female'],[[1]],[[0.10919637]],CN
371,[[19]],[[372]],[[17]],['low holistic'],['left'],['inverted'],['U0346.bmp'],['female'],[[4]],['female'],[[1]],[[0.10439231]],CN
372,[[19]],[[373]],[[9]],['low holistic'],['left'],['inverted'],['U0155.bmp'],['male'],[[4]],['female'],[[0]],[[0.13870432]],CN
373,[[19]],[[374]],[[20]],['high holistic'],['fovea'],['inverted'],['U0362.bmp'],['female'],[[0]],['female'],[[1]],[[0.19771316]],CN
374,[[19]],[[375]],[[2]],['high holistic'],['right'],['upright'],['U0014.bmp'],['male'],[[6]],['male'],[[1]],[[0.17238046]],CN
375,[[19]],[[376]],[[7]],['low holistic'],['left'],['inverted'],['U0107.bmp'],['female'],[[10]],['female'],[[1]],[[0.18383246]],CN
376,[[19]],[[377]],[[11]],['low holistic'],['left'],['inverted'],['U0164.bmp'],['female'],[[12]],['female'],[[1]],[[0.19211648]],CN
377,[[19]],[[378]],[[2]],['low holistic'],['right'],['upright'],['U0014.bmp'],['male'],[[10]],['male'],[[1]],[[0.16748731]],CN
378,[[19]],[[379]],[[15]],['high holistic'],['right'],['inverted'],['U0312.bmp'],['male'],[[4]],['female'],[[0]],[[0.17827078]],CN
379,[[19]],[[380]],[[12]],['high holistic'],['right'],['inverted'],['U0178.bmp'],['male'],[[10]],['female'],[[0]],[[0.19386163]],CN
380,[[19]],[[381]],[[11]],['low holistic'],['right'],['upright'],['U0164.bmp'],['female'],[[8]],['female'],[[1]],[[0.17139692]],CN
381,[[19]],[[382]],[[17]],['high holistic'],['left'],['inverted'],['U0346.bmp'],['male'],[[10]],['male'],[[1]],[[0.20391329]],CN
382,[[19]],[[383]],[[18]],['low holistic'],['right'],['upright'],['U0359.bmp'],['male'],[[4]],['male'],[[1]],[[0.21991875]],CN
383,[[19]],[[384]],[[16]],['high holistic'],['left'],['inverted'],['U0335.bmp'],['female'],[[2]],['female'],[[1]],[[0.24157558]],CN
384,[[19]],[[385]],[[7]],['low holistic'],['fovea'],['upright'],['U0107.bmp'],['female'],[[0]],['female'],[[1]],[[0.19327844]],CN
385,[[19]],[[386]],[[10]],['high holistic'],['right'],['inverted'],['U0159.bmp'],['male'],[[8]],['male'],[[1]],[[0.15401978]],CN
386,[[19]],[[387]],[[16]],['high holistic'],['left'],['inverted'],['U0335.bmp'],['female'],[[2]],['female'],[[1]],[[0.17094843]],CN
387,[[19]],[[388]],[[3]],['high holistic'],['left'],['inverted'],['U0020.bmp'],['male'],[[8]],['female'],[[0]],[[0.21244314]],CN
388,[[19]],[[389]],[[3]],['low holistic'],['right'],['inverted'],['U0020.bmp'],['female'],[[8]],['female'],[[1]],[[0.20489014]],CN
389,[[19]],[[390]],[[6]],['high holistic'],['right'],['inverted'],['U0106.bmp'],['female'],[[2]],['female'],[[1]],[[0.23715699]],CN
390,[[19]],[[391]],[[11]],['high holistic'],['left'],['upright'],['U0164.bmp'],['female'],[[2]],['female'],[[1]],[[0.00024121]],CN
391,[[19]],[[392]],[[20]],['high holistic'],['left'],['upright'],['U0362.bmp'],['female'],[[6]],['female'],[[1]],[[1.53519872]],CN
392,[[19]],[[393]],[[15]],['high holistic'],['right'],['inverted'],['U0312.bmp'],['male'],[[8]],['female'],[[0]],[[0.00872272]],CN
393,[[19]],[[394]],[[7]],['high holistic'],['right'],['inverted'],['U0107.bmp'],['female'],[[8]],['female'],[[1]],[[0.04925556]],CN
394,[[19]],[[395]],[[6]],['high holistic'],['left'],['inverted'],['U0106.bmp'],['female'],[[8]],['female'],[[1]],[[0.22253043]],CN
395,[[19]],[[396]],[[18]],['high holistic'],['right'],['inverted'],['U0359.bmp'],['male'],[[6]],['male'],[[1]],[[0.17565796]],CN
396,[[19]],[[397]],[[19]],['low holistic'],['left'],['inverted'],['U0361.bmp'],['female'],[[10]],['female'],[[1]],[[0.18365023]],CN
397,[[19]],[[398]],[[13]],['high holistic'],['left'],['upright'],['U0181.bmp'],['female'],[[4]],['female'],[[1]],[[0.15832433]],CN
398,[[19]],[[399]],[[6]],['high holistic'],['right'],['inverted'],['U0106.bmp'],['female'],[[2]],['female'],[[1]],[[0.26464142]],CN
399,[[19]],[[400]],[[2]],['low holistic'],['right'],['upright'],['U0014.bmp'],['male'],[[2]],['male'],[[1]],[[0.20566025]],CN
400,[[19]],[[401]],[[17]],['low holistic'],['left'],['inverted'],['U0346.bmp'],['female'],[[8]],['female'],[[1]],[[0.21250875]],CN
401,[[19]],[[402]],[[12]],['high holistic'],['left'],['upright'],['U0178.bmp'],['male'],[[2]],['male'],[[1]],[[0.35709413]],CN
402,[[19]],[[403]],[[19]],['high holistic'],['right'],['inverted'],['U0361.bmp'],['female'],[[6]],['female'],[[1]],[[0.21409763]],CN
403,[[19]],[[404]],[[2]],['low holistic'],['left'],['inverted'],['U0014.bmp'],['male'],[[10]],['female'],[[0]],[[0.26213186]],CN
404,[[19]],[[405]],[[12]],['low holistic'],['right'],['inverted'],['U0178.bmp'],['female'],[[8]],['male'],[[0]],[[0.19488624]],CN
405,[[19]],[[406]],[[6]],['high holistic'],['left'],['upright'],['U0106.bmp'],['female'],[[4]],['female'],[[1]],[[0.23575068]],CN
406,[[19]],[[407]],[[17]],['high holistic'],['right'],['upright'],['U0346.bmp'],['male'],[[8]],['male'],[[1]],[[0.25852879]],CN
407,[[19]],[[408]],[[4]],['low holistic'],['right'],['inverted'],['U0061.bmp'],['female'],[[12]],['female'],[[1]],[[0.37462899]],CN
408,[[19]],[[409]],[[9]],['low holistic'],['right'],['upright'],['U0155.bmp'],['male'],[[4]],['male'],[[1]],[[0.18542849]],CN
409,[[19]],[[410]],[[8]],['high holistic'],['left'],['inverted'],['U0137.bmp'],['female'],[[6]],['female'],[[1]],[[0.24100747]],CN
410,[[19]],[[411]],[[17]],['high holistic'],['left'],['inverted'],['U0346.bmp'],['male'],[[4]],['female'],[[0]],[[0.16665617]],CN
411,[[19]],[[412]],[[14]],['high holistic'],['left'],['inverted'],['U0228.bmp'],['male'],[[6]],['male'],[[1]],[[0.3448027]],CN
412,[[19]],[[413]],[[5]],['high holistic'],['right'],['upright'],['U0076.bmp'],['female'],[[2]],['female'],[[1]],[[0.23595779]],CN
413,[[19]],[[414]],[[7]],['low holistic'],['fovea'],['inverted'],['U0107.bmp'],['female'],[[0]],['female'],[[1]],[[0.25727229]],CN
414,[[19]],[[415]],[[3]],['high holistic'],['left'],['inverted'],['U0020.bmp'],['male'],[[6]],['female'],[[0]],[[0.2457746]],CN
415,[[19]],[[416]],[[14]],['high holistic'],['left'],['inverted'],['U0228.bmp'],['male'],[[10]],['male'],[[1]],[[0.34118127]],CN
416,[[19]],[[417]],[[12]],['low holistic'],['left'],['upright'],['U0178.bmp'],['female'],[[2]],['female'],[[1]],[[0.1840902]],CN
417,[[19]],[[418]],[[4]],['low holistic'],['left'],['upright'],['U0061.bmp'],['female'],[[8]],['female'],[[1]],[[0.24892405]],CN
418,[[19]],[[419]],[[3]],['high holistic'],['left'],['upright'],['U0020.bmp'],['male'],[[6]],['male'],[[1]],[[0.28655973]],CN
419,[[19]],[[420]],[[10]],['low holistic'],['right'],['upright'],['U0159.bmp'],['female'],[[6]],['female'],[[1]],[[0.17866644]],CN
420,[[19]],[[421]],[[19]],['low holistic'],['left'],['inverted'],['U0361.bmp'],['female'],[[2]],['female'],[[1]],[[0.30725484]],CN
421,[[19]],[[422]],[[12]],['low holistic'],['right'],['upright'],['U0178.bmp'],['female'],[[10]],['female'],[[1]],[[0.19823918]],CN
422,[[19]],[[423]],[[1]],['low holistic'],['right'],['upright'],['U0006.bmp'],['female'],[[6]],['female'],[[1]],[[0.23936347]],CN
423,[[19]],[[424]],[[2]],['high holistic'],['left'],['inverted'],['U0014.bmp'],['male'],[[12]],['female'],[[0]],[[0.34099988]],CN
424,[[19]],[[425]],[[17]],['low holistic'],['left'],['upright'],['U0346.bmp'],['female'],[[6]],['female'],[[1]],[[0.15880624]],CN
425,[[19]],[[426]],[[10]],['low holistic'],['left'],['inverted'],['U0159.bmp'],['female'],[[2]],['female'],[[1]],[[0.19129157]],CN
426,[[19]],[[427]],[[8]],['high holistic'],['right'],['inverted'],['U0137.bmp'],['female'],[[12]],['male'],[[0]],[[0.17620124]],CN
427,[[19]],[[428]],[[16]],['low holistic'],['left'],['inverted'],['U0335.bmp'],['female'],[[2]],['male'],[[0]],[[0.13717884]],CN
428,[[19]],[[429]],[[8]],['high holistic'],['right'],['inverted'],['U0137.bmp'],['female'],[[4]],['male'],[[0]],[[0.27480703]],CN
429,[[19]],[[430]],[[11]],['low holistic'],['left'],['upright'],['U0164.bmp'],['female'],[[6]],['female'],[[1]],[[0.20991286]],CN
430,[[19]],[[431]],[[15]],['low holistic'],['left'],['inverted'],['U0312.bmp'],['male'],[[6]],['male'],[[1]],[[0.19894714]],CN
431,[[19]],[[432]],[[18]],['high holistic'],['right'],['inverted'],['U0359.bmp'],['male'],[[8]],['female'],[[0]],[[0.2645215]],CN
432,[[19]],[[433]],[[7]],['high holistic'],['right'],['inverted'],['U0107.bmp'],['female'],[[2]],['female'],[[1]],[[0.22910352]],CN
433,[[19]],[[434]],[[14]],['high holistic'],['left'],['upright'],['U0228.bmp'],['male'],[[10]],['male'],[[1]],[[0.15629559]],CN
434,[[19]],[[435]],[[20]],['high holistic'],['left'],['inverted'],['U0362.bmp'],['female'],[[8]],['female'],[[1]],[[0.24574246]],CN
435,[[19]],[[436]],[[2]],['high holistic'],['left'],['upright'],['U0014.bmp'],['male'],[[8]],['male'],[[1]],[[0.19527857]],CN
436,[[19]],[[437]],[[12]],['high holistic'],['right'],['inverted'],['U0178.bmp'],['male'],[[4]],['male'],[[1]],[[0.24264795]],CN
437,[[19]],[[438]],[[9]],['low holistic'],['right'],['inverted'],['U0155.bmp'],['male'],[[6]],['male'],[[1]],[[0.16902811]],CN
438,[[19]],[[439]],[[7]],['high holistic'],['right'],['upright'],['U0107.bmp'],['female'],[[6]],['female'],[[1]],[[0.25822283]],CN
439,[[19]],[[440]],[[6]],['high holistic'],['right'],['inverted'],['U0106.bmp'],['female'],[[10]],['female'],[[1]],[[0.30465459]],CN
440,[[19]],[[441]],[[16]],['high holistic'],['right'],['upright'],['U0335.bmp'],['female'],[[12]],['female'],[[1]],[[0.22049362]],CN
441,[[19]],[[442]],[[20]],['high holistic'],['right'],['inverted'],['U0362.bmp'],['female'],[[8]],['female'],[[1]],[[0.30749202]],CN
442,[[19]],[[443]],[[4]],['low holistic'],['right'],['inverted'],['U0061.bmp'],['female'],[[12]],['female'],[[1]],[[0.222185]],CN
443,[[19]],[[444]],[[16]],['low holistic'],['fovea'],['upright'],['U0335.bmp'],['female'],[[0]],['female'],[[1]],[[0.18042749]],CN
444,[[19]],[[445]],[[4]],['high holistic'],['right'],['upright'],['U0061.bmp'],['female'],[[4]],['female'],[[1]],[[0.25379879]],CN
445,[[19]],[[446]],[[20]],['low holistic'],['right'],['upright'],['U0362.bmp'],['male'],[[10]],['male'],[[1]],[[0.26577305]],CN
446,[[19]],[[447]],[[17]],['low holistic'],['left'],['inverted'],['U0346.bmp'],['female'],[[8]],['female'],[[1]],[[0.20121628]],CN
447,[[19]],[[448]],[[9]],['low holistic'],['left'],['inverted'],['U0155.bmp'],['male'],[[2]],['male'],[[1]],[[0.2230693]],CN
448,[[19]],[[449]],[[15]],['low holistic'],['right'],['upright'],['U0312.bmp'],['male'],[[4]],['male'],[[1]],[[0.25398528]],CN
449,[[19]],[[450]],[[10]],['low holistic'],['right'],['upright'],['U0159.bmp'],['female'],[[8]],['female'],[[1]],[[0.23693318]],CN
450,[[19]],[[451]],[[17]],['low holistic'],['right'],['inverted'],['U0346.bmp'],['female'],[[8]],['female'],[[1]],[[0.25079192]],CN
451,[[19]],[[452]],[[8]],['low holistic'],['right'],['inverted'],['U0137.bmp'],['male'],[[4]],['male'],[[1]],[[0.21722845]],CN
452,[[19]],[[453]],[[2]],['low holistic'],['left'],['upright'],['U0014.bmp'],['male'],[[4]],['male'],[[1]],[[0.21504742]],CN
453,[[19]],[[454]],[[12]],['high holistic'],['right'],['inverted'],['U0178.bmp'],['male'],[[4]],['male'],[[1]],[[0.29412514]],CN
454,[[19]],[[455]],[[19]],['low holistic'],['left'],['inverted'],['U0361.bmp'],['female'],[[8]],['female'],[[1]],[[0.26671668]],CN
455,[[19]],[[456]],[[4]],['low holistic'],['left'],['inverted'],['U0061.bmp'],['female'],[[4]],['female'],[[1]],[[0.27365958]],CN
456,[[19]],[[457]],[[9]],['high holistic'],['right'],['upright'],['U0155.bmp'],['female'],[[6]],['female'],[[1]],[[0.27730037]],CN
457,[[19]],[[458]],[[15]],['low holistic'],['right'],['upright'],['U0312.bmp'],['male'],[[12]],['male'],[[1]],[[0.23384681]],CN
458,[[19]],[[459]],[[1]],['high holistic'],['left'],['upright'],['U0006.bmp'],['female'],[[4]],['female'],[[1]],[[0.31987262]],CN
459,[[19]],[[460]],[[19]],['high holistic'],['left'],['inverted'],['U0361.bmp'],['female'],[[8]],['male'],[[0]],[[0.27655837]],CN
460,[[19]],[[461]],[[16]],['high holistic'],['right'],['upright'],['U0335.bmp'],['female'],[[10]],['female'],[[1]],[[0.29674706]],CN
461,[[19]],[[462]],[[12]],['high holistic'],['right'],['upright'],['U0178.bmp'],['male'],[[6]],['male'],[[1]],[[0.54003645]],CN
462,[[19]],[[463]],[[4]],['low holistic'],['left'],['inverted'],['U0061.bmp'],['female'],[[6]],['female'],[[1]],[[0.26046242]],CN
463,[[19]],[[464]],[[10]],['high holistic'],['right'],['upright'],['U0159.bmp'],['male'],[[12]],['male'],[[1]],[[0.28191776]],CN
464,[[19]],[[465]],[[11]],['low holistic'],['right'],['inverted'],['U0164.bmp'],['female'],[[6]],['female'],[[1]],[[0.18984864]],CN
465,[[19]],[[466]],[[20]],['low holistic'],['right'],['inverted'],['U0362.bmp'],['male'],[[8]],['male'],[[1]],[[0.20811195]],CN
466,[[19]],[[467]],[[18]],['low holistic'],['right'],['inverted'],['U0359.bmp'],['male'],[[2]],['female'],[[0]],[[0.23191911]],CN
467,[[19]],[[468]],[[20]],['low holistic'],['left'],['inverted'],['U0362.bmp'],['male'],[[4]],['male'],[[1]],[[0.19696523]],CN
468,[[19]],[[469]],[[14]],['low holistic'],['left'],['upright'],['U0228.bmp'],['male'],[[4]],['male'],[[1]],[[0.25338336]],CN
469,[[19]],[[470]],[[9]],['high holistic'],['left'],['inverted'],['U0155.bmp'],['female'],[[10]],['male'],[[0]],[[0.266886]],CN
470,[[19]],[[471]],[[19]],['high holistic'],['right'],['inverted'],['U0361.bmp'],['female'],[[4]],['female'],[[1]],[[0.31300347]],CN
471,[[19]],[[472]],[[10]],['low holistic'],['left'],['inverted'],['U0159.bmp'],['female'],[[2]],['female'],[[1]],[[0.21282064]],CN
472,[[19]],[[473]],[[5]],['low holistic'],['left'],['inverted'],['U0076.bmp'],['male'],[[6]],['male'],[[1]],[[0.24277005]],CN
473,[[19]],[[474]],[[8]],['low holistic'],['left'],['upright'],['U0137.bmp'],['male'],[[12]],['male'],[[1]],[[0.16060981]],CN
474,[[19]],[[475]],[[15]],['low holistic'],['left'],['inverted'],['U0312.bmp'],['male'],[[10]],['male'],[[1]],[[0.20204571]],CN
475,[[19]],[[476]],[[12]],['low holistic'],['left'],['upright'],['U0178.bmp'],['female'],[[2]],['female'],[[1]],[[0.20300453]],CN
476,[[19]],[[477]],[[16]],['low holistic'],['left'],['inverted'],['U0335.bmp'],['female'],[[4]],['male'],[[0]],[[0.23459989]],CN
477,[[19]],[[478]],[[20]],['high holistic'],['right'],['inverted'],['U0362.bmp'],['female'],[[12]],['male'],[[0]],[[0.39364744]],CN
478,[[19]],[[479]],[[20]],['high holistic'],['left'],['upright'],['U0362.bmp'],['female'],[[8]],['female'],[[1]],[[0.40069063]],CN
479,[[19]],[[480]],[[11]],['high holistic'],['right'],['inverted'],['U0164.bmp'],['female'],[[12]],['male'],[[0]],[[0.16801647]],CN
480,[[19]],[[481]],[[20]],['high holistic'],['left'],['upright'],['U0362.bmp'],['female'],[[2]],['female'],[[1]],[[0.24885497]],CN
481,[[19]],[[482]],[[3]],['low holistic'],['right'],['upright'],['U0020.bmp'],['female'],[[2]],['female'],[[1]],[[0.24056366]],CN
482,[[19]],[[483]],[[2]],['high holistic'],['right'],['inverted'],['U0014.bmp'],['male'],[[12]],['male'],[[1]],[[0.41362702]],CN
483,[[19]],[[484]],[[7]],['high holistic'],['right'],['upright'],['U0107.bmp'],['female'],[[12]],['male'],[[0]],[[0.30153869]],CN
484,[[19]],[[485]],[[12]],['low holistic'],['right'],['inverted'],['U0178.bmp'],['female'],[[2]],['female'],[[1]],[[0.19200262]],CN
485,[[19]],[[486]],[[11]],['low holistic'],['left'],['inverted'],['U0164.bmp'],['female'],[[12]],['female'],[[1]],[[0.26429102]],CN
486,[[19]],[[487]],[[19]],['low holistic'],['fovea'],['upright'],['U0361.bmp'],['female'],[[0]],['female'],[[1]],[[0.13372062]],CN
487,[[19]],[[488]],[[11]],['low holistic'],['left'],['inverted'],['U0164.bmp'],['female'],[[12]],['female'],[[1]],[[0.17588541]],CN
488,[[19]],[[489]],[[9]],['low holistic'],['right'],['inverted'],['U0155.bmp'],['male'],[[2]],['male'],[[1]],[[0.19979215]],CN
489,[[19]],[[490]],[[11]],['low holistic'],['right'],['upright'],['U0164.bmp'],['female'],[[2]],['female'],[[1]],[[0.1428508]],CN
490,[[19]],[[491]],[[15]],['low holistic'],['left'],['upright'],['U0312.bmp'],['male'],[[6]],['male'],[[1]],[[0.17110799]],CN
491,[[19]],[[492]],[[1]],['low holistic'],['right'],['inverted'],['U0006.bmp'],['female'],[[10]],['male'],[[0]],[[0.20424766]],CN
492,[[19]],[[493]],[[17]],['high holistic'],['left'],['upright'],['U0346.bmp'],['male'],[[4]],['male'],[[1]],[[0.27562228]],CN
493,[[19]],[[494]],[[3]],['high holistic'],['right'],['upright'],['U0020.bmp'],['male'],[[6]],['female'],[[0]],[[0.34393375]],CN
494,[[19]],[[495]],[[10]],['high holistic'],['left'],['inverted'],['U0159.bmp'],['male'],[[8]],['male'],[[1]],[[0.23430722]],CN
495,[[19]],[[496]],[[6]],['high holistic'],['right'],['upright'],['U0106.bmp'],['female'],[[2]],['female'],[[1]],[[0.18388606]],CN
496,[[19]],[[497]],[[8]],['low holistic'],['right'],['inverted'],['U0137.bmp'],['male'],[[4]],['female'],[[0]],[[0.2079832]],CN
497,[[19]],[[498]],[[14]],['low holistic'],['right'],['inverted'],['U0228.bmp'],['male'],[[4]],['male'],[[1]],[[0.26236877]],CN
498,[[19]],[[499]],[[4]],['low holistic'],['right'],['upright'],['U0061.bmp'],['female'],[[4]],['female'],[[1]],[[0.21330766]],CN
499,[[19]],[[500]],[[6]],['low holistic'],['right'],['upright'],['U0106.bmp'],['male'],[[8]],['male'],[[1]],[[0.25242097]],CN
500,[[19]],[[501]],[[4]],['low holistic'],['right'],['inverted'],['U0061.bmp'],['female'],[[2]],['female'],[[1]],[[0.22569995]],CN
501,[[19]],[[502]],[[4]],['high holistic'],['left'],['inverted'],['U0061.bmp'],['female'],[[2]],['female'],[[1]],[[0.28913009]],CN
502,[[19]],[[503]],[[7]],['high holistic'],['right'],['upright'],['U0107.bmp'],['female'],[[12]],['female'],[[1]],[[0.26166367]],CN
503,[[19]],[[504]],[[18]],['low holistic'],['right'],['inverted'],['U0359.bmp'],['male'],[[12]],['male'],[[1]],[[0.29457666]],CN
504,[[19]],[[505]],[[10]],['low holistic'],['fovea'],['inverted'],['U0159.bmp'],['female'],[[0]],['female'],[[1]],[[0.17374611]],CN
505,[[19]],[[506]],[[9]],['low holistic'],['right'],['inverted'],['U0155.bmp'],['male'],[[12]],['male'],[[1]],[[0.23899636]],CN
506,[[19]],[[507]],[[4]],['high holistic'],['left'],['upright'],['U0061.bmp'],['female'],[[12]],['female'],[[1]],[[0.19691978]],CN
507,[[19]],[[508]],[[20]],['low holistic'],['left'],['upright'],['U0362.bmp'],['male'],[[6]],['male'],[[1]],[[0.18839201]],CN
508,[[19]],[[509]],[[9]],['high holistic'],['right'],['upright'],['U0155.bmp'],['female'],[[2]],['female'],[[1]],[[0.22917408]],CN
509,[[19]],[[510]],[[17]],['low holistic'],['left'],['upright'],['U0346.bmp'],['female'],[[4]],['female'],[[1]],[[0.26541877]],CN
510,[[19]],[[511]],[[13]],['low holistic'],['left'],['upright'],['U0181.bmp'],['male'],[[6]],['male'],[[1]],[[0.24649972]],CN
511,[[19]],[[512]],[[8]],['high holistic'],['left'],['upright'],['U0137.bmp'],['female'],[[8]],['male'],[[0]],[[0.26203962]],CN
512,[[19]],[[513]],[[18]],['high holistic'],['left'],['inverted'],['U0359.bmp'],['male'],[[4]],['male'],[[1]],[[0.24176744]],CN
513,[[19]],[[514]],[[16]],['high holistic'],['right'],['inverted'],['U0335.bmp'],['female'],[[10]],['male'],[[0]],[[0.35163818]],CN
514,[[19]],[[515]],[[10]],['low holistic'],['left'],['upright'],['U0159.bmp'],['female'],[[6]],['female'],[[1]],[[0.16951373]],CN
515,[[19]],[[516]],[[17]],['high holistic'],['left'],['inverted'],['U0346.bmp'],['male'],[[8]],['male'],[[1]],[[0.22652873]],CN
516,[[19]],[[517]],[[18]],['low holistic'],['left'],['inverted'],['U0359.bmp'],['male'],[[2]],['male'],[[1]],[[0.27290187]],CN
517,[[19]],[[518]],[[9]],['high holistic'],['right'],['inverted'],['U0155.bmp'],['female'],[[2]],['male'],[[0]],[[0.24606536]],CN
518,[[19]],[[519]],[[7]],['high holistic'],['left'],['inverted'],['U0107.bmp'],['female'],[[12]],['male'],[[0]],[[0.41312214]],CN
519,[[19]],[[520]],[[12]],['low holistic'],['left'],['inverted'],['U0178.bmp'],['female'],[[8]],['female'],[[1]],[[0.15701648]],CN
520,[[19]],[[521]],[[19]],['low holistic'],['fovea'],['upright'],['U0361.bmp'],['female'],[[0]],['male'],[[0]],[[0.00023987]],CN
521,[[19]],[[522]],[[15]],['high holistic'],['right'],['upright'],['U0312.bmp'],['male'],[[10]],['male'],[[1]],[[0.13212537]],CN
522,[[19]],[[523]],[[8]],['high holistic'],['right'],['upright'],['U0137.bmp'],['female'],[[10]],['female'],[[1]],[[0.30366044]],CN
523,[[19]],[[524]],[[15]],['high holistic'],['left'],['inverted'],['U0312.bmp'],['male'],[[8]],['male'],[[1]],[[0.29030544]],CN
524,[[19]],[[525]],[[20]],['high holistic'],['left'],['inverted'],['U0362.bmp'],['female'],[[8]],['male'],[[0]],[[0.20655833]],CN
525,[[19]],[[526]],[[11]],['low holistic'],['left'],['inverted'],['U0164.bmp'],['female'],[[6]],['male'],[[0]],[[0.03130648]],CN
526,[[19]],[[527]],[[11]],['high holistic'],['right'],['upright'],['U0164.bmp'],['female'],[[12]],['female'],[[1]],[[0.07802426]],CN
527,[[19]],[[528]],[[7]],['low holistic'],['left'],['upright'],['U0107.bmp'],['female'],[[2]],['female'],[[1]],[[0.00010465]],CN
528,[[19]],[[529]],[[2]],['high holistic'],['left'],['inverted'],['U0014.bmp'],['male'],[[2]],['female'],[[0]],[[0.07355243]],CN
529,[[19]],[[530]],[[4]],['low holistic'],['left'],['upright'],['U0061.bmp'],['female'],[[8]],['female'],[[1]],[[0.02122609]],CN
530,[[19]],[[531]],[[2]],['low holistic'],['right'],['upright'],['U0014.bmp'],['male'],[[6]],['male'],[[1]],[[0.3077943]],CN
531,[[19]],[[532]],[[10]],['high holistic'],['left'],['upright'],['U0159.bmp'],['male'],[[6]],['male'],[[1]],[[0.2868719]],CN
532,[[19]],[[533]],[[1]],['low holistic'],['right'],['inverted'],['U0006.bmp'],['female'],[[6]],['female'],[[1]],[[0.21949653]],CN
533,[[19]],[[534]],[[19]],['low holistic'],['right'],['inverted'],['U0361.bmp'],['female'],[[8]],['female'],[[1]],[[0.21967965]],CN
534,[[19]],[[535]],[[13]],['low holistic'],['right'],['inverted'],['U0181.bmp'],['male'],[[8]],['male'],[[1]],[[0.24088755]],CN
535,[[19]],[[536]],[[1]],['low holistic'],['left'],['inverted'],['U0006.bmp'],['female'],[[2]],['female'],[[1]],[[0.18265013]],CN
536,[[19]],[[537]],[[1]],['high holistic'],['right'],['inverted'],['U0006.bmp'],['female'],[[4]],['male'],[[0]],[[0.23307694]],CN
537,[[19]],[[538]],[[5]],['high holistic'],['left'],['inverted'],['U0076.bmp'],['female'],[[12]],['male'],[[0]],[[0.27839416]],CN
538,[[19]],[[539]],[[10]],['low holistic'],['right'],['upright'],['U0159.bmp'],['female'],[[12]],['female'],[[1]],[[0.23404969]],CN
539,[[19]],[[540]],[[3]],['low holistic'],['fovea'],['upright'],['U0020.bmp'],['female'],[[0]],['female'],[[1]],[[0.16085971]],CN
540,[[19]],[[541]],[[1]],['high holistic'],['fovea'],['inverted'],['U0006.bmp'],['female'],[[0]],['male'],[[0]],[[0.17761786]],CN
541,[[19]],[[542]],[[15]],['high holistic'],['right'],['upright'],['U0312.bmp'],['male'],[[12]],['male'],[[1]],[[0.30638938]],CN
542,[[19]],[[543]],[[8]],['low holistic'],['fovea'],['upright'],['U0137.bmp'],['male'],[[0]],['male'],[[1]],[[0.31778018]],CN
543,[[19]],[[544]],[[16]],['low holistic'],['fovea'],['inverted'],['U0335.bmp'],['female'],[[0]],['female'],[[1]],[[0.33832837]],CN
544,[[19]],[[545]],[[9]],['low holistic'],['right'],['inverted'],['U0155.bmp'],['male'],[[2]],['male'],[[1]],[[0.17810952]],CN
545,[[19]],[[546]],[[9]],['high holistic'],['fovea'],['upright'],['U0155.bmp'],['female'],[[0]],['female'],[[1]],[[0.32411865]],CN
546,[[19]],[[547]],[[1]],['high holistic'],['left'],['inverted'],['U0006.bmp'],['female'],[[8]],['female'],[[1]],[[0.4055472]],CN
547,[[19]],[[548]],[[1]],['low holistic'],['fovea'],['upright'],['U0006.bmp'],['female'],[[0]],['female'],[[1]],[[0.29312187]],CN
548,[[19]],[[549]],[[2]],['low holistic'],['right'],['upright'],['U0014.bmp'],['male'],[[6]],['male'],[[1]],[[0.25865087]],CN
549,[[19]],[[550]],[[12]],['high holistic'],['left'],['inverted'],['U0178.bmp'],['male'],[[4]],['male'],[[1]],[[0.27926244]],CN
550,[[19]],[[551]],[[5]],['low holistic'],['right'],['upright'],['U0076.bmp'],['male'],[[6]],['male'],[[1]],[[0.25225267]],CN
551,[[19]],[[552]],[[17]],['high holistic'],['left'],['upright'],['U0346.bmp'],['male'],[[6]],['male'],[[1]],[[0.25757809]],CN
552,[[19]],[[553]],[[18]],['low holistic'],['left'],['upright'],['U0359.bmp'],['male'],[[6]],['male'],[[1]],[[0.31149366]],CN
553,[[19]],[[554]],[[20]],['high holistic'],['left'],['inverted'],['U0362.bmp'],['female'],[[10]],['female'],[[1]],[[0.31364984]],CN
554,[[19]],[[555]],[[10]],['low holistic'],['right'],['upright'],['U0159.bmp'],['female'],[[10]],['female'],[[1]],[[0.24437728]],CN
555,[[19]],[[556]],[[5]],['low holistic'],['right'],['upright'],['U0076.bmp'],['male'],[[4]],['male'],[[1]],[[0.23416128]],CN
556,[[19]],[[557]],[[5]],['low holistic'],['right'],['upright'],['U0076.bmp'],['male'],[[12]],['male'],[[1]],[[0.32207495]],CN
557,[[19]],[[558]],[[11]],['low holistic'],['right'],['upright'],['U0164.bmp'],['female'],[[2]],['female'],[[1]],[[0.18863831]],CN
558,[[19]],[[559]],[[16]],['high holistic'],['left'],['inverted'],['U0335.bmp'],['female'],[[10]],['male'],[[0]],[[0.25118351]],CN
559,[[19]],[[560]],[[7]],['high holistic'],['left'],['inverted'],['U0107.bmp'],['female'],[[4]],['male'],[[0]],[[0.36188807]],CN
560,[[19]],[[561]],[[10]],['low holistic'],['left'],['upright'],['U0159.bmp'],['female'],[[6]],['female'],[[1]],[[0.31404752]],CN
561,[[19]],[[562]],[[13]],['high holistic'],['left'],['upright'],['U0181.bmp'],['female'],[[4]],['female'],[[1]],[[0.23835517]],CN
562,[[19]],[[563]],[[19]],['high holistic'],['right'],['upright'],['U0361.bmp'],['female'],[[10]],['female'],[[1]],[[0.47622245]],CN
563,[[19]],[[564]],[[4]],['low holistic'],['fovea'],['upright'],['U0061.bmp'],['female'],[[0]],['female'],[[1]],[[0.23354164]],CN
564,[[19]],[[565]],[[15]],['low holistic'],['right'],['inverted'],['U0312.bmp'],['male'],[[12]],['male'],[[1]],[[0.42159257]],CN
565,[[19]],[[566]],[[12]],['high holistic'],['left'],['upright'],['U0178.bmp'],['male'],[[12]],['male'],[[1]],[[0.43613528]],CN
566,[[19]],[[567]],[[9]],['high holistic'],['left'],['inverted'],['U0155.bmp'],['female'],[[2]],['male'],[[0]],[[0.36254116]],CN
567,[[19]],[[568]],[[18]],['high holistic'],['left'],['inverted'],['U0359.bmp'],['male'],[[2]],['male'],[[1]],[[0.3491026]],CN
568,[[19]],[[569]],[[8]],['low holistic'],['left'],['inverted'],['U0137.bmp'],['male'],[[10]],['male'],[[1]],[[0.28638949]],CN
569,[[19]],[[570]],[[4]],['high holistic'],['left'],['upright'],['U0061.bmp'],['female'],[[4]],['female'],[[1]],[[0.2897858]],CN
570,[[19]],[[571]],[[13]],['high holistic'],['left'],['upright'],['U0181.bmp'],['female'],[[2]],['female'],[[1]],[[0.26352214]],CN
571,[[19]],[[572]],[[13]],['low holistic'],['left'],['upright'],['U0181.bmp'],['male'],[[6]],['male'],[[1]],[[0.20299609]],CN
572,[[19]],[[573]],[[7]],['high holistic'],['right'],['upright'],['U0107.bmp'],['female'],[[2]],['female'],[[1]],[[0.27460694]],CN
573,[[19]],[[574]],[[17]],['high holistic'],['left'],['upright'],['U0346.bmp'],['male'],[[6]],['male'],[[1]],[[0.19244952]],CN
574,[[19]],[[575]],[[20]],['low holistic'],['fovea'],['inverted'],['U0362.bmp'],['male'],[[0]],['male'],[[1]],[[0.29677857]],CN
575,[[19]],[[576]],[[20]],['low holistic'],['right'],['upright'],['U0362.bmp'],['male'],[[8]],['male'],[[1]],[[0.22584084]],CN
576,[[19]],[[577]],[[3]],['high holistic'],['right'],['inverted'],['U0020.bmp'],['male'],[[6]],['male'],[[1]],[[0.20192285]],CN
577,[[19]],[[578]],[[5]],['low holistic'],['left'],['upright'],['U0076.bmp'],['male'],[[6]],['male'],[[1]],[[0.28251485]],CN
578,[[19]],[[579]],[[1]],['low holistic'],['left'],['upright'],['U0006.bmp'],['female'],[[4]],['female'],[[1]],[[0.23676021]],CN
579,[[19]],[[580]],[[13]],['high holistic'],['right'],['upright'],['U0181.bmp'],['female'],[[8]],['female'],[[1]],[[0.2767312]],CN
580,[[19]],[[581]],[[3]],['low holistic'],['fovea'],['inverted'],['U0020.bmp'],['female'],[[0]],['female'],[[1]],[[0.28009155]],CN
581,[[19]],[[582]],[[9]],['high holistic'],['fovea'],['inverted'],['U0155.bmp'],['female'],[[0]],['female'],[[1]],[[0.30021524]],CN
582,[[19]],[[583]],[[18]],['high holistic'],['right'],['upright'],['U0359.bmp'],['male'],[[2]],['male'],[[1]],[[0.28783237]],CN
583,[[19]],[[584]],[[11]],['high holistic'],['right'],['inverted'],['U0164.bmp'],['female'],[[4]],['female'],[[1]],[[0.39591881]],CN
584,[[19]],[[585]],[[8]],['low holistic'],['left'],['inverted'],['U0137.bmp'],['male'],[[12]],['female'],[[0]],[[0.28378862]],CN
585,[[19]],[[586]],[[5]],['high holistic'],['left'],['upright'],['U0076.bmp'],['female'],[[2]],['female'],[[1]],[[0.20012469]],CN
586,[[19]],[[587]],[[9]],['low holistic'],['left'],['upright'],['U0155.bmp'],['male'],[[2]],['male'],[[1]],[[0.00015176]],CN
587,[[19]],[[588]],[[20]],['low holistic'],['left'],['inverted'],['U0362.bmp'],['male'],[[6]],['male'],[[1]],[[0.47948421]],CN
588,[[19]],[[589]],[[3]],['low holistic'],['right'],['upright'],['U0020.bmp'],['female'],[[12]],['female'],[[1]],[[0.24535314]],CN
589,[[19]],[[590]],[[10]],['high holistic'],['right'],['upright'],['U0159.bmp'],['male'],[[8]],['male'],[[1]],[[0.39465052]],CN
590,[[19]],[[591]],[[18]],['high holistic'],['left'],['upright'],['U0359.bmp'],['male'],[[2]],['male'],[[1]],[[0.26542388]],CN
591,[[19]],[[592]],[[1]],['low holistic'],['left'],['inverted'],['U0006.bmp'],['female'],[[4]],['female'],[[1]],[[0.18464998]],CN
592,[[19]],[[593]],[[14]],['low holistic'],['right'],['inverted'],['U0228.bmp'],['male'],[[4]],['male'],[[1]],[[0.20068077]],CN
593,[[19]],[[594]],[[20]],['high holistic'],['left'],['inverted'],['U0362.bmp'],['female'],[[4]],['female'],[[1]],[[0.28621038]],CN
594,[[19]],[[595]],[[6]],['high holistic'],['left'],['inverted'],['U0106.bmp'],['female'],[[8]],['female'],[[1]],[[0.37993136]],CN
595,[[19]],[[596]],[[3]],['high holistic'],['left'],['upright'],['U0020.bmp'],['male'],[[12]],['female'],[[0]],[[0.3882521]],CN
596,[[19]],[[597]],[[14]],['low holistic'],['right'],['inverted'],['U0228.bmp'],['male'],[[8]],['male'],[[1]],[[0.21898716]],CN
597,[[19]],[[598]],[[19]],['high holistic'],['right'],['inverted'],['U0361.bmp'],['female'],[[8]],['female'],[[1]],[[0.3317924]],CN
598,[[19]],[[599]],[[13]],['low holistic'],['right'],['upright'],['U0181.bmp'],['male'],[[8]],['male'],[[1]],[[0.26112617]],CN
599,[[19]],[[600]],[[18]],['high holistic'],['left'],['inverted'],['U0359.bmp'],['male'],[[10]],['male'],[[1]],[[0.19386941]],CN
600,[[19]],[[601]],[[4]],['low holistic'],['right'],['upright'],['U0061.bmp'],['female'],[[12]],['female'],[[1]],[[0.21016685]],CN
601,[[19]],[[602]],[[16]],['high holistic'],['left'],['upright'],['U0335.bmp'],['female'],[[6]],['female'],[[1]],[[0.24314221]],CN
602,[[19]],[[603]],[[7]],['low holistic'],['right'],['upright'],['U0107.bmp'],['female'],[[2]],['female'],[[1]],[[0.20815139]],CN
603,[[19]],[[604]],[[9]],['low holistic'],['right'],['upright'],['U0155.bmp'],['male'],[[10]],['male'],[[1]],[[0.19154685]],CN
604,[[19]],[[605]],[[4]],['low holistic'],['right'],['upright'],['U0061.bmp'],['female'],[[10]],['female'],[[1]],[[0.24057556]],CN
605,[[19]],[[606]],[[17]],['high holistic'],['left'],['inverted'],['U0346.bmp'],['male'],[[10]],['male'],[[1]],[[0.17309608]],CN
606,[[19]],[[607]],[[13]],['high holistic'],['right'],['inverted'],['U0181.bmp'],['female'],[[4]],['male'],[[0]],[[0.1652602]],CN
607,[[19]],[[608]],[[15]],['high holistic'],['right'],['inverted'],['U0312.bmp'],['male'],[[2]],['male'],[[1]],[[0.19091192]],CN
608,[[19]],[[609]],[[17]],['high holistic'],['right'],['inverted'],['U0346.bmp'],['male'],[[6]],['male'],[[1]],[[0.27043438]],CN
609,[[19]],[[610]],[[2]],['high holistic'],['right'],['upright'],['U0014.bmp'],['male'],[[6]],['male'],[[1]],[[0.21922669]],CN
610,[[19]],[[611]],[[20]],['low holistic'],['left'],['inverted'],['U0362.bmp'],['male'],[[10]],['male'],[[1]],[[0.37853868]],CN
611,[[19]],[[612]],[[10]],['high holistic'],['left'],['upright'],['U0159.bmp'],['male'],[[4]],['male'],[[1]],[[0.17044053]],CN
612,[[19]],[[613]],[[16]],['low holistic'],['right'],['upright'],['U0335.bmp'],['female'],[[6]],['female'],[[1]],[[0.25120355]],CN
613,[[19]],[[614]],[[15]],['high holistic'],['left'],['upright'],['U0312.bmp'],['male'],[[10]],['male'],[[1]],[[0.24940647]],CN
614,[[19]],[[615]],[[17]],['low holistic'],['right'],['upright'],['U0346.bmp'],['female'],[[10]],['female'],[[1]],[[0.24875323]],CN
615,[[19]],[[616]],[[4]],['high holistic'],['right'],['upright'],['U0061.bmp'],['female'],[[6]],['female'],[[1]],[[0.23023188]],CN
616,[[19]],[[617]],[[10]],['low holistic'],['right'],['upright'],['U0159.bmp'],['female'],[[10]],['female'],[[1]],[[0.20311702]],CN
617,[[19]],[[618]],[[13]],['low holistic'],['left'],['inverted'],['U0181.bmp'],['male'],[[10]],['male'],[[1]],[[0.23541299]],CN
618,[[19]],[[619]],[[19]],['low holistic'],['right'],['inverted'],['U0361.bmp'],['female'],[[10]],['female'],[[1]],[[0.42580822]],CN
619,[[19]],[[620]],[[17]],['low holistic'],['left'],['upright'],['U0346.bmp'],['female'],[[2]],['female'],[[1]],[[0.19921108]],CN
620,[[19]],[[621]],[[18]],['low holistic'],['left'],['upright'],['U0359.bmp'],['male'],[[10]],['male'],[[1]],[[0.21508198]],CN
621,[[19]],[[622]],[[12]],['high holistic'],['left'],['upright'],['U0178.bmp'],['male'],[[10]],['female'],[[0]],[[0.24764499]],CN
622,[[19]],[[623]],[[12]],['low holistic'],['right'],['upright'],['U0178.bmp'],['female'],[[2]],['female'],[[1]],[[0.22122969]],CN
623,[[19]],[[624]],[[18]],['low holistic'],['left'],['upright'],['U0359.bmp'],['male'],[[12]],['male'],[[1]],[[0.17057012]],CN
624,[[19]],[[625]],[[1]],['high holistic'],['left'],['inverted'],['U0006.bmp'],['female'],[[2]],['male'],[[0]],[[0.30075411]],CN
625,[[19]],[[626]],[[18]],['low holistic'],['left'],['upright'],['U0359.bmp'],['male'],[[4]],['male'],[[1]],[[0.3279054]],CN
626,[[19]],[[627]],[[9]],['high holistic'],['right'],['inverted'],['U0155.bmp'],['female'],[[10]],['female'],[[1]],[[0.25867743]],CN
627,[[19]],[[628]],[[1]],['high holistic'],['fovea'],['upright'],['U0006.bmp'],['female'],[[0]],['male'],[[0]],[[0.07053603]],CN
628,[[19]],[[629]],[[15]],['low holistic'],['right'],['inverted'],['U0312.bmp'],['male'],[[12]],['male'],[[1]],[[0.18794018]],CN
629,[[19]],[[630]],[[4]],['high holistic'],['left'],['upright'],['U0061.bmp'],['female'],[[2]],['male'],[[0]],[[0.34030226]],CN
630,[[19]],[[631]],[[3]],['high holistic'],['left'],['inverted'],['U0020.bmp'],['male'],[[4]],['male'],[[1]],[[0.20630082]],CN
631,[[19]],[[632]],[[13]],['high holistic'],['left'],['upright'],['U0181.bmp'],['female'],[[6]],['female'],[[1]],[[0.33304924]],CN
632,[[19]],[[633]],[[6]],['high holistic'],['left'],['upright'],['U0106.bmp'],['female'],[[8]],['female'],[[1]],[[0.28761514]],CN
633,[[19]],[[634]],[[7]],['high holistic'],['right'],['upright'],['U0107.bmp'],['female'],[[12]],['female'],[[1]],[[0.26019791]],CN
634,[[19]],[[635]],[[9]],['low holistic'],['left'],['upright'],['U0155.bmp'],['male'],[[12]],['male'],[[1]],[[0.22645758]],CN
635,[[19]],[[636]],[[9]],['low holistic'],['left'],['inverted'],['U0155.bmp'],['male'],[[6]],['male'],[[1]],[[0.28076223]],CN
636,[[19]],[[637]],[[8]],['low holistic'],['fovea'],['upright'],['U0137.bmp'],['male'],[[0]],['male'],[[1]],[[0.20357893]],CN
637,[[19]],[[638]],[[13]],['low holistic'],['right'],['inverted'],['U0181.bmp'],['male'],[[10]],['male'],[[1]],[[0.59585845]],CN
638,[[19]],[[639]],[[4]],['high holistic'],['right'],['upright'],['U0061.bmp'],['female'],[[2]],['female'],[[1]],[[0.21077291]],CN
639,[[19]],[[640]],[[4]],['high holistic'],['left'],['upright'],['U0061.bmp'],['female'],[[10]],['female'],[[1]],[[0.14572633]],CN
640,[[19]],[[641]],[[2]],['high holistic'],['fovea'],['inverted'],['U0014.bmp'],['male'],[[0]],['male'],[[1]],[[0.20520522]],CN
641,[[19]],[[642]],[[7]],['high holistic'],['right'],['upright'],['U0107.bmp'],['female'],[[12]],['female'],[[1]],[[0.27583631]],CN
642,[[19]],[[643]],[[16]],['low holistic'],['left'],['inverted'],['U0335.bmp'],['female'],[[2]],['male'],[[0]],[[0.11968723]],CN
643,[[19]],[[644]],[[5]],['high holistic'],['left'],['upright'],['U0076.bmp'],['female'],[[8]],['female'],[[1]],[[0.30609536]],CN
644,[[19]],[[645]],[[15]],['low holistic'],['left'],['upright'],['U0312.bmp'],['male'],[[8]],['male'],[[1]],[[0.21434311]],CN
645,[[19]],[[646]],[[14]],['low holistic'],['left'],['upright'],['U0228.bmp'],['male'],[[8]],['male'],[[1]],[[0.19839223]],CN
646,[[19]],[[647]],[[17]],['low holistic'],['left'],['upright'],['U0346.bmp'],['female'],[[10]],['female'],[[1]],[[0.27099962]],CN
647,[[19]],[[648]],[[17]],['high holistic'],['right'],['upright'],['U0346.bmp'],['male'],[[4]],['male'],[[1]],[[0.13126378]],CN
648,[[19]],[[649]],[[6]],['high holistic'],['fovea'],['inverted'],['U0106.bmp'],['female'],[[0]],['male'],[[0]],[[0.16469413]],CN
649,[[19]],[[650]],[[7]],['high holistic'],['left'],['upright'],['U0107.bmp'],['female'],[[10]],['female'],[[1]],[[0.19906341]],CN
650,[[19]],[[651]],[[11]],['high holistic'],['left'],['upright'],['U0164.bmp'],['female'],[[10]],['female'],[[1]],[[0.21129533]],CN
651,[[19]],[[652]],[[7]],['low holistic'],['right'],['inverted'],['U0107.bmp'],['female'],[[12]],['female'],[[1]],[[0.16299113]],CN
652,[[19]],[[653]],[[17]],['low holistic'],['left'],['inverted'],['U0346.bmp'],['female'],[[6]],['female'],[[1]],[[0.19641454]],CN
653,[[19]],[[654]],[[17]],['low holistic'],['left'],['inverted'],['U0346.bmp'],['female'],[[10]],['female'],[[1]],[[0.17898934]],CN
654,[[19]],[[655]],[[12]],['high holistic'],['right'],['inverted'],['U0178.bmp'],['male'],[[8]],['female'],[[0]],[[0.23661021]],CN
655,[[19]],[[656]],[[6]],['low holistic'],['fovea'],['inverted'],['U0106.bmp'],['male'],[[0]],['female'],[[0]],[[0.19435065]],CN
656,[[19]],[[657]],[[14]],['high holistic'],['right'],['upright'],['U0228.bmp'],['male'],[[4]],['male'],[[1]],[[0.17849356]],CN
657,[[19]],[[658]],[[5]],['high holistic'],['left'],['upright'],['U0076.bmp'],['female'],[[6]],['female'],[[1]],[[0.21940389]],CN
658,[[19]],[[659]],[[10]],['high holistic'],['left'],['upright'],['U0159.bmp'],['male'],[[2]],['male'],[[1]],[[0.18450366]],CN
659,[[19]],[[660]],[[8]],['low holistic'],['right'],['inverted'],['U0137.bmp'],['male'],[[12]],['male'],[[1]],[[0.19462163]],CN
660,[[19]],[[661]],[[11]],['high holistic'],['left'],['upright'],['U0164.bmp'],['female'],[[2]],['female'],[[1]],[[0.16115943]],CN
661,[[19]],[[662]],[[20]],['low holistic'],['right'],['inverted'],['U0362.bmp'],['male'],[[8]],['male'],[[1]],[[0.20369896]],CN
662,[[19]],[[663]],[[16]],['high holistic'],['right'],['upright'],['U0335.bmp'],['female'],[[10]],['female'],[[1]],[[0.241999]],CN
663,[[19]],[[664]],[[20]],['high holistic'],['right'],['inverted'],['U0362.bmp'],['female'],[[2]],['female'],[[1]],[[0.18540539]],CN
664,[[19]],[[665]],[[5]],['low holistic'],['left'],['upright'],['U0076.bmp'],['male'],[[8]],['male'],[[1]],[[0.16986156]],CN
665,[[19]],[[666]],[[11]],['high holistic'],['left'],['inverted'],['U0164.bmp'],['female'],[[12]],['male'],[[0]],[[0.24176545]],CN
666,[[19]],[[667]],[[2]],['low holistic'],['right'],['upright'],['U0014.bmp'],['male'],[[8]],['male'],[[1]],[[0.23131525]],CN
667,[[19]],[[668]],[[16]],['high holistic'],['left'],['upright'],['U0335.bmp'],['female'],[[12]],['female'],[[1]],[[0.26254939]],CN
668,[[19]],[[669]],[[13]],['low holistic'],['left'],['upright'],['U0181.bmp'],['male'],[[4]],['male'],[[1]],[[0.13913874]],CN
669,[[19]],[[670]],[[18]],['high holistic'],['left'],['upright'],['U0359.bmp'],['male'],[[8]],['female'],[[0]],[[0.22974976]],CN
670,[[19]],[[671]],[[20]],['low holistic'],['left'],['inverted'],['U0362.bmp'],['male'],[[12]],['male'],[[1]],[[0.36467179]],CN
671,[[19]],[[672]],[[19]],['high holistic'],['left'],['upright'],['U0361.bmp'],['female'],[[12]],['female'],[[1]],[[0.16468683]],CN
672,[[19]],[[673]],[[9]],['high holistic'],['right'],['inverted'],['U0155.bmp'],['female'],[[4]],['male'],[[0]],[[0.33304493]],CN
673,[[19]],[[674]],[[1]],['low holistic'],['left'],['upright'],['U0006.bmp'],['female'],[[2]],['female'],[[1]],[[0.15188936]],CN
674,[[19]],[[675]],[[11]],['high holistic'],['left'],['inverted'],['U0164.bmp'],['female'],[[12]],['female'],[[1]],[[0.59468284]],CN
675,[[19]],[[676]],[[5]],['low holistic'],['left'],['upright'],['U0076.bmp'],['male'],[[4]],['male'],[[1]],[[0.25880305]],CN
676,[[19]],[[677]],[[5]],['high holistic'],['right'],['inverted'],['U0076.bmp'],['female'],[[10]],['male'],[[0]],[[0.28762642]],CN
677,[[19]],[[678]],[[7]],['low holistic'],['fovea'],['upright'],['U0107.bmp'],['female'],[[0]],['female'],[[1]],[[0.19466399]],CN
678,[[19]],[[679]],[[2]],['low holistic'],['right'],['upright'],['U0014.bmp'],['male'],[[8]],['male'],[[1]],[[0.26774082]],CN
679,[[19]],[[680]],[[15]],['low holistic'],['left'],['upright'],['U0312.bmp'],['male'],[[10]],['male'],[[1]],[[0.18477203]],CN
680,[[19]],[[681]],[[15]],['low holistic'],['right'],['inverted'],['U0312.bmp'],['male'],[[8]],['male'],[[1]],[[0.18365319]],CN
681,[[19]],[[682]],[[11]],['high holistic'],['right'],['upright'],['U0164.bmp'],['female'],[[8]],['female'],[[1]],[[0.22414008]],CN
682,[[19]],[[683]],[[7]],['low holistic'],['right'],['inverted'],['U0107.bmp'],['female'],[[4]],['female'],[[1]],[[0.26508093]],CN
683,[[19]],[[684]],[[17]],['low holistic'],['left'],['upright'],['U0346.bmp'],['female'],[[4]],['female'],[[1]],[[0.18914446]],CN
684,[[19]],[[685]],[[12]],['high holistic'],['left'],['inverted'],['U0178.bmp'],['male'],[[8]],['male'],[[1]],[[0.17337397]],CN
685,[[19]],[[686]],[[20]],['high holistic'],['right'],['upright'],['U0362.bmp'],['female'],[[6]],['female'],[[1]],[[0.19074892]],CN
686,[[19]],[[687]],[[18]],['low holistic'],['right'],['upright'],['U0359.bmp'],['male'],[[6]],['male'],[[1]],[[0.23021792]],CN
687,[[19]],[[688]],[[8]],['high holistic'],['left'],['inverted'],['U0137.bmp'],['female'],[[2]],['male'],[[0]],[[0.28264186]],CN
688,[[19]],[[689]],[[11]],['high holistic'],['left'],['inverted'],['U0164.bmp'],['female'],[[6]],['female'],[[1]],[[0.20799324]],CN
689,[[19]],[[690]],[[7]],['low holistic'],['right'],['upright'],['U0107.bmp'],['female'],[[6]],['female'],[[1]],[[0.09639404]],CN
690,[[19]],[[691]],[[13]],['high holistic'],['left'],['upright'],['U0181.bmp'],['female'],[[4]],['male'],[[0]],[[0.28242558]],CN
691,[[19]],[[692]],[[16]],['high holistic'],['right'],['inverted'],['U0335.bmp'],['female'],[[8]],['male'],[[0]],[[0.24897363]],CN
692,[[19]],[[693]],[[15]],['low holistic'],['left'],['upright'],['U0312.bmp'],['male'],[[8]],['male'],[[1]],[[0.24536939]],CN
693,[[19]],[[694]],[[3]],['low holistic'],['right'],['inverted'],['U0020.bmp'],['female'],[[6]],['female'],[[1]],[[0.18071753]],CN
694,[[19]],[[695]],[[17]],['low holistic'],['right'],['inverted'],['U0346.bmp'],['female'],[[4]],['female'],[[1]],[[0.14803497]],CN
695,[[19]],[[696]],[[1]],['high holistic'],['fovea'],['inverted'],['U0006.bmp'],['female'],[[0]],['female'],[[1]],[[0.2702354]],CN
696,[[19]],[[697]],[[9]],['high holistic'],['right'],['upright'],['U0155.bmp'],['female'],[[8]],['female'],[[1]],[[0.2038685]],CN
697,[[19]],[[698]],[[15]],['high holistic'],['fovea'],['inverted'],['U0312.bmp'],['male'],[[0]],['female'],[[0]],[[0.17028906]],CN
698,[[19]],[[699]],[[16]],['low holistic'],['right'],['upright'],['U0335.bmp'],['female'],[[2]],['female'],[[1]],[[0.05798627]],CN
699,[[19]],[[700]],[[8]],['high holistic'],['right'],['inverted'],['U0137.bmp'],['female'],[[4]],['female'],[[1]],[[0.18400428]],CN
700,[[19]],[[701]],[[15]],['low holistic'],['left'],['upright'],['U0312.bmp'],['male'],[[2]],['male'],[[1]],[[0.18436851]],CN
701,[[19]],[[702]],[[18]],['high holistic'],['left'],['inverted'],['U0359.bmp'],['male'],[[12]],['male'],[[1]],[[0.33626446]],CN
702,[[19]],[[703]],[[5]],['low holistic'],['left'],['inverted'],['U0076.bmp'],['male'],[[10]],['male'],[[1]],[[0.24324671]],CN
703,[[19]],[[704]],[[3]],['low holistic'],['left'],['upright'],['U0020.bmp'],['female'],[[2]],['female'],[[1]],[[0.16102507]],CN
704,[[19]],[[705]],[[5]],['low holistic'],['left'],['upright'],['U0076.bmp'],['male'],[[2]],['male'],[[1]],[[0.15298438]],CN
705,[[19]],[[706]],[[8]],['low holistic'],['left'],['inverted'],['U0137.bmp'],['male'],[[8]],['male'],[[1]],[[0.19589364]],CN
706,[[19]],[[707]],[[6]],['high holistic'],['left'],['inverted'],['U0106.bmp'],['female'],[[12]],['male'],[[0]],[[0.27507011]],CN
707,[[19]],[[708]],[[19]],['low holistic'],['right'],['upright'],['U0361.bmp'],['female'],[[12]],['female'],[[1]],[[0.35254337]],CN
708,[[19]],[[709]],[[2]],['high holistic'],['left'],['upright'],['U0014.bmp'],['male'],[[8]],['male'],[[1]],[[0.00849015]],CN
709,[[19]],[[710]],[[12]],['high holistic'],['fovea'],['upright'],['U0178.bmp'],['male'],[[0]],['male'],[[1]],[[0.14559378]],CN
710,[[19]],[[711]],[[4]],['high holistic'],['left'],['upright'],['U0061.bmp'],['female'],[[2]],['female'],[[1]],[[0.36267788]],CN
711,[[19]],[[712]],[[17]],['high holistic'],['right'],['upright'],['U0346.bmp'],['male'],[[4]],['male'],[[1]],[[0.18845468]],CN
712,[[19]],[[713]],[[4]],['low holistic'],['fovea'],['upright'],['U0061.bmp'],['female'],[[0]],['female'],[[1]],[[0.16249875]],CN
713,[[19]],[[714]],[[11]],['low holistic'],['left'],['inverted'],['U0164.bmp'],['female'],[[12]],['female'],[[1]],[[0.1409272]],CN
714,[[19]],[[715]],[[20]],['low holistic'],['left'],['inverted'],['U0362.bmp'],['male'],[[2]],['male'],[[1]],[[0.17380208]],CN
715,[[19]],[[716]],[[8]],['high holistic'],['right'],['inverted'],['U0137.bmp'],['female'],[[10]],['male'],[[0]],[[0.20021733]],CN
716,[[19]],[[717]],[[1]],['high holistic'],['right'],['upright'],['U0006.bmp'],['female'],[[6]],['female'],[[1]],[[0.13415506]],CN
717,[[19]],[[718]],[[5]],['high holistic'],['right'],['upright'],['U0076.bmp'],['female'],[[10]],['female'],[[1]],[[0.18426594]],CN
718,[[19]],[[719]],[[8]],['high holistic'],['left'],['upright'],['U0137.bmp'],['female'],[[4]],['female'],[[1]],[[0.16126945]],CN
719,[[19]],[[720]],[[7]],['high holistic'],['left'],['inverted'],['U0107.bmp'],['female'],[[2]],['female'],[[1]],[[0.21740002]],CN
720,[[19]],[[721]],[[5]],['low holistic'],['right'],['inverted'],['U0076.bmp'],['male'],[[8]],['male'],[[1]],[[0.282606]],CN
721,[[19]],[[722]],[[19]],['low holistic'],['left'],['inverted'],['U0361.bmp'],['female'],[[2]],['female'],[[1]],[[0.22171542]],CN
722,[[19]],[[723]],[[14]],['low holistic'],['left'],['upright'],['U0228.bmp'],['male'],[[12]],['male'],[[1]],[[0.11816663]],CN
723,[[19]],[[724]],[[20]],['high holistic'],['left'],['inverted'],['U0362.bmp'],['female'],[[6]],['female'],[[1]],[[0.24929229]],CN
724,[[19]],[[725]],[[9]],['high holistic'],['right'],['inverted'],['U0155.bmp'],['female'],[[10]],['male'],[[0]],[[0.14181285]],CN
725,[[19]],[[726]],[[19]],['low holistic'],['right'],['inverted'],['U0361.bmp'],['female'],[[12]],['female'],[[1]],[[0.20049734]],CN
726,[[19]],[[727]],[[1]],['high holistic'],['left'],['inverted'],['U0006.bmp'],['female'],[[6]],['male'],[[0]],[[0.21399716]],CN
727,[[19]],[[728]],[[13]],['high holistic'],['left'],['inverted'],['U0181.bmp'],['female'],[[10]],['male'],[[0]],[[0.17344618]],CN
728,[[19]],[[729]],[[17]],['high holistic'],['right'],['inverted'],['U0346.bmp'],['male'],[[4]],['male'],[[1]],[[0.2618319]],CN
729,[[19]],[[730]],[[5]],['low holistic'],['left'],['inverted'],['U0076.bmp'],['male'],[[10]],['male'],[[1]],[[0.17048141]],CN
730,[[19]],[[731]],[[19]],['low holistic'],['left'],['upright'],['U0361.bmp'],['female'],[[10]],['female'],[[1]],[[0.13132064]],CN
731,[[19]],[[732]],[[16]],['low holistic'],['left'],['inverted'],['U0335.bmp'],['female'],[[10]],['female'],[[1]],[[0.11796598]],CN
732,[[19]],[[733]],[[17]],['low holistic'],['right'],['upright'],['U0346.bmp'],['female'],[[2]],['female'],[[1]],[[0.12178994]],CN
733,[[19]],[[734]],[[12]],['high holistic'],['right'],['inverted'],['U0178.bmp'],['male'],[[6]],['female'],[[0]],[[0.12346481]],CN
734,[[19]],[[735]],[[16]],['high holistic'],['fovea'],['inverted'],['U0335.bmp'],['female'],[[0]],['female'],[[1]],[[0.16631882]],CN
735,[[19]],[[736]],[[7]],['high holistic'],['right'],['upright'],['U0107.bmp'],['female'],[[6]],['female'],[[1]],[[0.31088791]],CN
736,[[19]],[[737]],[[5]],['high holistic'],['right'],['upright'],['U0076.bmp'],['female'],[[6]],['female'],[[1]],[[0.24165099]],CN
737,[[19]],[[738]],[[7]],['low holistic'],['right'],['inverted'],['U0107.bmp'],['female'],[[2]],['female'],[[1]],[[0.14412194]],CN
738,[[19]],[[739]],[[12]],['high holistic'],['right'],['inverted'],['U0178.bmp'],['male'],[[2]],['male'],[[1]],[[0.23475348]],CN
739,[[19]],[[740]],[[17]],['low holistic'],['left'],['upright'],['U0346.bmp'],['female'],[[10]],['female'],[[1]],[[0.29652157]],CN
740,[[19]],[[741]],[[6]],['high holistic'],['right'],['upright'],['U0106.bmp'],['female'],[[12]],['female'],[[1]],[[0.31735919]],CN
741,[[19]],[[742]],[[9]],['low holistic'],['right'],['inverted'],['U0155.bmp'],['male'],[[4]],['male'],[[1]],[[0.18226645]],CN
742,[[19]],[[743]],[[18]],['low holistic'],['right'],['upright'],['U0359.bmp'],['male'],[[12]],['male'],[[1]],[[0.1428953]],CN
743,[[19]],[[744]],[[13]],['high holistic'],['left'],['upright'],['U0181.bmp'],['female'],[[10]],['female'],[[1]],[[0.23241651]],CN
744,[[19]],[[745]],[[20]],['low holistic'],['left'],['inverted'],['U0362.bmp'],['male'],[[12]],['male'],[[1]],[[0.24689505]],CN
745,[[19]],[[746]],[[5]],['low holistic'],['fovea'],['inverted'],['U0076.bmp'],['male'],[[0]],['male'],[[1]],[[0.20677186]],CN
746,[[19]],[[747]],[[17]],['high holistic'],['left'],['upright'],['U0346.bmp'],['male'],[[6]],['male'],[[1]],[[0.2460556]],CN
747,[[19]],[[748]],[[14]],['high holistic'],['right'],['upright'],['U0228.bmp'],['male'],[[10]],['male'],[[1]],[[0.2105714]],CN
748,[[19]],[[749]],[[5]],['low holistic'],['left'],['upright'],['U0076.bmp'],['male'],[[12]],['male'],[[1]],[[0.24907126]],CN
749,[[19]],[[750]],[[10]],['low holistic'],['left'],['upright'],['U0159.bmp'],['female'],[[12]],['female'],[[1]],[[0.15094668]],CN
750,[[19]],[[751]],[[8]],['low holistic'],['left'],['upright'],['U0137.bmp'],['male'],[[2]],['male'],[[1]],[[0.10442846]],CN
751,[[19]],[[752]],[[12]],['low holistic'],['left'],['inverted'],['U0178.bmp'],['female'],[[8]],['female'],[[1]],[[0.33222709]],CN
752,[[19]],[[753]],[[17]],['low holistic'],['left'],['upright'],['U0346.bmp'],['female'],[[10]],['female'],[[1]],[[0.27973135]],CN
753,[[19]],[[754]],[[3]],['low holistic'],['right'],['upright'],['U0020.bmp'],['female'],[[4]],['female'],[[1]],[[0.21094502]],CN
754,[[19]],[[755]],[[17]],['high holistic'],['right'],['inverted'],['U0346.bmp'],['male'],[[12]],['male'],[[1]],[[0.18580611]],CN
755,[[19]],[[756]],[[17]],['low holistic'],['right'],['inverted'],['U0346.bmp'],['female'],[[8]],['female'],[[1]],[[0.31584399]],CN
756,[[19]],[[757]],[[8]],['low holistic'],['right'],['inverted'],['U0137.bmp'],['male'],[[8]],['female'],[[0]],[[0.21364564]],CN
757,[[19]],[[758]],[[9]],['low holistic'],['right'],['upright'],['U0155.bmp'],['male'],[[4]],['male'],[[1]],[[0.17286965]],CN
758,[[19]],[[759]],[[12]],['high holistic'],['right'],['upright'],['U0178.bmp'],['male'],[[6]],['male'],[[1]],[[0.00033816]],CN
759,[[19]],[[760]],[[15]],['high holistic'],['right'],['upright'],['U0312.bmp'],['male'],[[4]],['male'],[[1]],[[0.20669655]],CN
760,[[19]],[[761]],[[15]],['low holistic'],['left'],['upright'],['U0312.bmp'],['male'],[[10]],['male'],[[1]],[[0.10000613]],CN
761,[[19]],[[762]],[[16]],['low holistic'],['left'],['upright'],['U0335.bmp'],['female'],[[4]],['female'],[[1]],[[0.16574474]],CN
762,[[19]],[[763]],[[8]],['low holistic'],['left'],['inverted'],['U0137.bmp'],['male'],[[6]],['male'],[[1]],[[0.57478667]],CN
763,[[19]],[[764]],[[9]],['high holistic'],['left'],['upright'],['U0155.bmp'],['female'],[[4]],['female'],[[1]],[[0.32123606]],CN
764,[[19]],[[765]],[[20]],['low holistic'],['left'],['upright'],['U0362.bmp'],['male'],[[8]],['male'],[[1]],[[0.10719405]],CN
765,[[19]],[[766]],[[12]],['low holistic'],['left'],['inverted'],['U0178.bmp'],['female'],[[4]],['female'],[[1]],[[0.00011068]],CN
766,[[19]],[[767]],[[17]],['low holistic'],['right'],['upright'],['U0346.bmp'],['female'],[[4]],['female'],[[1]],[[0.17472223]],CN
767,[[19]],[[768]],[[6]],['low holistic'],['left'],['inverted'],['U0106.bmp'],['male'],[[4]],['male'],[[1]],[[0.14221738]],CN
768,[[19]],[[769]],[[13]],['low holistic'],['left'],['inverted'],['U0181.bmp'],['male'],[[12]],['male'],[[1]],[[0.23231419]],CN
769,[[19]],[[770]],[[12]],['low holistic'],['right'],['upright'],['U0178.bmp'],['female'],[[4]],['female'],[[1]],[[0.05500268]],CN
770,[[19]],[[771]],[[20]],['high holistic'],['left'],['upright'],['U0362.bmp'],['female'],[[6]],['female'],[[1]],[[0.16455661]],CN
771,[[19]],[[772]],[[2]],['high holistic'],['right'],['inverted'],['U0014.bmp'],['male'],[[6]],['male'],[[1]],[[0.27706785]],CN
772,[[19]],[[773]],[[11]],['high holistic'],['left'],['inverted'],['U0164.bmp'],['female'],[[8]],['female'],[[1]],[[0.3045695]],CN
