,SUBID,TRIAL,MOONEYID,MOONEYCATEGORY,LOC,COND,MOONEY_NAME,MOONEY_GENDER,ECCENTRICITY,RESPONSE,ACCURACY,RT,SUBINIT
0,[[7]],[[1]],[[6]],['low holistic'],['right'],['upright'],['U0106.bmp'],['male'],[],['female'],[[0]],[[1.08996119]],CP
1,[[7]],[[2]],[[2]],['high holistic'],['right'],['upright'],['U0014.bmp'],['male'],[],['female'],[[0]],[[1.75696527]],CP
2,[[7]],[[3]],[[9]],['high holistic'],['left'],['inverted'],['U0155.bmp'],['female'],[],['female'],[[1]],[[1.80589339]],CP
3,[[7]],[[4]],[[8]],['high holistic'],['right'],['upright'],['U0137.bmp'],['female'],[],['female'],[[1]],[[1.43028106]],CP
4,[[7]],[[5]],[[18]],['low holistic'],['right'],['inverted'],['U0359.bmp'],['male'],[],['male'],[[1]],[[0.70026886]],CP
5,[[7]],[[6]],[[13]],['low holistic'],['right'],['inverted'],['U0181.bmp'],['male'],[],['male'],[[1]],[[0.90383057]],CP
6,[[7]],[[7]],[[5]],['high holistic'],['right'],['upright'],['U0076.bmp'],['female'],[],['female'],[[1]],[[1.05361788]],CP
7,[[7]],[[8]],[[4]],['high holistic'],['left'],['upright'],['U0061.bmp'],['female'],[],['female'],[[1]],[[0.60241291]],CP
8,[[7]],[[9]],[[12]],['high holistic'],['left'],['inverted'],['U0178.bmp'],['male'],[],['female'],[[0]],[[0.43587257]],CP
9,[[7]],[[10]],[[13]],['low holistic'],['left'],['upright'],['U0181.bmp'],['male'],[],['male'],[[1]],[[0.40275934]],CP
10,[[7]],[[11]],[[14]],['low holistic'],['left'],['inverted'],['U0228.bmp'],['male'],[],['male'],[[1]],[[0.34458656]],CP
11,[[7]],[[12]],[[16]],['high holistic'],['right'],['upright'],['U0335.bmp'],['female'],[],['female'],[[1]],[[0.42095804]],CP
12,[[7]],[[13]],[[9]],['high holistic'],['left'],['upright'],['U0155.bmp'],['female'],[],['female'],[[1]],[[0.6839706]],CP
13,[[7]],[[14]],[[16]],['high holistic'],['left'],['upright'],['U0335.bmp'],['female'],[],['female'],[[1]],[[0.31225958]],CP
14,[[7]],[[15]],[[3]],['low holistic'],['left'],['inverted'],['U0020.bmp'],['female'],[],['female'],[[1]],[[0.62761714]],CP
15,[[7]],[[16]],[[17]],['low holistic'],['left'],['upright'],['U0346.bmp'],['female'],[],['female'],[[1]],[[0.52459463]],CP
16,[[7]],[[17]],[[7]],['low holistic'],['left'],['upright'],['U0107.bmp'],['female'],[],['female'],[[1]],[[0.33629225]],CP
17,[[7]],[[18]],[[9]],['high holistic'],['right'],['inverted'],['U0155.bmp'],['female'],[],['female'],[[1]],[[0.47245652]],CP
18,[[7]],[[19]],[[19]],['high holistic'],['right'],['inverted'],['U0361.bmp'],['female'],[],['male'],[[0]],[[0.30202285]],CP
19,[[7]],[[20]],[[16]],['high holistic'],['left'],['inverted'],['U0335.bmp'],['female'],[],['male'],[[0]],[[0.64239521]],CP
20,[[7]],[[21]],[[12]],['low holistic'],['fovea'],['upright'],['U0178.bmp'],['female'],[],['female'],[[1]],[[0.43377486]],CP
21,[[7]],[[22]],[[1]],['high holistic'],['fovea'],['inverted'],['U0006.bmp'],['female'],[],['female'],[[1]],[[0.37600826]],CP
22,[[7]],[[23]],[[18]],['high holistic'],['right'],['upright'],['U0359.bmp'],['male'],[],['male'],[[1]],[[0.93040645]],CP
23,[[7]],[[24]],[[17]],['low holistic'],['right'],['upright'],['U0346.bmp'],['female'],[],['female'],[[1]],[[0.36501187]],CP
24,[[7]],[[25]],[[11]],['low holistic'],['right'],['inverted'],['U0164.bmp'],['female'],[],['female'],[[1]],[[0.28615449]],CP
25,[[7]],[[26]],[[14]],['low holistic'],['fovea'],['inverted'],['U0228.bmp'],['male'],[],['male'],[[1]],[[0.29718529]],CP
26,[[7]],[[27]],[[15]],['low holistic'],['fovea'],['upright'],['U0312.bmp'],['male'],[],['male'],[[1]],[[0.35829456]],CP
27,[[7]],[[28]],[[16]],['high holistic'],['left'],['upright'],['U0335.bmp'],['female'],[],['female'],[[1]],[[0.28059546]],CP
28,[[7]],[[29]],[[12]],['high holistic'],['left'],['inverted'],['U0178.bmp'],['male'],[],['female'],[[0]],[[0.27575092]],CP
29,[[7]],[[30]],[[1]],['high holistic'],['fovea'],['upright'],['U0006.bmp'],['female'],[],['female'],[[1]],[[0.17904126]],CP
30,[[7]],[[31]],[[15]],['low holistic'],['left'],['inverted'],['U0312.bmp'],['male'],[],['male'],[[1]],[[0.19465924]],CP
31,[[7]],[[32]],[[20]],['high holistic'],['right'],['inverted'],['U0362.bmp'],['female'],[],['male'],[[0]],[[1.30067197]],CP
32,[[7]],[[33]],[[2]],['high holistic'],['left'],['upright'],['U0014.bmp'],['male'],[],['male'],[[1]],[[0.33449919]],CP
33,[[7]],[[34]],[[11]],['high holistic'],['right'],['inverted'],['U0164.bmp'],['female'],[],['female'],[[1]],[[0.36144517]],CP
34,[[7]],[[35]],[[16]],['high holistic'],['fovea'],['upright'],['U0335.bmp'],['female'],[],['female'],[[1]],[[0.38909155]],CP
35,[[7]],[[36]],[[8]],['low holistic'],['left'],['upright'],['U0137.bmp'],['male'],[],['male'],[[1]],[[0.31605158]],CP
36,[[7]],[[37]],[[14]],['low holistic'],['left'],['upright'],['U0228.bmp'],['male'],[],['male'],[[1]],[[0.20765583]],CP
37,[[7]],[[38]],[[18]],['high holistic'],['left'],['inverted'],['U0359.bmp'],['male'],[],['female'],[[0]],[[0.46304718]],CP
38,[[7]],[[39]],[[3]],['high holistic'],['right'],['inverted'],['U0020.bmp'],['male'],[],['male'],[[1]],[[0.41194186]],CP
39,[[7]],[[40]],[[4]],['high holistic'],['left'],['upright'],['U0061.bmp'],['female'],[],['male'],[[0]],[[0.28396948]],CP
40,[[7]],[[41]],[[11]],['high holistic'],['right'],['upright'],['U0164.bmp'],['female'],[],['female'],[[1]],[[0.31274924]],CP
41,[[7]],[[42]],[[10]],['low holistic'],['left'],['upright'],['U0159.bmp'],['female'],[],['female'],[[1]],[[0.19537032]],CP
42,[[7]],[[43]],[[6]],['high holistic'],['fovea'],['upright'],['U0106.bmp'],['female'],[],['female'],[[1]],[[0.17150655]],CP
43,[[7]],[[44]],[[8]],['high holistic'],['left'],['upright'],['U0137.bmp'],['female'],[],['female'],[[1]],[[0.126599]],CP
44,[[7]],[[45]],[[4]],['low holistic'],['right'],['inverted'],['U0061.bmp'],['female'],[],['female'],[[1]],[[0.29640698]],CP
45,[[7]],[[46]],[[8]],['high holistic'],['left'],['upright'],['U0137.bmp'],['female'],[],['female'],[[1]],[[0.24418417]],CP
46,[[7]],[[47]],[[3]],['low holistic'],['right'],['inverted'],['U0020.bmp'],['female'],[],['female'],[[1]],[[0.40926055]],CP
47,[[7]],[[48]],[[15]],['low holistic'],['right'],['upright'],['U0312.bmp'],['male'],[],['male'],[[1]],[[0.26704605]],CP
48,[[7]],[[49]],[[14]],['low holistic'],['right'],['upright'],['U0228.bmp'],['male'],[],['male'],[[1]],[[0.31115717]],CP
49,[[7]],[[50]],[[5]],['low holistic'],['left'],['inverted'],['U0076.bmp'],['male'],[],['male'],[[1]],[[0.29961088]],CP
50,[[7]],[[51]],[[20]],['high holistic'],['left'],['inverted'],['U0362.bmp'],['female'],[],['male'],[[0]],[[0.52063937]],CP
51,[[7]],[[52]],[[20]],['low holistic'],['right'],['upright'],['U0362.bmp'],['male'],[],['male'],[[1]],[[0.45894239]],CP
52,[[7]],[[53]],[[13]],['high holistic'],['left'],['inverted'],['U0181.bmp'],['female'],[],['female'],[[1]],[[0.36855644]],CP
53,[[7]],[[54]],[[19]],['high holistic'],['right'],['inverted'],['U0361.bmp'],['female'],[],['male'],[[0]],[[0.54565281]],CP
54,[[7]],[[55]],[[20]],['high holistic'],['right'],['inverted'],['U0362.bmp'],['female'],[],['male'],[[0]],[[1.34102093]],CP
55,[[7]],[[56]],[[6]],['low holistic'],['left'],['inverted'],['U0106.bmp'],['male'],[],['male'],[[1]],[[0.29489431]],CP
56,[[7]],[[57]],[[14]],['high holistic'],['right'],['inverted'],['U0228.bmp'],['male'],[],['female'],[[0]],[[0.21019506]],CP
57,[[7]],[[58]],[[17]],['high holistic'],['left'],['upright'],['U0346.bmp'],['male'],[],['male'],[[1]],[[0.15579988]],CP
58,[[7]],[[59]],[[18]],['low holistic'],['right'],['upright'],['U0359.bmp'],['male'],[],['male'],[[1]],[[0.38941923]],CP
59,[[7]],[[60]],[[14]],['low holistic'],['left'],['upright'],['U0228.bmp'],['male'],[],['male'],[[1]],[[0.22865784]],CP
60,[[7]],[[61]],[[12]],['low holistic'],['right'],['upright'],['U0178.bmp'],['female'],[],['female'],[[1]],[[0.00013122]],CP
61,[[7]],[[62]],[[9]],['low holistic'],['right'],['inverted'],['U0155.bmp'],['male'],[],['male'],[[1]],[[0.1483416]],CP
62,[[7]],[[63]],[[20]],['low holistic'],['left'],['upright'],['U0362.bmp'],['male'],[],['male'],[[1]],[[0.00012897]],CP
63,[[7]],[[64]],[[14]],['low holistic'],['right'],['upright'],['U0228.bmp'],['male'],[],['male'],[[1]],[[0.0459717]],CP
64,[[7]],[[65]],[[12]],['high holistic'],['left'],['inverted'],['U0178.bmp'],['male'],[],['female'],[[0]],[[0.16400873]],CP
65,[[7]],[[66]],[[9]],['high holistic'],['right'],['upright'],['U0155.bmp'],['female'],[],['female'],[[1]],[[0.33385351]],CP
66,[[7]],[[67]],[[14]],['low holistic'],['left'],['inverted'],['U0228.bmp'],['male'],[],['male'],[[1]],[[0.16863196]],CP
67,[[7]],[[68]],[[11]],['high holistic'],['left'],['upright'],['U0164.bmp'],['female'],[],['female'],[[1]],[[0.18523325]],CP
68,[[7]],[[69]],[[7]],['low holistic'],['right'],['upright'],['U0107.bmp'],['female'],[],['female'],[[1]],[[0.17749989]],CP
69,[[7]],[[70]],[[10]],['high holistic'],['right'],['upright'],['U0159.bmp'],['male'],[],['male'],[[1]],[[0.28379678]],CP
70,[[7]],[[71]],[[2]],['low holistic'],['left'],['upright'],['U0014.bmp'],['male'],[],['female'],[[0]],[[0.37669745]],CP
71,[[7]],[[72]],[[12]],['high holistic'],['left'],['upright'],['U0178.bmp'],['male'],[],['male'],[[1]],[[0.28088298]],CP
72,[[7]],[[73]],[[18]],['low holistic'],['right'],['upright'],['U0359.bmp'],['male'],[],['male'],[[1]],[[0.31099292]],CP
73,[[7]],[[74]],[[5]],['high holistic'],['right'],['upright'],['U0076.bmp'],['female'],[],['female'],[[1]],[[0.19407809]],CP
74,[[7]],[[75]],[[9]],['high holistic'],['left'],['upright'],['U0155.bmp'],['female'],[],['female'],[[1]],[[0.31232163]],CP
75,[[7]],[[76]],[[10]],['low holistic'],['left'],['upright'],['U0159.bmp'],['female'],[],['female'],[[1]],[[0.33383223]],CP
76,[[7]],[[77]],[[7]],['high holistic'],['left'],['upright'],['U0107.bmp'],['female'],[],['male'],[[0]],[[0.29553274]],CP
77,[[7]],[[78]],[[14]],['low holistic'],['right'],['upright'],['U0228.bmp'],['male'],[],['male'],[[1]],[[0.10685773]],CP
78,[[7]],[[79]],[[2]],['high holistic'],['left'],['upright'],['U0014.bmp'],['male'],[],['female'],[[0]],[[0.07204351]],CP
79,[[7]],[[80]],[[17]],['high holistic'],['right'],['upright'],['U0346.bmp'],['male'],[],['male'],[[1]],[[0.00014133]],CP
80,[[7]],[[81]],[[12]],['low holistic'],['right'],['upright'],['U0178.bmp'],['female'],[],['female'],[[1]],[[3.08207999]],CP
81,[[7]],[[82]],[[8]],['high holistic'],['right'],['inverted'],['U0137.bmp'],['female'],[],['male'],[[0]],[[0.39087911]],CP
82,[[7]],[[83]],[[12]],['low holistic'],['left'],['upright'],['U0178.bmp'],['female'],[],['female'],[[1]],[[0.23004726]],CP
83,[[7]],[[84]],[[17]],['low holistic'],['right'],['inverted'],['U0346.bmp'],['female'],[],['female'],[[1]],[[0.43728797]],CP
84,[[7]],[[85]],[[8]],['high holistic'],['left'],['upright'],['U0137.bmp'],['female'],[],['female'],[[1]],[[0.18001147]],CP
85,[[7]],[[86]],[[1]],['low holistic'],['left'],['inverted'],['U0006.bmp'],['female'],[],['male'],[[0]],[[0.32594638]],CP
86,[[7]],[[87]],[[2]],['low holistic'],['right'],['inverted'],['U0014.bmp'],['male'],[],['male'],[[1]],[[0.40717818]],CP
87,[[7]],[[88]],[[6]],['high holistic'],['left'],['upright'],['U0106.bmp'],['female'],[],['female'],[[1]],[[0.20038862]],CP
88,[[7]],[[89]],[[20]],['low holistic'],['left'],['inverted'],['U0362.bmp'],['male'],[],['male'],[[1]],[[0.20746649]],CP
89,[[7]],[[90]],[[8]],['high holistic'],['right'],['inverted'],['U0137.bmp'],['female'],[],['male'],[[0]],[[0.27220236]],CP
90,[[7]],[[91]],[[8]],['high holistic'],['right'],['upright'],['U0137.bmp'],['female'],[],['female'],[[1]],[[0.41292316]],CP
91,[[7]],[[92]],[[9]],['low holistic'],['right'],['inverted'],['U0155.bmp'],['male'],[],['male'],[[1]],[[0.30003544]],CP
92,[[7]],[[93]],[[16]],['low holistic'],['left'],['upright'],['U0335.bmp'],['female'],[],['female'],[[1]],[[0.19187084]],CP
93,[[7]],[[94]],[[17]],['high holistic'],['left'],['upright'],['U0346.bmp'],['male'],[],['male'],[[1]],[[0.19265096]],CP
94,[[7]],[[95]],[[3]],['low holistic'],['fovea'],['inverted'],['U0020.bmp'],['female'],[],['female'],[[1]],[[0.15341028]],CP
95,[[7]],[[96]],[[10]],['high holistic'],['left'],['upright'],['U0159.bmp'],['male'],[],['male'],[[1]],[[0.19442469]],CP
96,[[7]],[[97]],[[3]],['low holistic'],['left'],['upright'],['U0020.bmp'],['female'],[],['female'],[[1]],[[0.21108297]],CP
97,[[7]],[[98]],[[9]],['low holistic'],['right'],['inverted'],['U0155.bmp'],['male'],[],['male'],[[1]],[[0.21809539]],CP
98,[[7]],[[99]],[[7]],['low holistic'],['right'],['inverted'],['U0107.bmp'],['female'],[],['female'],[[1]],[[0.20107228]],CP
99,[[7]],[[100]],[[20]],['low holistic'],['right'],['inverted'],['U0362.bmp'],['male'],[],['male'],[[1]],[[0.186456]],CP
100,[[7]],[[101]],[[12]],['high holistic'],['right'],['inverted'],['U0178.bmp'],['male'],[],['female'],[[0]],[[0.09943929]],CP
101,[[7]],[[102]],[[3]],['low holistic'],['left'],['upright'],['U0020.bmp'],['female'],[],['female'],[[1]],[[9.97839961e-05]],CP
102,[[7]],[[103]],[[1]],['low holistic'],['right'],['inverted'],['U0006.bmp'],['female'],[],['female'],[[1]],[[0.00046288]],CP
103,[[7]],[[104]],[[3]],['low holistic'],['left'],['inverted'],['U0020.bmp'],['female'],[],['female'],[[1]],[[0.00010875]],CP
104,[[7]],[[105]],[[16]],['high holistic'],['right'],['inverted'],['U0335.bmp'],['female'],[],['male'],[[0]],[[0.00017695]],CP
105,[[7]],[[106]],[[4]],['high holistic'],['right'],['upright'],['U0061.bmp'],['female'],[],['male'],[[0]],[[0.00028848]],CP
106,[[7]],[[107]],[[18]],['low holistic'],['right'],['upright'],['U0359.bmp'],['male'],[],['male'],[[1]],[[0.16659411]],CP
107,[[7]],[[108]],[[16]],['low holistic'],['right'],['inverted'],['U0335.bmp'],['female'],[],['male'],[[0]],[[0.22512472]],CP
108,[[7]],[[109]],[[8]],['high holistic'],['left'],['inverted'],['U0137.bmp'],['female'],[],['female'],[[1]],[[0.35126567]],CP
109,[[7]],[[110]],[[11]],['high holistic'],['right'],['upright'],['U0164.bmp'],['female'],[],['female'],[[1]],[[0.25758382]],CP
110,[[7]],[[111]],[[10]],['low holistic'],['left'],['upright'],['U0159.bmp'],['female'],[],['female'],[[1]],[[0.1111419]],CP
111,[[7]],[[112]],[[17]],['low holistic'],['left'],['inverted'],['U0346.bmp'],['female'],[],['female'],[[1]],[[0.17829707]],CP
112,[[7]],[[113]],[[4]],['high holistic'],['right'],['inverted'],['U0061.bmp'],['female'],[],['female'],[[1]],[[0.00023186]],CP
113,[[7]],[[114]],[[4]],['low holistic'],['left'],['upright'],['U0061.bmp'],['female'],[],['female'],[[1]],[[0.00421551]],CP
114,[[7]],[[115]],[[11]],['low holistic'],['left'],['upright'],['U0164.bmp'],['female'],[],['female'],[[1]],[[0.00010687]],CP
115,[[7]],[[116]],[[15]],['high holistic'],['right'],['inverted'],['U0312.bmp'],['male'],[],['female'],[[0]],[[0.00012654]],CP
116,[[7]],[[117]],[[5]],['low holistic'],['left'],['inverted'],['U0076.bmp'],['male'],[],['female'],[[0]],[[1.97955419]],CP
117,[[7]],[[118]],[[19]],['high holistic'],['right'],['inverted'],['U0361.bmp'],['female'],[],['male'],[[0]],[[0.31653274]],CP
118,[[7]],[[119]],[[19]],['high holistic'],['right'],['upright'],['U0361.bmp'],['female'],[],['male'],[[0]],[[0.11782687]],CP
119,[[7]],[[120]],[[1]],['high holistic'],['left'],['upright'],['U0006.bmp'],['female'],[],['female'],[[1]],[[0.18534016]],CP
120,[[7]],[[121]],[[16]],['low holistic'],['right'],['upright'],['U0335.bmp'],['female'],[],['female'],[[1]],[[0.28405134]],CP
121,[[7]],[[122]],[[16]],['high holistic'],['right'],['upright'],['U0335.bmp'],['female'],[],['female'],[[1]],[[0.05670177]],CP
122,[[7]],[[123]],[[20]],['low holistic'],['right'],['upright'],['U0362.bmp'],['male'],[],['male'],[[1]],[[0.03652221]],CP
123,[[7]],[[124]],[[8]],['high holistic'],['left'],['inverted'],['U0137.bmp'],['female'],[],['female'],[[1]],[[0.09288645]],CP
124,[[7]],[[125]],[[15]],['low holistic'],['right'],['inverted'],['U0312.bmp'],['male'],[],['male'],[[1]],[[0.15389231]],CP
125,[[7]],[[126]],[[8]],['high holistic'],['left'],['inverted'],['U0137.bmp'],['female'],[],['female'],[[1]],[[0.2582376]],CP
126,[[7]],[[127]],[[10]],['high holistic'],['left'],['upright'],['U0159.bmp'],['male'],[],['male'],[[1]],[[0.13545361]],CP
127,[[7]],[[128]],[[14]],['low holistic'],['left'],['upright'],['U0228.bmp'],['male'],[],['male'],[[1]],[[0.1855917]],CP
128,[[7]],[[129]],[[9]],['low holistic'],['left'],['upright'],['U0155.bmp'],['male'],[],['male'],[[1]],[[0.13995458]],CP
129,[[7]],[[130]],[[9]],['high holistic'],['left'],['inverted'],['U0155.bmp'],['female'],[],['female'],[[1]],[[0.15748065]],CP
130,[[7]],[[131]],[[11]],['low holistic'],['right'],['upright'],['U0164.bmp'],['female'],[],['male'],[[0]],[[0.22325641]],CP
131,[[7]],[[132]],[[13]],['low holistic'],['left'],['upright'],['U0181.bmp'],['male'],[],['female'],[[0]],[[0.00010059]],CP
132,[[7]],[[133]],[[18]],['high holistic'],['right'],['inverted'],['U0359.bmp'],['male'],[],['female'],[[0]],[[0.24727856]],CP
133,[[7]],[[134]],[[20]],['low holistic'],['left'],['upright'],['U0362.bmp'],['male'],[],['female'],[[0]],[[9.78959724e-05]],CP
134,[[7]],[[135]],[[6]],['high holistic'],['left'],['upright'],['U0106.bmp'],['female'],[],['female'],[[1]],[[1.43727484]],CP
135,[[7]],[[136]],[[17]],['high holistic'],['fovea'],['inverted'],['U0346.bmp'],['male'],[],['female'],[[0]],[[0.09043834]],CP
136,[[7]],[[137]],[[8]],['low holistic'],['left'],['upright'],['U0137.bmp'],['male'],[],['male'],[[1]],[[0.06395547]],CP
137,[[7]],[[138]],[[2]],['high holistic'],['left'],['inverted'],['U0014.bmp'],['male'],[],['female'],[[0]],[[0.00016354]],CP
138,[[7]],[[139]],[[16]],['high holistic'],['fovea'],['upright'],['U0335.bmp'],['female'],[],['female'],[[1]],[[0.00012005]],CP
139,[[7]],[[140]],[[12]],['high holistic'],['right'],['upright'],['U0178.bmp'],['male'],[],['male'],[[1]],[[0.08395448]],CP
140,[[7]],[[141]],[[20]],['low holistic'],['right'],['upright'],['U0362.bmp'],['male'],[],['male'],[[1]],[[9.91299748e-05]],CP
141,[[7]],[[142]],[[2]],['low holistic'],['fovea'],['upright'],['U0014.bmp'],['male'],[],['male'],[[1]],[[0.00932215]],CP
142,[[7]],[[143]],[[16]],['low holistic'],['fovea'],['inverted'],['U0335.bmp'],['female'],[],['female'],[[1]],[[0.1130224]],CP
143,[[7]],[[144]],[[17]],['low holistic'],['left'],['upright'],['U0346.bmp'],['female'],[],['female'],[[1]],[[0.00010491]],CP
144,[[7]],[[145]],[[14]],['high holistic'],['right'],['inverted'],['U0228.bmp'],['male'],[],['female'],[[0]],[[0.27676296]],CP
145,[[7]],[[146]],[[18]],['high holistic'],['left'],['inverted'],['U0359.bmp'],['male'],[],['male'],[[1]],[[0.06571389]],CP
146,[[7]],[[147]],[[5]],['low holistic'],['left'],['upright'],['U0076.bmp'],['male'],[],['male'],[[1]],[[0.36739277]],CP
147,[[7]],[[148]],[[4]],['high holistic'],['right'],['inverted'],['U0061.bmp'],['female'],[],['female'],[[1]],[[0.07968503]],CP
148,[[7]],[[149]],[[18]],['low holistic'],['right'],['upright'],['U0359.bmp'],['male'],[],['male'],[[1]],[[0.32407918]],CP
149,[[7]],[[150]],[[4]],['low holistic'],['right'],['inverted'],['U0061.bmp'],['female'],[],['female'],[[1]],[[0.14281124]],CP
150,[[7]],[[151]],[[7]],['low holistic'],['right'],['upright'],['U0107.bmp'],['female'],[],['female'],[[1]],[[0.15551303]],CP
151,[[7]],[[152]],[[5]],['low holistic'],['right'],['inverted'],['U0076.bmp'],['male'],[],['male'],[[1]],[[0.17122705]],CP
152,[[7]],[[153]],[[5]],['high holistic'],['right'],['upright'],['U0076.bmp'],['female'],[],['female'],[[1]],[[0.04413603]],CP
153,[[7]],[[154]],[[8]],['low holistic'],['left'],['inverted'],['U0137.bmp'],['male'],[],['female'],[[0]],[[0.10771033]],CP
154,[[7]],[[155]],[[14]],['low holistic'],['left'],['inverted'],['U0228.bmp'],['male'],[],['female'],[[0]],[[0.0315351]],CP
155,[[7]],[[156]],[[6]],['high holistic'],['left'],['upright'],['U0106.bmp'],['female'],[],['female'],[[1]],[[0.00597725]],CP
156,[[7]],[[157]],[[13]],['low holistic'],['left'],['upright'],['U0181.bmp'],['male'],[],['male'],[[1]],[[0.00035711]],CP
157,[[7]],[[158]],[[19]],['low holistic'],['left'],['upright'],['U0361.bmp'],['female'],[],['female'],[[1]],[[0.05195814]],CP
158,[[7]],[[159]],[[20]],['high holistic'],['right'],['inverted'],['U0362.bmp'],['female'],[],['female'],[[1]],[[0.11577844]],CP
159,[[7]],[[160]],[[9]],['high holistic'],['left'],['upright'],['U0155.bmp'],['female'],[],['male'],[[0]],[[0.22239759]],CP
160,[[7]],[[161]],[[16]],['high holistic'],['left'],['upright'],['U0335.bmp'],['female'],[],['female'],[[1]],[[0.17287726]],CP
161,[[7]],[[162]],[[7]],['high holistic'],['right'],['inverted'],['U0107.bmp'],['female'],[],['female'],[[1]],[[0.16608133]],CP
162,[[7]],[[163]],[[3]],['high holistic'],['left'],['inverted'],['U0020.bmp'],['male'],[],['female'],[[0]],[[0.09680472]],CP
163,[[7]],[[164]],[[3]],['low holistic'],['left'],['inverted'],['U0020.bmp'],['female'],[],['female'],[[1]],[[0.13989973]],CP
164,[[7]],[[165]],[[11]],['low holistic'],['left'],['upright'],['U0164.bmp'],['female'],[],['female'],[[1]],[[0.00010477]],CP
165,[[7]],[[166]],[[10]],['high holistic'],['left'],['inverted'],['U0159.bmp'],['male'],[],['female'],[[0]],[[0.00034619]],CP
166,[[7]],[[167]],[[10]],['high holistic'],['left'],['inverted'],['U0159.bmp'],['male'],[],['female'],[[0]],[[0.00043717]],CP
167,[[7]],[[168]],[[9]],['low holistic'],['left'],['upright'],['U0155.bmp'],['male'],[],['female'],[[0]],[[0.00043888]],CP
168,[[7]],[[169]],[[13]],['high holistic'],['right'],['inverted'],['U0181.bmp'],['female'],[],['female'],[[1]],[[0.00010602]],CP
169,[[7]],[[170]],[[7]],['low holistic'],['left'],['upright'],['U0107.bmp'],['female'],[],['female'],[[1]],[[9.8478049e-05]],CP
170,[[7]],[[171]],[[17]],['high holistic'],['fovea'],['inverted'],['U0346.bmp'],['male'],[],['female'],[[0]],[[1.26313536]],CP
171,[[7]],[[172]],[[13]],['low holistic'],['right'],['upright'],['U0181.bmp'],['male'],[],['male'],[[1]],[[0.13895364]],CP
172,[[7]],[[173]],[[12]],['low holistic'],['left'],['inverted'],['U0178.bmp'],['female'],[],['female'],[[1]],[[9.87430103e-05]],CP
173,[[7]],[[174]],[[19]],['low holistic'],['left'],['inverted'],['U0361.bmp'],['female'],[],['female'],[[1]],[[0.01342605]],CP
174,[[7]],[[175]],[[19]],['low holistic'],['left'],['upright'],['U0361.bmp'],['female'],[],['female'],[[1]],[[1.34052609]],CP
175,[[7]],[[176]],[[9]],['low holistic'],['right'],['inverted'],['U0155.bmp'],['male'],[],['female'],[[0]],[[1.16686693]],CP
176,[[7]],[[177]],[[15]],['low holistic'],['right'],['upright'],['U0312.bmp'],['male'],[],['male'],[[1]],[[9.86210071e-05]],CP
177,[[7]],[[178]],[[3]],['low holistic'],['left'],['inverted'],['U0020.bmp'],['female'],[],['female'],[[1]],[[9.74889845e-05]],CP
178,[[7]],[[179]],[[13]],['low holistic'],['right'],['inverted'],['U0181.bmp'],['male'],[],['male'],[[1]],[[0.16920126]],CP
179,[[7]],[[180]],[[19]],['high holistic'],['left'],['upright'],['U0361.bmp'],['female'],[],['female'],[[1]],[[0.0987485]],CP
180,[[7]],[[181]],[[9]],['high holistic'],['left'],['inverted'],['U0155.bmp'],['female'],[],['male'],[[0]],[[0.00021815]],CP
181,[[7]],[[182]],[[7]],['high holistic'],['left'],['inverted'],['U0107.bmp'],['female'],[],['female'],[[1]],[[9.87050589e-05]],CP
182,[[7]],[[183]],[[20]],['low holistic'],['right'],['upright'],['U0362.bmp'],['male'],[],['male'],[[1]],[[0.00028065]],CP
183,[[7]],[[184]],[[4]],['high holistic'],['left'],['inverted'],['U0061.bmp'],['female'],[],['female'],[[1]],[[0.14198566]],CP
184,[[7]],[[185]],[[4]],['high holistic'],['right'],['inverted'],['U0061.bmp'],['female'],[],['male'],[[0]],[[24.24955831]],CP
185,[[7]],[[186]],[[7]],['low holistic'],['left'],['inverted'],['U0107.bmp'],['female'],[],['male'],[[0]],[[0.00021121]],CP
186,[[7]],[[187]],[[16]],['high holistic'],['right'],['upright'],['U0335.bmp'],['female'],[],['male'],[[0]],[[0.43867955]],CP
187,[[7]],[[188]],[[3]],['high holistic'],['right'],['inverted'],['U0020.bmp'],['male'],[],['female'],[[0]],[[0.42813733]],CP
188,[[7]],[[189]],[[5]],['high holistic'],['left'],['upright'],['U0076.bmp'],['female'],[],['female'],[[1]],[[0.00010594]],CP
189,[[7]],[[190]],[[15]],['low holistic'],['right'],['upright'],['U0312.bmp'],['male'],[],['male'],[[1]],[[0.00010701]],CP
190,[[7]],[[191]],[[11]],['low holistic'],['fovea'],['upright'],['U0164.bmp'],['female'],[],['female'],[[1]],[[9.95011069e-05]],CP
191,[[7]],[[192]],[[5]],['low holistic'],['left'],['upright'],['U0076.bmp'],['male'],[],['female'],[[0]],[[0.00045242]],CP
192,[[7]],[[193]],[[3]],['high holistic'],['left'],['inverted'],['U0020.bmp'],['male'],[],['female'],[[0]],[[0.07503546]],CP
193,[[7]],[[194]],[[19]],['high holistic'],['right'],['upright'],['U0361.bmp'],['female'],[],['male'],[[0]],[[0.00035558]],CP
194,[[7]],[[195]],[[3]],['low holistic'],['right'],['upright'],['U0020.bmp'],['female'],[],['female'],[[1]],[[0.00054213]],CP
195,[[7]],[[196]],[[1]],['low holistic'],['left'],['inverted'],['U0006.bmp'],['female'],[],['male'],[[0]],[[0.00029603]],CP
196,[[7]],[[197]],[[20]],['high holistic'],['left'],['upright'],['U0362.bmp'],['female'],[],['female'],[[1]],[[0.08978649]],CP
197,[[7]],[[198]],[[1]],['high holistic'],['left'],['upright'],['U0006.bmp'],['female'],[],['male'],[[0]],[[0.0364065]],CP
198,[[7]],[[199]],[[11]],['high holistic'],['fovea'],['inverted'],['U0164.bmp'],['female'],[],['female'],[[1]],[[0.31644546]],CP
199,[[7]],[[200]],[[16]],['low holistic'],['right'],['inverted'],['U0335.bmp'],['female'],[],['female'],[[1]],[[0.00057468]],CP
200,[[7]],[[201]],[[18]],['high holistic'],['left'],['upright'],['U0359.bmp'],['male'],[],['male'],[[1]],[[0.00733703]],CP
201,[[7]],[[202]],[[4]],['low holistic'],['left'],['inverted'],['U0061.bmp'],['female'],[],['female'],[[1]],[[0.00034366]],CP
202,[[7]],[[203]],[[12]],['low holistic'],['left'],['upright'],['U0178.bmp'],['female'],[],['male'],[[0]],[[0.00010618]],CP
203,[[7]],[[204]],[[13]],['high holistic'],['right'],['inverted'],['U0181.bmp'],['female'],[],['female'],[[1]],[[0.04728543]],CP
204,[[7]],[[205]],[[20]],['high holistic'],['left'],['inverted'],['U0362.bmp'],['female'],[],['female'],[[1]],[[0.26209201]],CP
205,[[7]],[[206]],[[10]],['low holistic'],['right'],['inverted'],['U0159.bmp'],['female'],[],['female'],[[1]],[[0.00010554]],CP
206,[[7]],[[207]],[[3]],['low holistic'],['right'],['upright'],['U0020.bmp'],['female'],[],['female'],[[1]],[[9.82219353e-05]],CP
207,[[7]],[[208]],[[10]],['low holistic'],['right'],['inverted'],['U0159.bmp'],['female'],[],['female'],[[1]],[[0.00010674]],CP
208,[[7]],[[209]],[[4]],['high holistic'],['right'],['upright'],['U0061.bmp'],['female'],[],['female'],[[1]],[[0.29114057]],CP
209,[[7]],[[210]],[[1]],['low holistic'],['right'],['upright'],['U0006.bmp'],['female'],[],['female'],[[1]],[[0.03062092]],CP
210,[[7]],[[211]],[[9]],['high holistic'],['right'],['upright'],['U0155.bmp'],['female'],[],['female'],[[1]],[[0.00047921]],CP
211,[[7]],[[212]],[[2]],['low holistic'],['right'],['upright'],['U0014.bmp'],['male'],[],['male'],[[1]],[[0.00013433]],CP
212,[[7]],[[213]],[[14]],['high holistic'],['left'],['inverted'],['U0228.bmp'],['male'],[],['female'],[[0]],[[0.00013639]],CP
213,[[7]],[[214]],[[5]],['high holistic'],['right'],['inverted'],['U0076.bmp'],['female'],[],['female'],[[1]],[[0.00010611]],CP
214,[[7]],[[215]],[[7]],['low holistic'],['fovea'],['inverted'],['U0107.bmp'],['female'],[],['female'],[[1]],[[9.94689763e-05]],CP
215,[[7]],[[216]],[[17]],['high holistic'],['right'],['upright'],['U0346.bmp'],['male'],[],['female'],[[0]],[[0.00010609]],CP
216,[[7]],[[217]],[[1]],['low holistic'],['right'],['inverted'],['U0006.bmp'],['female'],[],['female'],[[1]],[[9.91229899e-05]],CP
217,[[7]],[[218]],[[4]],['low holistic'],['left'],['inverted'],['U0061.bmp'],['female'],[],['female'],[[1]],[[0.00010876]],CP
218,[[7]],[[219]],[[19]],['high holistic'],['left'],['upright'],['U0361.bmp'],['female'],[],['male'],[[0]],[[0.07046405]],CP
219,[[7]],[[220]],[[1]],['low holistic'],['right'],['upright'],['U0006.bmp'],['female'],[],['female'],[[1]],[[9.93749127e-05]],CP
220,[[7]],[[221]],[[17]],['low holistic'],['left'],['inverted'],['U0346.bmp'],['female'],[],['female'],[[1]],[[9.99299809e-05]],CP
221,[[7]],[[222]],[[17]],['high holistic'],['left'],['upright'],['U0346.bmp'],['male'],[],['female'],[[0]],[[1.74828784]],CP
222,[[7]],[[223]],[[18]],['high holistic'],['right'],['upright'],['U0359.bmp'],['male'],[],['female'],[[0]],[[0.0286004]],CP
223,[[7]],[[224]],[[12]],['high holistic'],['right'],['upright'],['U0178.bmp'],['male'],[],['male'],[[1]],[[0.00019139]],CP
224,[[7]],[[225]],[[6]],['high holistic'],['right'],['upright'],['U0106.bmp'],['female'],[],['male'],[[0]],[[0.00010537]],CP
225,[[7]],[[226]],[[16]],['low holistic'],['fovea'],['upright'],['U0335.bmp'],['female'],[],['female'],[[1]],[[0.00021419]],CP
226,[[7]],[[227]],[[15]],['low holistic'],['right'],['upright'],['U0312.bmp'],['male'],[],['male'],[[1]],[[0.00020281]],CP
227,[[7]],[[228]],[[18]],['high holistic'],['left'],['inverted'],['U0359.bmp'],['male'],[],['male'],[[1]],[[0.67567516]],CP
228,[[7]],[[229]],[[13]],['high holistic'],['right'],['upright'],['U0181.bmp'],['female'],[],['female'],[[1]],[[0.08983727]],CP
229,[[7]],[[230]],[[6]],['low holistic'],['right'],['inverted'],['U0106.bmp'],['male'],[],['male'],[[1]],[[0.03806561]],CP
230,[[7]],[[231]],[[18]],['high holistic'],['right'],['upright'],['U0359.bmp'],['male'],[],['male'],[[1]],[[0.0003857]],CP
231,[[7]],[[232]],[[2]],['high holistic'],['right'],['upright'],['U0014.bmp'],['male'],[],['female'],[[0]],[[0.00010555]],CP
232,[[7]],[[233]],[[16]],['high holistic'],['left'],['upright'],['U0335.bmp'],['female'],[],['male'],[[0]],[[0.00010562]],CP
233,[[7]],[[234]],[[19]],['low holistic'],['left'],['inverted'],['U0361.bmp'],['female'],[],['male'],[[0]],[[0.29245044]],CP
234,[[7]],[[235]],[[1]],['low holistic'],['right'],['inverted'],['U0006.bmp'],['female'],[],['female'],[[1]],[[0.0001062]],CP
235,[[7]],[[236]],[[5]],['high holistic'],['right'],['inverted'],['U0076.bmp'],['female'],[],['female'],[[1]],[[0.25578181]],CP
236,[[7]],[[237]],[[10]],['high holistic'],['left'],['upright'],['U0159.bmp'],['male'],[],['male'],[[1]],[[0.04473008]],CP
237,[[7]],[[238]],[[14]],['high holistic'],['right'],['upright'],['U0228.bmp'],['male'],[],['male'],[[1]],[[0.00041715]],CP
238,[[7]],[[239]],[[7]],['high holistic'],['right'],['inverted'],['U0107.bmp'],['female'],[],['male'],[[0]],[[0.1553827]],CP
239,[[7]],[[240]],[[3]],['high holistic'],['left'],['upright'],['U0020.bmp'],['male'],[],['male'],[[1]],[[0.22830878]],CP
240,[[7]],[[241]],[[17]],['low holistic'],['left'],['inverted'],['U0346.bmp'],['female'],[],['female'],[[1]],[[0.00040133]],CP
241,[[7]],[[242]],[[3]],['high holistic'],['left'],['inverted'],['U0020.bmp'],['male'],[],['female'],[[0]],[[0.00011599]],CP
242,[[7]],[[243]],[[3]],['high holistic'],['left'],['upright'],['U0020.bmp'],['male'],[],['female'],[[0]],[[0.00010602]],CP
243,[[7]],[[244]],[[6]],['low holistic'],['right'],['inverted'],['U0106.bmp'],['male'],[],['male'],[[1]],[[0.00423732]],CP
244,[[7]],[[245]],[[6]],['low holistic'],['fovea'],['upright'],['U0106.bmp'],['male'],[],['male'],[[1]],[[0.00035492]],CP
245,[[7]],[[246]],[[3]],['high holistic'],['right'],['upright'],['U0020.bmp'],['male'],[],['male'],[[1]],[[9.77001619e-05]],CP
246,[[7]],[[247]],[[12]],['high holistic'],['right'],['upright'],['U0178.bmp'],['male'],[],['male'],[[1]],[[0.00010426]],CP
247,[[7]],[[248]],[[16]],['low holistic'],['right'],['upright'],['U0335.bmp'],['female'],[],['female'],[[1]],[[0.000106]],CP
248,[[7]],[[249]],[[7]],['low holistic'],['left'],['upright'],['U0107.bmp'],['female'],[],['female'],[[1]],[[0.00010508]],CP
249,[[7]],[[250]],[[18]],['low holistic'],['right'],['upright'],['U0359.bmp'],['male'],[],['female'],[[0]],[[9.79818869e-05]],CP
250,[[7]],[[251]],[[5]],['low holistic'],['left'],['upright'],['U0076.bmp'],['male'],[],['male'],[[1]],[[0.09169638]],CP
251,[[7]],[[252]],[[15]],['low holistic'],['left'],['upright'],['U0312.bmp'],['male'],[],['male'],[[1]],[[9.77448653e-05]],CP
252,[[7]],[[253]],[[17]],['high holistic'],['right'],['inverted'],['U0346.bmp'],['male'],[],['female'],[[0]],[[0.18534089]],CP
253,[[7]],[[254]],[[4]],['low holistic'],['fovea'],['upright'],['U0061.bmp'],['female'],[],['female'],[[1]],[[0.00010538]],CP
254,[[7]],[[255]],[[10]],['high holistic'],['right'],['upright'],['U0159.bmp'],['male'],[],['male'],[[1]],[[9.77860764e-05]],CP
255,[[7]],[[256]],[[9]],['low holistic'],['right'],['upright'],['U0155.bmp'],['male'],[],['female'],[[0]],[[9.86531377e-05]],CP
256,[[7]],[[257]],[[12]],['low holistic'],['left'],['upright'],['U0178.bmp'],['female'],[],['female'],[[1]],[[0.57665327]],CP
257,[[7]],[[258]],[[6]],['high holistic'],['left'],['upright'],['U0106.bmp'],['female'],[],['male'],[[0]],[[9.81409103e-05]],CP
258,[[7]],[[259]],[[16]],['high holistic'],['right'],['inverted'],['U0335.bmp'],['female'],[],['female'],[[1]],[[0.02531112]],CP
259,[[7]],[[260]],[[10]],['low holistic'],['left'],['upright'],['U0159.bmp'],['female'],[],['female'],[[1]],[[9.79779288e-05]],CP
260,[[7]],[[261]],[[2]],['low holistic'],['left'],['inverted'],['U0014.bmp'],['male'],[],['male'],[[1]],[[0.38070657]],CP
261,[[7]],[[262]],[[15]],['high holistic'],['right'],['inverted'],['U0312.bmp'],['male'],[],['male'],[[1]],[[0.20644468]],CP
262,[[7]],[[263]],[[1]],['high holistic'],['right'],['upright'],['U0006.bmp'],['female'],[],['female'],[[1]],[[0.04507391]],CP
263,[[7]],[[264]],[[10]],['low holistic'],['left'],['upright'],['U0159.bmp'],['female'],[],['female'],[[1]],[[0.00010768]],CP
264,[[7]],[[265]],[[5]],['low holistic'],['right'],['inverted'],['U0076.bmp'],['male'],[],['female'],[[0]],[[0.0192597]],CP
265,[[7]],[[266]],[[14]],['high holistic'],['fovea'],['upright'],['U0228.bmp'],['male'],[],['male'],[[1]],[[9.87749081e-05]],CP
266,[[7]],[[267]],[[4]],['high holistic'],['left'],['upright'],['U0061.bmp'],['female'],[],['male'],[[0]],[[0.00012274]],CP
267,[[7]],[[268]],[[20]],['low holistic'],['left'],['upright'],['U0362.bmp'],['male'],[],['male'],[[1]],[[9.75690782e-05]],CP
268,[[7]],[[269]],[[7]],['low holistic'],['left'],['inverted'],['U0107.bmp'],['female'],[],['female'],[[1]],[[0.05145222]],CP
269,[[7]],[[270]],[[19]],['high holistic'],['left'],['upright'],['U0361.bmp'],['female'],[],['male'],[[0]],[[0.21120032]],CP
270,[[7]],[[271]],[[2]],['high holistic'],['left'],['upright'],['U0014.bmp'],['male'],[],['male'],[[1]],[[9.94151924e-05]],CP
271,[[7]],[[272]],[[7]],['low holistic'],['fovea'],['inverted'],['U0107.bmp'],['female'],[],['female'],[[1]],[[9.8049175e-05]],CP
272,[[7]],[[273]],[[11]],['low holistic'],['left'],['inverted'],['U0164.bmp'],['female'],[],['female'],[[1]],[[9.79341567e-05]],CP
273,[[7]],[[274]],[[13]],['low holistic'],['left'],['upright'],['U0181.bmp'],['male'],[],['male'],[[1]],[[9.84149519e-05]],CP
274,[[7]],[[275]],[[14]],['low holistic'],['right'],['inverted'],['U0228.bmp'],['male'],[],['male'],[[1]],[[0.04951124]],CP
275,[[7]],[[276]],[[13]],['low holistic'],['right'],['inverted'],['U0181.bmp'],['male'],[],['male'],[[1]],[[9.90740955e-05]],CP
276,[[7]],[[277]],[[11]],['low holistic'],['right'],['inverted'],['U0164.bmp'],['female'],[],['female'],[[1]],[[0.00010591]],CP
277,[[7]],[[278]],[[11]],['high holistic'],['left'],['upright'],['U0164.bmp'],['female'],[],['male'],[[0]],[[9.7424956e-05]],CP
278,[[7]],[[279]],[[18]],['low holistic'],['left'],['upright'],['U0359.bmp'],['male'],[],['male'],[[1]],[[1.58387346]],CP
279,[[7]],[[280]],[[6]],['high holistic'],['left'],['upright'],['U0106.bmp'],['female'],[],['male'],[[0]],[[0.00026334]],CP
280,[[7]],[[281]],[[11]],['low holistic'],['right'],['inverted'],['U0164.bmp'],['female'],[],['female'],[[1]],[[0.00011601]],CP
281,[[7]],[[282]],[[6]],['low holistic'],['right'],['inverted'],['U0106.bmp'],['male'],[],['male'],[[1]],[[0.00013795]],CP
282,[[7]],[[283]],[[10]],['low holistic'],['right'],['upright'],['U0159.bmp'],['female'],[],['female'],[[1]],[[0.00025562]],CP
283,[[7]],[[284]],[[3]],['low holistic'],['right'],['inverted'],['U0020.bmp'],['female'],[],['female'],[[1]],[[9.9258963e-05]],CP
284,[[7]],[[285]],[[5]],['high holistic'],['right'],['upright'],['U0076.bmp'],['female'],[],['male'],[[0]],[[0.00011341]],CP
285,[[7]],[[286]],[[9]],['high holistic'],['left'],['inverted'],['U0155.bmp'],['female'],[],['female'],[[1]],[[9.77639575e-05]],CP
286,[[7]],[[287]],[[11]],['low holistic'],['left'],['inverted'],['U0164.bmp'],['female'],[],['female'],[[1]],[[9.71769914e-05]],CP
287,[[7]],[[288]],[[14]],['low holistic'],['right'],['upright'],['U0228.bmp'],['male'],[],['male'],[[1]],[[9.71180853e-05]],CP
288,[[7]],[[289]],[[2]],['low holistic'],['left'],['inverted'],['U0014.bmp'],['male'],[],['male'],[[1]],[[0.25668241]],CP
289,[[7]],[[290]],[[3]],['high holistic'],['left'],['inverted'],['U0020.bmp'],['male'],[],['female'],[[0]],[[0.00020341]],CP
290,[[7]],[[291]],[[4]],['low holistic'],['left'],['upright'],['U0061.bmp'],['female'],[],['female'],[[1]],[[0.00010511]],CP
291,[[7]],[[292]],[[2]],['high holistic'],['right'],['upright'],['U0014.bmp'],['male'],[],['male'],[[1]],[[0.00022096]],CP
292,[[7]],[[293]],[[6]],['low holistic'],['fovea'],['inverted'],['U0106.bmp'],['male'],[],['male'],[[1]],[[0.03827555]],CP
293,[[7]],[[294]],[[5]],['low holistic'],['left'],['upright'],['U0076.bmp'],['male'],[],['male'],[[1]],[[0.00051833]],CP
294,[[7]],[[295]],[[2]],['low holistic'],['left'],['inverted'],['U0014.bmp'],['male'],[],['male'],[[1]],[[0.0001137]],CP
295,[[7]],[[296]],[[6]],['high holistic'],['left'],['inverted'],['U0106.bmp'],['female'],[],['female'],[[1]],[[0.0520544]],CP
296,[[7]],[[297]],[[7]],['high holistic'],['right'],['upright'],['U0107.bmp'],['female'],[],['male'],[[0]],[[9.8638935e-05]],CP
297,[[7]],[[298]],[[3]],['low holistic'],['left'],['inverted'],['U0020.bmp'],['female'],[],['female'],[[1]],[[0.00036329]],CP
298,[[7]],[[299]],[[19]],['high holistic'],['right'],['upright'],['U0361.bmp'],['female'],[],['male'],[[0]],[[0.02661296]],CP
299,[[7]],[[300]],[[20]],['low holistic'],['left'],['upright'],['U0362.bmp'],['male'],[],['male'],[[1]],[[9.84251965e-05]],CP
300,[[7]],[[301]],[[5]],['high holistic'],['right'],['upright'],['U0076.bmp'],['female'],[],['female'],[[1]],[[0.00010529]],CP
301,[[7]],[[302]],[[1]],['low holistic'],['fovea'],['inverted'],['U0006.bmp'],['female'],[],['female'],[[1]],[[9.75038856e-05]],CP
302,[[7]],[[303]],[[5]],['low holistic'],['right'],['upright'],['U0076.bmp'],['male'],[],['female'],[[0]],[[9.71111003e-05]],CP
303,[[7]],[[304]],[[17]],['high holistic'],['fovea'],['inverted'],['U0346.bmp'],['male'],[],['female'],[[0]],[[0.04077014]],CP
304,[[7]],[[305]],[[14]],['low holistic'],['right'],['inverted'],['U0228.bmp'],['male'],[],['male'],[[1]],[[0.00022954]],CP
305,[[7]],[[306]],[[20]],['high holistic'],['right'],['upright'],['U0362.bmp'],['female'],[],['female'],[[1]],[[0.03200605]],CP
306,[[7]],[[307]],[[11]],['high holistic'],['left'],['upright'],['U0164.bmp'],['female'],[],['female'],[[1]],[[0.36632719]],CP
307,[[7]],[[308]],[[18]],['high holistic'],['right'],['inverted'],['U0359.bmp'],['male'],[],['male'],[[1]],[[9.85928345e-05]],CP
308,[[7]],[[309]],[[2]],['low holistic'],['right'],['inverted'],['U0014.bmp'],['male'],[],['male'],[[1]],[[0.03077936]],CP
309,[[7]],[[310]],[[14]],['low holistic'],['left'],['inverted'],['U0228.bmp'],['male'],[],['male'],[[1]],[[0.00010555]],CP
310,[[7]],[[311]],[[15]],['low holistic'],['right'],['inverted'],['U0312.bmp'],['male'],[],['male'],[[1]],[[0.00012498]],CP
311,[[7]],[[312]],[[18]],['high holistic'],['left'],['upright'],['U0359.bmp'],['male'],[],['male'],[[1]],[[0.00015754]],CP
312,[[7]],[[313]],[[2]],['high holistic'],['right'],['inverted'],['U0014.bmp'],['male'],[],['male'],[[1]],[[9.97311436e-05]],CP
313,[[7]],[[314]],[[6]],['low holistic'],['fovea'],['inverted'],['U0106.bmp'],['male'],[],['male'],[[1]],[[0.00010555]],CP
314,[[7]],[[315]],[[13]],['high holistic'],['left'],['upright'],['U0181.bmp'],['female'],[],['male'],[[0]],[[0.00031315]],CP
315,[[7]],[[316]],[[3]],['low holistic'],['right'],['upright'],['U0020.bmp'],['female'],[],['female'],[[1]],[[0.00018851]],CP
316,[[7]],[[317]],[[3]],['high holistic'],['left'],['upright'],['U0020.bmp'],['male'],[],['male'],[[1]],[[9.81928315e-05]],CP
317,[[7]],[[318]],[[17]],['high holistic'],['right'],['upright'],['U0346.bmp'],['male'],[],['male'],[[1]],[[0.00010401]],CP
318,[[7]],[[319]],[[12]],['high holistic'],['right'],['inverted'],['U0178.bmp'],['male'],[],['male'],[[1]],[[0.12568697]],CP
319,[[7]],[[320]],[[12]],['high holistic'],['left'],['upright'],['U0178.bmp'],['male'],[],['male'],[[1]],[[0.00010582]],CP
320,[[7]],[[321]],[[4]],['low holistic'],['left'],['upright'],['U0061.bmp'],['female'],[],['female'],[[1]],[[0.04001648]],CP
321,[[7]],[[322]],[[7]],['low holistic'],['left'],['inverted'],['U0107.bmp'],['female'],[],['male'],[[0]],[[0.00059264]],CP
322,[[7]],[[323]],[[1]],['high holistic'],['right'],['upright'],['U0006.bmp'],['female'],[],['female'],[[1]],[[0.24842605]],CP
323,[[7]],[[324]],[[1]],['high holistic'],['right'],['upright'],['U0006.bmp'],['female'],[],['female'],[[1]],[[0.00011846]],CP
324,[[7]],[[325]],[[2]],['low holistic'],['left'],['upright'],['U0014.bmp'],['male'],[],['male'],[[1]],[[0.00010064]],CP
325,[[7]],[[326]],[[11]],['low holistic'],['right'],['upright'],['U0164.bmp'],['female'],[],['female'],[[1]],[[0.00543439]],CP
326,[[7]],[[327]],[[18]],['high holistic'],['left'],['inverted'],['U0359.bmp'],['male'],[],['female'],[[0]],[[0.00010514]],CP
327,[[7]],[[328]],[[16]],['high holistic'],['left'],['inverted'],['U0335.bmp'],['female'],[],['male'],[[0]],[[0.06876143]],CP
328,[[7]],[[329]],[[4]],['high holistic'],['left'],['inverted'],['U0061.bmp'],['female'],[],['female'],[[1]],[[0.12175172]],CP
329,[[7]],[[330]],[[5]],['high holistic'],['fovea'],['upright'],['U0076.bmp'],['female'],[],['female'],[[1]],[[0.00016669]],CP
330,[[7]],[[331]],[[9]],['high holistic'],['right'],['upright'],['U0155.bmp'],['female'],[],['male'],[[0]],[[0.16541502]],CP
331,[[7]],[[332]],[[7]],['low holistic'],['left'],['inverted'],['U0107.bmp'],['female'],[],['female'],[[1]],[[0.00010723]],CP
332,[[7]],[[333]],[[18]],['high holistic'],['left'],['upright'],['U0359.bmp'],['male'],[],['male'],[[1]],[[0.00019373]],CP
333,[[7]],[[334]],[[8]],['low holistic'],['left'],['upright'],['U0137.bmp'],['male'],[],['male'],[[1]],[[9.83921345e-05]],CP
334,[[7]],[[335]],[[20]],['low holistic'],['left'],['inverted'],['U0362.bmp'],['male'],[],['male'],[[1]],[[9.69648827e-05]],CP
335,[[7]],[[336]],[[14]],['high holistic'],['right'],['upright'],['U0228.bmp'],['male'],[],['male'],[[1]],[[0.00019282]],CP
336,[[7]],[[337]],[[16]],['high holistic'],['left'],['inverted'],['U0335.bmp'],['female'],[],['male'],[[0]],[[0.00010707]],CP
337,[[7]],[[338]],[[10]],['low holistic'],['right'],['inverted'],['U0159.bmp'],['female'],[],['female'],[[1]],[[0.00478555]],CP
338,[[7]],[[339]],[[18]],['high holistic'],['left'],['inverted'],['U0359.bmp'],['male'],[],['female'],[[0]],[[0.00044878]],CP
339,[[7]],[[340]],[[9]],['low holistic'],['left'],['inverted'],['U0155.bmp'],['male'],[],['male'],[[1]],[[0.4381568]],CP
340,[[7]],[[341]],[[3]],['high holistic'],['right'],['upright'],['U0020.bmp'],['male'],[],['male'],[[1]],[[9.88009851e-05]],CP
341,[[7]],[[342]],[[7]],['high holistic'],['left'],['upright'],['U0107.bmp'],['female'],[],['male'],[[0]],[[9.83460341e-05]],CP
342,[[7]],[[343]],[[13]],['high holistic'],['right'],['upright'],['U0181.bmp'],['female'],[],['female'],[[1]],[[0.00489512]],CP
343,[[7]],[[344]],[[14]],['low holistic'],['left'],['inverted'],['U0228.bmp'],['male'],[],['female'],[[0]],[[0.00011935]],CP
344,[[7]],[[345]],[[8]],['high holistic'],['right'],['inverted'],['U0137.bmp'],['female'],[],['male'],[[0]],[[0.00010463]],CP
345,[[7]],[[346]],[[2]],['high holistic'],['right'],['inverted'],['U0014.bmp'],['male'],[],['male'],[[1]],[[9.87830572e-05]],CP
346,[[7]],[[347]],[[10]],['high holistic'],['right'],['inverted'],['U0159.bmp'],['male'],[],['male'],[[1]],[[9.84310172e-05]],CP
347,[[7]],[[348]],[[19]],['low holistic'],['right'],['inverted'],['U0361.bmp'],['female'],[],['female'],[[1]],[[0.00047022]],CP
348,[[7]],[[349]],[[1]],['high holistic'],['left'],['inverted'],['U0006.bmp'],['female'],[],['female'],[[1]],[[0.00017112]],CP
349,[[7]],[[350]],[[5]],['high holistic'],['left'],['inverted'],['U0076.bmp'],['female'],[],['female'],[[1]],[[0.25866875]],CP
350,[[7]],[[351]],[[14]],['low holistic'],['right'],['upright'],['U0228.bmp'],['male'],[],['male'],[[1]],[[9.93779395e-05]],CP
351,[[7]],[[352]],[[20]],['high holistic'],['fovea'],['upright'],['U0362.bmp'],['female'],[],['male'],[[0]],[[0.00010481]],CP
352,[[7]],[[353]],[[2]],['low holistic'],['left'],['inverted'],['U0014.bmp'],['male'],[],['female'],[[0]],[[0.06539582]],CP
353,[[7]],[[354]],[[20]],['low holistic'],['left'],['upright'],['U0362.bmp'],['male'],[],['male'],[[1]],[[0.62335222]],CP
354,[[7]],[[355]],[[20]],['low holistic'],['right'],['inverted'],['U0362.bmp'],['male'],[],['male'],[[1]],[[0.00012329]],CP
355,[[7]],[[356]],[[3]],['low holistic'],['right'],['upright'],['U0020.bmp'],['female'],[],['female'],[[1]],[[9.99809708e-05]],CP
356,[[7]],[[357]],[[10]],['low holistic'],['right'],['upright'],['U0159.bmp'],['female'],[],['female'],[[1]],[[0.00044893]],CP
357,[[7]],[[358]],[[20]],['high holistic'],['right'],['inverted'],['U0362.bmp'],['female'],[],['female'],[[1]],[[0.00010839]],CP
358,[[7]],[[359]],[[5]],['low holistic'],['left'],['inverted'],['U0076.bmp'],['male'],[],['male'],[[1]],[[9.74661671e-05]],CP
359,[[7]],[[360]],[[14]],['low holistic'],['right'],['inverted'],['U0228.bmp'],['male'],[],['male'],[[1]],[[0.00010595]],CP
360,[[7]],[[361]],[[14]],['high holistic'],['right'],['inverted'],['U0228.bmp'],['male'],[],['female'],[[0]],[[0.00010523]],CP
361,[[7]],[[362]],[[17]],['high holistic'],['right'],['upright'],['U0346.bmp'],['male'],[],['male'],[[1]],[[0.00010466]],CP
362,[[7]],[[363]],[[7]],['low holistic'],['right'],['upright'],['U0107.bmp'],['female'],[],['female'],[[1]],[[1.88566451]],CP
363,[[7]],[[364]],[[18]],['high holistic'],['fovea'],['upright'],['U0359.bmp'],['male'],[],['male'],[[1]],[[0.00015323]],CP
364,[[7]],[[365]],[[5]],['high holistic'],['right'],['inverted'],['U0076.bmp'],['female'],[],['male'],[[0]],[[0.08296092]],CP
365,[[7]],[[366]],[[6]],['high holistic'],['fovea'],['inverted'],['U0106.bmp'],['female'],[],['female'],[[1]],[[0.00030919]],CP
366,[[7]],[[367]],[[18]],['high holistic'],['left'],['upright'],['U0359.bmp'],['male'],[],['male'],[[1]],[[0.00010118]],CP
367,[[7]],[[368]],[[12]],['low holistic'],['left'],['upright'],['U0178.bmp'],['female'],[],['female'],[[1]],[[9.89527907e-05]],CP
368,[[7]],[[369]],[[16]],['low holistic'],['right'],['inverted'],['U0335.bmp'],['female'],[],['male'],[[0]],[[9.89970285e-05]],CP
369,[[7]],[[370]],[[12]],['high holistic'],['left'],['inverted'],['U0178.bmp'],['male'],[],['male'],[[1]],[[0.31150811]],CP
370,[[7]],[[371]],[[8]],['low holistic'],['left'],['inverted'],['U0137.bmp'],['male'],[],['male'],[[1]],[[9.94908623e-05]],CP
371,[[7]],[[372]],[[14]],['low holistic'],['right'],['inverted'],['U0228.bmp'],['male'],[],['female'],[[0]],[[0.00039174]],CP
372,[[7]],[[373]],[[19]],['high holistic'],['right'],['inverted'],['U0361.bmp'],['female'],[],['male'],[[0]],[[0.05065037]],CP
373,[[7]],[[374]],[[8]],['low holistic'],['left'],['inverted'],['U0137.bmp'],['male'],[],['male'],[[1]],[[0.00010022]],CP
374,[[7]],[[375]],[[2]],['low holistic'],['left'],['upright'],['U0014.bmp'],['male'],[],['male'],[[1]],[[0.00050359]],CP
375,[[7]],[[376]],[[11]],['high holistic'],['right'],['inverted'],['U0164.bmp'],['female'],[],['female'],[[1]],[[0.08730478]],CP
376,[[7]],[[377]],[[7]],['low holistic'],['left'],['upright'],['U0107.bmp'],['female'],[],['female'],[[1]],[[0.00026328]],CP
377,[[7]],[[378]],[[19]],['high holistic'],['left'],['inverted'],['U0361.bmp'],['female'],[],['female'],[[1]],[[9.77369491e-05]],CP
378,[[7]],[[379]],[[4]],['low holistic'],['left'],['inverted'],['U0061.bmp'],['female'],[],['male'],[[0]],[[0.00016557]],CP
379,[[7]],[[380]],[[12]],['high holistic'],['right'],['inverted'],['U0178.bmp'],['male'],[],['male'],[[1]],[[0.24611277]],CP
380,[[7]],[[381]],[[6]],['high holistic'],['right'],['upright'],['U0106.bmp'],['female'],[],['male'],[[0]],[[9.9533936e-05]],CP
381,[[7]],[[382]],[[4]],['high holistic'],['left'],['inverted'],['U0061.bmp'],['female'],[],['male'],[[0]],[[0.28305318]],CP
382,[[7]],[[383]],[[3]],['low holistic'],['right'],['inverted'],['U0020.bmp'],['female'],[],['female'],[[1]],[[9.98128671e-05]],CP
383,[[7]],[[384]],[[10]],['high holistic'],['right'],['upright'],['U0159.bmp'],['male'],[],['male'],[[1]],[[0.00010046]],CP
384,[[7]],[[385]],[[14]],['high holistic'],['left'],['upright'],['U0228.bmp'],['male'],[],['male'],[[1]],[[0.00010613]],CP
385,[[7]],[[386]],[[17]],['high holistic'],['fovea'],['inverted'],['U0346.bmp'],['male'],[],['female'],[[0]],[[9.84319486e-05]],CP
386,[[7]],[[387]],[[8]],['low holistic'],['left'],['inverted'],['U0137.bmp'],['male'],[],['male'],[[1]],[[0.00013813]],CP
387,[[7]],[[388]],[[12]],['low holistic'],['left'],['inverted'],['U0178.bmp'],['female'],[],['female'],[[1]],[[9.91569832e-05]],CP
388,[[7]],[[389]],[[4]],['low holistic'],['right'],['inverted'],['U0061.bmp'],['female'],[],['female'],[[1]],[[9.898399e-05]],CP
389,[[7]],[[390]],[[5]],['low holistic'],['right'],['upright'],['U0076.bmp'],['male'],[],['male'],[[1]],[[0.00011609]],CP
390,[[7]],[[391]],[[9]],['low holistic'],['left'],['inverted'],['U0155.bmp'],['male'],[],['male'],[[1]],[[0.87852764]],CP
391,[[7]],[[392]],[[15]],['high holistic'],['left'],['inverted'],['U0312.bmp'],['male'],[],['male'],[[1]],[[1.10708174]],CP
392,[[7]],[[393]],[[9]],['low holistic'],['right'],['upright'],['U0155.bmp'],['male'],[],['female'],[[0]],[[0.00011834]],CP
393,[[7]],[[394]],[[7]],['high holistic'],['right'],['inverted'],['U0107.bmp'],['female'],[],['female'],[[1]],[[0.00606812]],CP
394,[[7]],[[395]],[[13]],['high holistic'],['left'],['inverted'],['U0181.bmp'],['female'],[],['female'],[[1]],[[0.09373815]],CP
395,[[7]],[[396]],[[18]],['high holistic'],['right'],['upright'],['U0359.bmp'],['male'],[],['male'],[[1]],[[0.00010016]],CP
396,[[7]],[[397]],[[11]],['high holistic'],['left'],['upright'],['U0164.bmp'],['female'],[],['male'],[[0]],[[9.92130954e-05]],CP
397,[[7]],[[398]],[[7]],['high holistic'],['left'],['inverted'],['U0107.bmp'],['female'],[],['female'],[[1]],[[0.01140966]],CP
398,[[7]],[[399]],[[6]],['high holistic'],['right'],['inverted'],['U0106.bmp'],['female'],[],['female'],[[1]],[[0.00146156]],CP
399,[[7]],[[400]],[[16]],['high holistic'],['left'],['upright'],['U0335.bmp'],['female'],[],['male'],[[0]],[[0.00010554]],CP
400,[[7]],[[401]],[[1]],['high holistic'],['left'],['inverted'],['U0006.bmp'],['female'],[],['male'],[[0]],[[9.93169378e-05]],CP
401,[[7]],[[402]],[[12]],['low holistic'],['left'],['upright'],['U0178.bmp'],['female'],[],['female'],[[1]],[[9.9113211e-05]],CP
402,[[7]],[[403]],[[10]],['low holistic'],['right'],['upright'],['U0159.bmp'],['female'],[],['female'],[[1]],[[1.24979624]],CP
403,[[7]],[[404]],[[20]],['high holistic'],['fovea'],['inverted'],['U0362.bmp'],['female'],[],['female'],[[1]],[[0.11313998]],CP
404,[[7]],[[405]],[[16]],['low holistic'],['right'],['inverted'],['U0335.bmp'],['female'],[],['female'],[[1]],[[0.00010729]],CP
405,[[7]],[[406]],[[19]],['low holistic'],['left'],['upright'],['U0361.bmp'],['female'],[],['female'],[[1]],[[9.92780551e-05]],CP
406,[[7]],[[407]],[[9]],['low holistic'],['right'],['upright'],['U0155.bmp'],['male'],[],['female'],[[0]],[[1.17857177]],CP
407,[[7]],[[408]],[[12]],['high holistic'],['right'],['upright'],['U0178.bmp'],['male'],[],['male'],[[1]],[[0.05266219]],CP
408,[[7]],[[409]],[[14]],['high holistic'],['left'],['inverted'],['U0228.bmp'],['male'],[],['male'],[[1]],[[9.82549973e-05]],CP
409,[[7]],[[410]],[[20]],['low holistic'],['right'],['upright'],['U0362.bmp'],['male'],[],['male'],[[1]],[[9.78519674e-05]],CP
410,[[7]],[[411]],[[3]],['low holistic'],['right'],['upright'],['U0020.bmp'],['female'],[],['female'],[[1]],[[0.00010569]],CP
411,[[7]],[[412]],[[4]],['low holistic'],['right'],['upright'],['U0061.bmp'],['female'],[],['female'],[[1]],[[0.00010595]],CP
412,[[7]],[[413]],[[4]],['high holistic'],['right'],['upright'],['U0061.bmp'],['female'],[],['female'],[[1]],[[0.08973746]],CP
413,[[7]],[[414]],[[19]],['high holistic'],['right'],['upright'],['U0361.bmp'],['female'],[],['male'],[[0]],[[0.02290422]],CP
414,[[7]],[[415]],[[16]],['high holistic'],['right'],['upright'],['U0335.bmp'],['female'],[],['male'],[[0]],[[9.89069231e-05]],CP
415,[[7]],[[416]],[[10]],['low holistic'],['right'],['upright'],['U0159.bmp'],['female'],[],['female'],[[1]],[[0.00027251]],CP
416,[[7]],[[417]],[[16]],['high holistic'],['left'],['upright'],['U0335.bmp'],['female'],[],['female'],[[1]],[[0.00016595]],CP
417,[[7]],[[418]],[[4]],['high holistic'],['right'],['inverted'],['U0061.bmp'],['female'],[],['male'],[[0]],[[0.11607133]],CP
418,[[7]],[[419]],[[20]],['high holistic'],['right'],['inverted'],['U0362.bmp'],['female'],[],['female'],[[1]],[[0.00010711]],CP
419,[[7]],[[420]],[[17]],['high holistic'],['left'],['upright'],['U0346.bmp'],['male'],[],['male'],[[1]],[[0.00010603]],CP
420,[[7]],[[421]],[[8]],['low holistic'],['right'],['upright'],['U0137.bmp'],['male'],[],['male'],[[1]],[[0.00010507]],CP
421,[[7]],[[422]],[[14]],['low holistic'],['right'],['inverted'],['U0228.bmp'],['male'],[],['male'],[[1]],[[1.33438979]],CP
422,[[7]],[[423]],[[18]],['low holistic'],['right'],['upright'],['U0359.bmp'],['male'],[],['male'],[[1]],[[0.10517664]],CP
423,[[7]],[[424]],[[8]],['low holistic'],['left'],['upright'],['U0137.bmp'],['male'],[],['male'],[[1]],[[0.000243]],CP
424,[[7]],[[425]],[[12]],['low holistic'],['right'],['upright'],['U0178.bmp'],['female'],[],['female'],[[1]],[[0.00010489]],CP
425,[[7]],[[426]],[[11]],['high holistic'],['right'],['inverted'],['U0164.bmp'],['female'],[],['male'],[[0]],[[0.06518977]],CP
426,[[7]],[[427]],[[2]],['high holistic'],['fovea'],['inverted'],['U0014.bmp'],['male'],[],['female'],[[0]],[[0.00034102]],CP
427,[[7]],[[428]],[[4]],['high holistic'],['right'],['upright'],['U0061.bmp'],['female'],[],['female'],[[1]],[[9.87949315e-05]],CP
428,[[7]],[[429]],[[10]],['high holistic'],['right'],['inverted'],['U0159.bmp'],['male'],[],['female'],[[0]],[[0.0458346]],CP
429,[[7]],[[430]],[[17]],['low holistic'],['right'],['inverted'],['U0346.bmp'],['female'],[],['female'],[[1]],[[0.00016154]],CP
430,[[7]],[[431]],[[17]],['high holistic'],['fovea'],['upright'],['U0346.bmp'],['male'],[],['male'],[[1]],[[0.02930903]],CP
431,[[7]],[[432]],[[7]],['high holistic'],['left'],['inverted'],['U0107.bmp'],['female'],[],['male'],[[0]],[[9.94498841e-05]],CP
432,[[7]],[[433]],[[9]],['low holistic'],['left'],['inverted'],['U0155.bmp'],['male'],[],['male'],[[1]],[[0.00028997]],CP
433,[[7]],[[434]],[[2]],['low holistic'],['left'],['inverted'],['U0014.bmp'],['male'],[],['male'],[[1]],[[0.00031086]],CP
434,[[7]],[[435]],[[5]],['high holistic'],['right'],['inverted'],['U0076.bmp'],['female'],[],['male'],[[0]],[[9.89430118e-05]],CP
435,[[7]],[[436]],[[13]],['high holistic'],['left'],['upright'],['U0181.bmp'],['female'],[],['male'],[[0]],[[0.00010826]],CP
436,[[7]],[[437]],[[10]],['low holistic'],['left'],['inverted'],['U0159.bmp'],['female'],[],['female'],[[1]],[[9.80619807e-05]],CP
437,[[7]],[[438]],[[4]],['low holistic'],['left'],['inverted'],['U0061.bmp'],['female'],[],['female'],[[1]],[[0.00012598]],CP
438,[[7]],[[439]],[[3]],['low holistic'],['left'],['inverted'],['U0020.bmp'],['female'],[],['female'],[[1]],[[0.00010535]],CP
439,[[7]],[[440]],[[17]],['high holistic'],['left'],['upright'],['U0346.bmp'],['male'],[],['male'],[[1]],[[9.81867779e-05]],CP
440,[[7]],[[441]],[[7]],['low holistic'],['fovea'],['upright'],['U0107.bmp'],['female'],[],['male'],[[0]],[[0.00010536]],CP
441,[[7]],[[442]],[[9]],['low holistic'],['left'],['upright'],['U0155.bmp'],['male'],[],['male'],[[1]],[[0.05859961]],CP
442,[[7]],[[443]],[[4]],['high holistic'],['left'],['upright'],['U0061.bmp'],['female'],[],['female'],[[1]],[[0.00010392]],CP
443,[[7]],[[444]],[[14]],['high holistic'],['fovea'],['inverted'],['U0228.bmp'],['male'],[],['female'],[[0]],[[0.00016774]],CP
444,[[7]],[[445]],[[6]],['high holistic'],['left'],['inverted'],['U0106.bmp'],['female'],[],['male'],[[0]],[[0.00010475]],CP
445,[[7]],[[446]],[[1]],['high holistic'],['right'],['inverted'],['U0006.bmp'],['female'],[],['female'],[[1]],[[0.00051682]],CP
446,[[7]],[[447]],[[14]],['high holistic'],['left'],['inverted'],['U0228.bmp'],['male'],[],['female'],[[0]],[[0.00010437]],CP
447,[[7]],[[448]],[[17]],['high holistic'],['right'],['upright'],['U0346.bmp'],['male'],[],['male'],[[1]],[[0.00028478]],CP
448,[[7]],[[449]],[[11]],['low holistic'],['right'],['inverted'],['U0164.bmp'],['female'],[],['male'],[[0]],[[9.89271794e-05]],CP
449,[[7]],[[450]],[[4]],['low holistic'],['right'],['inverted'],['U0061.bmp'],['female'],[],['female'],[[1]],[[1.63965784]],CP
450,[[7]],[[451]],[[16]],['low holistic'],['left'],['upright'],['U0335.bmp'],['female'],[],['female'],[[1]],[[0.00010569]],CP
451,[[7]],[[452]],[[12]],['low holistic'],['left'],['upright'],['U0178.bmp'],['female'],[],['female'],[[1]],[[1.13181477]],CP
452,[[7]],[[453]],[[10]],['low holistic'],['left'],['upright'],['U0159.bmp'],['female'],[],['female'],[[1]],[[0.08524352]],CP
453,[[7]],[[454]],[[4]],['high holistic'],['left'],['upright'],['U0061.bmp'],['female'],[],['male'],[[0]],[[0.00010609]],CP
454,[[7]],[[455]],[[10]],['low holistic'],['left'],['inverted'],['U0159.bmp'],['female'],[],['female'],[[1]],[[1.32262321]],CP
455,[[7]],[[456]],[[17]],['low holistic'],['left'],['upright'],['U0346.bmp'],['female'],[],['female'],[[1]],[[9.95530281e-05]],CP
456,[[7]],[[457]],[[20]],['low holistic'],['left'],['upright'],['U0362.bmp'],['male'],[],['male'],[[1]],[[0.00010839]],CP
457,[[7]],[[458]],[[15]],['low holistic'],['right'],['upright'],['U0312.bmp'],['male'],[],['female'],[[0]],[[9.95700248e-05]],CP
458,[[7]],[[459]],[[18]],['low holistic'],['left'],['upright'],['U0359.bmp'],['male'],[],['male'],[[1]],[[9.95320734e-05]],CP
459,[[7]],[[460]],[[20]],['high holistic'],['right'],['upright'],['U0362.bmp'],['female'],[],['female'],[[1]],[[0.00025171]],CP
460,[[7]],[[461]],[[16]],['low holistic'],['left'],['upright'],['U0335.bmp'],['female'],[],['female'],[[1]],[[9.87770036e-05]],CP
461,[[7]],[[462]],[[18]],['low holistic'],['left'],['inverted'],['U0359.bmp'],['male'],[],['male'],[[1]],[[0.02927929]],CP
462,[[7]],[[463]],[[3]],['low holistic'],['left'],['inverted'],['U0020.bmp'],['female'],[],['female'],[[1]],[[0.00010747]],CP
463,[[7]],[[464]],[[1]],['low holistic'],['left'],['inverted'],['U0006.bmp'],['female'],[],['female'],[[1]],[[9.61897895e-05]],CP
464,[[7]],[[465]],[[17]],['high holistic'],['right'],['inverted'],['U0346.bmp'],['male'],[],['female'],[[0]],[[1.19656948]],CP
465,[[7]],[[466]],[[1]],['high holistic'],['right'],['upright'],['U0006.bmp'],['female'],[],['female'],[[1]],[[0.00013491]],CP
466,[[7]],[[467]],[[9]],['low holistic'],['fovea'],['inverted'],['U0155.bmp'],['male'],[],['female'],[[0]],[[9.83129721e-05]],CP
467,[[7]],[[468]],[[2]],['low holistic'],['left'],['upright'],['U0014.bmp'],['male'],[],['male'],[[1]],[[9.74209979e-05]],CP
468,[[7]],[[469]],[[13]],['low holistic'],['right'],['inverted'],['U0181.bmp'],['male'],[],['male'],[[1]],[[9.81120393e-05]],CP
469,[[7]],[[470]],[[10]],['high holistic'],['right'],['inverted'],['U0159.bmp'],['male'],[],['male'],[[1]],[[9.82049387e-05]],CP
470,[[7]],[[471]],[[10]],['high holistic'],['right'],['upright'],['U0159.bmp'],['male'],[],['female'],[[0]],[[0.02645999]],CP
471,[[7]],[[472]],[[6]],['low holistic'],['right'],['upright'],['U0106.bmp'],['male'],[],['male'],[[1]],[[9.88480169e-05]],CP
472,[[7]],[[473]],[[12]],['high holistic'],['left'],['inverted'],['U0178.bmp'],['male'],[],['male'],[[1]],[[9.90941189e-05]],CP
473,[[7]],[[474]],[[2]],['low holistic'],['right'],['upright'],['U0014.bmp'],['male'],[],['male'],[[1]],[[9.93530266e-05]],CP
474,[[7]],[[475]],[[20]],['low holistic'],['left'],['inverted'],['U0362.bmp'],['male'],[],['male'],[[1]],[[9.94431321e-05]],CP
475,[[7]],[[476]],[[6]],['high holistic'],['left'],['inverted'],['U0106.bmp'],['female'],[],['male'],[[0]],[[9.94110014e-05]],CP
476,[[7]],[[477]],[[14]],['high holistic'],['right'],['inverted'],['U0228.bmp'],['male'],[],['female'],[[0]],[[9.82549973e-05]],CP
477,[[7]],[[478]],[[19]],['high holistic'],['fovea'],['inverted'],['U0361.bmp'],['female'],[],['male'],[[0]],[[0.00033672]],CP
478,[[7]],[[479]],[[5]],['low holistic'],['left'],['upright'],['U0076.bmp'],['male'],[],['male'],[[1]],[[0.00010049]],CP
479,[[7]],[[480]],[[5]],['low holistic'],['right'],['upright'],['U0076.bmp'],['male'],[],['male'],[[1]],[[9.91260167e-05]],CP
480,[[7]],[[481]],[[1]],['low holistic'],['left'],['upright'],['U0006.bmp'],['female'],[],['female'],[[1]],[[0.00010799]],CP
481,[[7]],[[482]],[[2]],['high holistic'],['right'],['inverted'],['U0014.bmp'],['male'],[],['male'],[[1]],[[9.81830526e-05]],CP
482,[[7]],[[483]],[[14]],['low holistic'],['right'],['upright'],['U0228.bmp'],['male'],[],['male'],[[1]],[[9.75660514e-05]],CP
483,[[7]],[[484]],[[15]],['low holistic'],['left'],['inverted'],['U0312.bmp'],['male'],[],['male'],[[1]],[[0.00011288]],CP
484,[[7]],[[485]],[[11]],['low holistic'],['left'],['inverted'],['U0164.bmp'],['female'],[],['male'],[[0]],[[9.86349769e-05]],CP
485,[[7]],[[486]],[[1]],['low holistic'],['left'],['inverted'],['U0006.bmp'],['female'],[],['male'],[[0]],[[0.00010672]],CP
486,[[7]],[[487]],[[19]],['low holistic'],['right'],['inverted'],['U0361.bmp'],['female'],[],['female'],[[1]],[[0.00720104]],CP
487,[[7]],[[488]],[[14]],['low holistic'],['right'],['upright'],['U0228.bmp'],['male'],[],['male'],[[1]],[[0.00010019]],CP
488,[[7]],[[489]],[[17]],['low holistic'],['right'],['inverted'],['U0346.bmp'],['female'],[],['male'],[[0]],[[0.00010099]],CP
489,[[7]],[[490]],[[1]],['high holistic'],['fovea'],['upright'],['U0006.bmp'],['female'],[],['female'],[[1]],[[0.00010381]],CP
490,[[7]],[[491]],[[16]],['low holistic'],['left'],['inverted'],['U0335.bmp'],['female'],[],['female'],[[1]],[[9.85851511e-05]],CP
491,[[7]],[[492]],[[8]],['high holistic'],['left'],['upright'],['U0137.bmp'],['female'],[],['male'],[[0]],[[0.00038802]],CP
492,[[7]],[[493]],[[8]],['low holistic'],['left'],['inverted'],['U0137.bmp'],['male'],[],['female'],[[0]],[[0.0002785]],CP
493,[[7]],[[494]],[[12]],['low holistic'],['fovea'],['inverted'],['U0178.bmp'],['female'],[],['male'],[[0]],[[0.00012435]],CP
494,[[7]],[[495]],[[11]],['low holistic'],['left'],['inverted'],['U0164.bmp'],['female'],[],['female'],[[1]],[[0.03590018]],CP
495,[[7]],[[496]],[[2]],['low holistic'],['left'],['inverted'],['U0014.bmp'],['male'],[],['male'],[[1]],[[0.94642182]],CP
496,[[7]],[[497]],[[6]],['low holistic'],['right'],['upright'],['U0106.bmp'],['male'],[],['female'],[[0]],[[0.00027847]],CP
497,[[7]],[[498]],[[20]],['high holistic'],['fovea'],['inverted'],['U0362.bmp'],['female'],[],['female'],[[1]],[[0.18098215]],CP
498,[[7]],[[499]],[[13]],['low holistic'],['left'],['upright'],['U0181.bmp'],['male'],[],['male'],[[1]],[[0.00010571]],CP
499,[[7]],[[500]],[[3]],['low holistic'],['right'],['inverted'],['U0020.bmp'],['female'],[],['female'],[[1]],[[0.00010644]],CP
500,[[7]],[[501]],[[1]],['low holistic'],['right'],['inverted'],['U0006.bmp'],['female'],[],['female'],[[1]],[[0.00034956]],CP
501,[[7]],[[502]],[[12]],['low holistic'],['left'],['upright'],['U0178.bmp'],['female'],[],['female'],[[1]],[[0.00010588]],CP
502,[[7]],[[503]],[[10]],['high holistic'],['left'],['upright'],['U0159.bmp'],['male'],[],['male'],[[1]],[[0.03646915]],CP
503,[[7]],[[504]],[[3]],['high holistic'],['left'],['inverted'],['U0020.bmp'],['male'],[],['female'],[[0]],[[9.93548892e-05]],CP
504,[[7]],[[505]],[[6]],['high holistic'],['right'],['inverted'],['U0106.bmp'],['female'],[],['female'],[[1]],[[9.95330047e-05]],CP
505,[[7]],[[506]],[[7]],['high holistic'],['left'],['upright'],['U0107.bmp'],['female'],[],['male'],[[0]],[[0.00010615]],CP
506,[[7]],[[507]],[[9]],['low holistic'],['right'],['upright'],['U0155.bmp'],['male'],[],['female'],[[0]],[[9.81278718e-05]],CP
507,[[7]],[[508]],[[9]],['high holistic'],['left'],['inverted'],['U0155.bmp'],['female'],[],['female'],[[1]],[[0.00027702]],CP
508,[[7]],[[509]],[[5]],['high holistic'],['right'],['inverted'],['U0076.bmp'],['female'],[],['female'],[[1]],[[0.06530077]],CP
509,[[7]],[[510]],[[17]],['high holistic'],['left'],['inverted'],['U0346.bmp'],['male'],[],['female'],[[0]],[[0.00014425]],CP
510,[[7]],[[511]],[[5]],['high holistic'],['left'],['inverted'],['U0076.bmp'],['female'],[],['female'],[[1]],[[0.00010574]],CP
511,[[7]],[[512]],[[15]],['high holistic'],['left'],['inverted'],['U0312.bmp'],['male'],[],['female'],[[0]],[[0.02986223]],CP
512,[[7]],[[513]],[[19]],['high holistic'],['left'],['inverted'],['U0361.bmp'],['female'],[],['female'],[[1]],[[0.00010544]],CP
513,[[7]],[[514]],[[19]],['low holistic'],['right'],['inverted'],['U0361.bmp'],['female'],[],['female'],[[1]],[[0.07349353]],CP
514,[[7]],[[515]],[[3]],['low holistic'],['left'],['upright'],['U0020.bmp'],['female'],[],['female'],[[1]],[[0.45518981]],CP
515,[[7]],[[516]],[[18]],['low holistic'],['left'],['inverted'],['U0359.bmp'],['male'],[],['male'],[[1]],[[0.12188993]],CP
516,[[7]],[[517]],[[16]],['low holistic'],['right'],['upright'],['U0335.bmp'],['female'],[],['female'],[[1]],[[9.84349754e-05]],CP
517,[[7]],[[518]],[[7]],['high holistic'],['right'],['inverted'],['U0107.bmp'],['female'],[],['female'],[[1]],[[0.02194181]],CP
518,[[7]],[[519]],[[11]],['high holistic'],['left'],['inverted'],['U0164.bmp'],['female'],[],['male'],[[0]],[[0.00016838]],CP
519,[[7]],[[520]],[[4]],['high holistic'],['right'],['upright'],['U0061.bmp'],['female'],[],['female'],[[1]],[[9.99160111e-05]],CP
520,[[7]],[[521]],[[6]],['high holistic'],['right'],['upright'],['U0106.bmp'],['female'],[],['female'],[[1]],[[0.08371439]],CP
521,[[7]],[[522]],[[11]],['low holistic'],['left'],['inverted'],['U0164.bmp'],['female'],[],['female'],[[1]],[[0.00010618]],CP
522,[[7]],[[523]],[[6]],['high holistic'],['right'],['upright'],['U0106.bmp'],['female'],[],['male'],[[0]],[[0.00012604]],CP
523,[[7]],[[524]],[[16]],['low holistic'],['right'],['inverted'],['U0335.bmp'],['female'],[],['female'],[[1]],[[0.00010583]],CP
524,[[7]],[[525]],[[2]],['high holistic'],['right'],['inverted'],['U0014.bmp'],['male'],[],['male'],[[1]],[[0.04107771]],CP
525,[[7]],[[526]],[[4]],['low holistic'],['fovea'],['upright'],['U0061.bmp'],['female'],[],['female'],[[1]],[[0.00010554]],CP
526,[[7]],[[527]],[[10]],['low holistic'],['right'],['inverted'],['U0159.bmp'],['female'],[],['female'],[[1]],[[9.88219399e-05]],CP
527,[[7]],[[528]],[[8]],['low holistic'],['left'],['upright'],['U0137.bmp'],['male'],[],['male'],[[1]],[[0.00010599]],CP
528,[[7]],[[529]],[[8]],['high holistic'],['right'],['inverted'],['U0137.bmp'],['female'],[],['female'],[[1]],[[9.93430149e-05]],CP
529,[[7]],[[530]],[[17]],['high holistic'],['right'],['upright'],['U0346.bmp'],['male'],[],['female'],[[0]],[[0.00010602]],CP
530,[[7]],[[531]],[[1]],['high holistic'],['right'],['inverted'],['U0006.bmp'],['female'],[],['male'],[[0]],[[9.90540721e-05]],CP
531,[[7]],[[532]],[[6]],['high holistic'],['right'],['inverted'],['U0106.bmp'],['female'],[],['female'],[[1]],[[0.26951991]],CP
532,[[7]],[[533]],[[13]],['high holistic'],['right'],['inverted'],['U0181.bmp'],['female'],[],['female'],[[1]],[[0.00010534]],CP
533,[[7]],[[534]],[[12]],['low holistic'],['fovea'],['upright'],['U0178.bmp'],['female'],[],['female'],[[1]],[[9.91930719e-05]],CP
534,[[7]],[[535]],[[13]],['high holistic'],['right'],['inverted'],['U0181.bmp'],['female'],[],['female'],[[1]],[[0.00010642]],CP
535,[[7]],[[536]],[[17]],['low holistic'],['left'],['upright'],['U0346.bmp'],['female'],[],['female'],[[1]],[[9.93118156e-05]],CP
536,[[7]],[[537]],[[13]],['high holistic'],['right'],['upright'],['U0181.bmp'],['female'],[],['female'],[[1]],[[0.00995677]],CP
537,[[7]],[[538]],[[6]],['high holistic'],['left'],['inverted'],['U0106.bmp'],['female'],[],['female'],[[1]],[[0.0093788]],CP
538,[[7]],[[539]],[[11]],['high holistic'],['right'],['inverted'],['U0164.bmp'],['female'],[],['male'],[[0]],[[0.09679377]],CP
539,[[7]],[[540]],[[5]],['low holistic'],['right'],['inverted'],['U0076.bmp'],['male'],[],['male'],[[1]],[[0.00013075]],CP
540,[[7]],[[541]],[[14]],['high holistic'],['right'],['inverted'],['U0228.bmp'],['male'],[],['female'],[[0]],[[0.00051233]],CP
541,[[7]],[[542]],[[1]],['high holistic'],['left'],['inverted'],['U0006.bmp'],['female'],[],['male'],[[0]],[[0.00017558]],CP
542,[[7]],[[543]],[[11]],['high holistic'],['left'],['upright'],['U0164.bmp'],['female'],[],['female'],[[1]],[[0.00010567]],CP
543,[[7]],[[544]],[[20]],['low holistic'],['left'],['inverted'],['U0362.bmp'],['male'],[],['male'],[[1]],[[0.0192404]],CP
544,[[7]],[[545]],[[17]],['low holistic'],['left'],['inverted'],['U0346.bmp'],['female'],[],['female'],[[1]],[[0.00010553]],CP
545,[[7]],[[546]],[[15]],['high holistic'],['right'],['upright'],['U0312.bmp'],['male'],[],['female'],[[0]],[[9.97199677e-05]],CP
546,[[7]],[[547]],[[8]],['low holistic'],['right'],['inverted'],['U0137.bmp'],['male'],[],['male'],[[1]],[[1.56808085]],CP
547,[[7]],[[548]],[[7]],['low holistic'],['right'],['inverted'],['U0107.bmp'],['female'],[],['female'],[[1]],[[9.89388209e-05]],CP
548,[[7]],[[549]],[[13]],['low holistic'],['left'],['inverted'],['U0181.bmp'],['male'],[],['male'],[[1]],[[9.94470902e-05]],CP
549,[[7]],[[550]],[[13]],['high holistic'],['right'],['inverted'],['U0181.bmp'],['female'],[],['female'],[[1]],[[0.0001044]],CP
550,[[7]],[[551]],[[2]],['low holistic'],['right'],['upright'],['U0014.bmp'],['male'],[],['male'],[[1]],[[0.00010525]],CP
551,[[7]],[[552]],[[2]],['low holistic'],['right'],['inverted'],['U0014.bmp'],['male'],[],['female'],[[0]],[[9.90049448e-05]],CP
552,[[7]],[[553]],[[20]],['low holistic'],['left'],['upright'],['U0362.bmp'],['male'],[],['male'],[[1]],[[9.95420851e-05]],CP
553,[[7]],[[554]],[[20]],['low holistic'],['right'],['upright'],['U0362.bmp'],['male'],[],['male'],[[1]],[[9.94091388e-05]],CP
554,[[7]],[[555]],[[15]],['low holistic'],['right'],['upright'],['U0312.bmp'],['male'],[],['male'],[[1]],[[9.90470871e-05]],CP
555,[[7]],[[556]],[[11]],['low holistic'],['right'],['upright'],['U0164.bmp'],['female'],[],['female'],[[1]],[[0.00010572]],CP
556,[[7]],[[557]],[[6]],['low holistic'],['left'],['inverted'],['U0106.bmp'],['male'],[],['female'],[[0]],[[9.91330016e-05]],CP
557,[[7]],[[558]],[[18]],['high holistic'],['left'],['upright'],['U0359.bmp'],['male'],[],['male'],[[1]],[[9.68321692e-05]],CP
558,[[7]],[[559]],[[17]],['high holistic'],['right'],['inverted'],['U0346.bmp'],['male'],[],['female'],[[0]],[[0.00011044]],CP
559,[[7]],[[560]],[[14]],['low holistic'],['right'],['upright'],['U0228.bmp'],['male'],[],['male'],[[1]],[[0.00010501]],CP
560,[[7]],[[561]],[[12]],['high holistic'],['right'],['inverted'],['U0178.bmp'],['male'],[],['female'],[[0]],[[1.47783181]],CP
561,[[7]],[[562]],[[6]],['low holistic'],['left'],['upright'],['U0106.bmp'],['male'],[],['male'],[[1]],[[0.00010603]],CP
562,[[7]],[[563]],[[6]],['high holistic'],['right'],['inverted'],['U0106.bmp'],['female'],[],['male'],[[0]],[[0.06490754]],CP
563,[[7]],[[564]],[[11]],['low holistic'],['left'],['upright'],['U0164.bmp'],['female'],[],['male'],[[0]],[[0.00014493]],CP
564,[[7]],[[565]],[[6]],['low holistic'],['fovea'],['upright'],['U0106.bmp'],['male'],[],['female'],[[0]],[[9.92568675e-05]],CP
565,[[7]],[[566]],[[17]],['low holistic'],['left'],['inverted'],['U0346.bmp'],['female'],[],['female'],[[1]],[[0.00038098]],CP
566,[[7]],[[567]],[[16]],['high holistic'],['right'],['upright'],['U0335.bmp'],['female'],[],['male'],[[0]],[[0.01301332]],CP
567,[[7]],[[568]],[[2]],['high holistic'],['right'],['upright'],['U0014.bmp'],['male'],[],['male'],[[1]],[[9.75411385e-05]],CP
568,[[7]],[[569]],[[20]],['high holistic'],['fovea'],['inverted'],['U0362.bmp'],['female'],[],['female'],[[1]],[[9.96261369e-05]],CP
569,[[7]],[[570]],[[9]],['low holistic'],['left'],['inverted'],['U0155.bmp'],['male'],[],['female'],[[0]],[[0.00010643]],CP
570,[[7]],[[571]],[[10]],['high holistic'],['right'],['upright'],['U0159.bmp'],['male'],[],['male'],[[1]],[[0.00481487]],CP
571,[[7]],[[572]],[[11]],['high holistic'],['left'],['inverted'],['U0164.bmp'],['female'],[],['male'],[[0]],[[9.86680388e-05]],CP
572,[[7]],[[573]],[[17]],['low holistic'],['right'],['inverted'],['U0346.bmp'],['female'],[],['male'],[[0]],[[0.00010512]],CP
573,[[7]],[[574]],[[10]],['high holistic'],['left'],['inverted'],['U0159.bmp'],['male'],[],['male'],[[1]],[[9.8843826e-05]],CP
574,[[7]],[[575]],[[12]],['low holistic'],['right'],['inverted'],['U0178.bmp'],['female'],[],['female'],[[1]],[[0.00043312]],CP
575,[[7]],[[576]],[[15]],['low holistic'],['right'],['inverted'],['U0312.bmp'],['male'],[],['male'],[[1]],[[0.0001053]],CP
576,[[7]],[[577]],[[14]],['high holistic'],['left'],['inverted'],['U0228.bmp'],['male'],[],['female'],[[0]],[[0.00023702]],CP
577,[[7]],[[578]],[[15]],['low holistic'],['left'],['upright'],['U0312.bmp'],['male'],[],['male'],[[1]],[[9.86901578e-05]],CP
578,[[7]],[[579]],[[11]],['high holistic'],['left'],['inverted'],['U0164.bmp'],['female'],[],['male'],[[0]],[[0.00010659]],CP
579,[[7]],[[580]],[[5]],['low holistic'],['right'],['upright'],['U0076.bmp'],['male'],[],['male'],[[1]],[[0.00010627]],CP
580,[[7]],[[581]],[[6]],['high holistic'],['left'],['inverted'],['U0106.bmp'],['female'],[],['male'],[[0]],[[1.72921941]],CP
581,[[7]],[[582]],[[6]],['low holistic'],['left'],['inverted'],['U0106.bmp'],['male'],[],['male'],[[1]],[[0.0001003]],CP
582,[[7]],[[583]],[[7]],['high holistic'],['left'],['upright'],['U0107.bmp'],['female'],[],['male'],[[0]],[[9.91879497e-05]],CP
583,[[7]],[[584]],[[17]],['low holistic'],['right'],['inverted'],['U0346.bmp'],['female'],[],['female'],[[1]],[[0.00010121]],CP
584,[[7]],[[585]],[[20]],['low holistic'],['left'],['upright'],['U0362.bmp'],['male'],[],['male'],[[1]],[[0.00010454]],CP
585,[[7]],[[586]],[[20]],['low holistic'],['right'],['upright'],['U0362.bmp'],['male'],[],['male'],[[1]],[[9.88249667e-05]],CP
586,[[7]],[[587]],[[20]],['high holistic'],['left'],['upright'],['U0362.bmp'],['female'],[],['male'],[[0]],[[0.07371617]],CP
587,[[7]],[[588]],[[18]],['high holistic'],['left'],['inverted'],['U0359.bmp'],['male'],[],['female'],[[0]],[[0.06155887]],CP
588,[[7]],[[589]],[[11]],['high holistic'],['left'],['inverted'],['U0164.bmp'],['female'],[],['male'],[[0]],[[0.00364458]],CP
589,[[7]],[[590]],[[11]],['low holistic'],['right'],['upright'],['U0164.bmp'],['female'],[],['female'],[[1]],[[0.2111741]],CP
590,[[7]],[[591]],[[7]],['high holistic'],['left'],['upright'],['U0107.bmp'],['female'],[],['female'],[[1]],[[0.00033822]],CP
591,[[7]],[[592]],[[14]],['high holistic'],['right'],['upright'],['U0228.bmp'],['male'],[],['female'],[[0]],[[0.00010516]],CP
592,[[7]],[[593]],[[7]],['high holistic'],['right'],['inverted'],['U0107.bmp'],['female'],[],['female'],[[1]],[[0.00027097]],CP
593,[[7]],[[594]],[[12]],['high holistic'],['left'],['upright'],['U0178.bmp'],['male'],[],['male'],[[1]],[[0.00026969]],CP
594,[[7]],[[595]],[[7]],['high holistic'],['right'],['inverted'],['U0107.bmp'],['female'],[],['male'],[[0]],[[9.8462915e-05]],CP
595,[[7]],[[596]],[[9]],['low holistic'],['right'],['upright'],['U0155.bmp'],['male'],[],['male'],[[1]],[[0.06369122]],CP
596,[[7]],[[597]],[[7]],['low holistic'],['fovea'],['inverted'],['U0107.bmp'],['female'],[],['female'],[[1]],[[9.96550079e-05]],CP
597,[[7]],[[598]],[[14]],['low holistic'],['right'],['upright'],['U0228.bmp'],['male'],[],['male'],[[1]],[[9.85751394e-05]],CP
598,[[7]],[[599]],[[1]],['low holistic'],['left'],['upright'],['U0006.bmp'],['female'],[],['female'],[[1]],[[9.91569832e-05]],CP
599,[[7]],[[600]],[[16]],['high holistic'],['right'],['inverted'],['U0335.bmp'],['female'],[],['male'],[[0]],[[0.00024993]],CP
600,[[7]],[[601]],[[5]],['low holistic'],['left'],['inverted'],['U0076.bmp'],['male'],[],['male'],[[1]],[[0.00039734]],CP
601,[[7]],[[602]],[[3]],['high holistic'],['right'],['inverted'],['U0020.bmp'],['male'],[],['male'],[[1]],[[0.00010576]],CP
602,[[7]],[[603]],[[10]],['high holistic'],['fovea'],['inverted'],['U0159.bmp'],['male'],[],['male'],[[1]],[[9.92971472e-05]],CP
603,[[7]],[[604]],[[5]],['high holistic'],['right'],['upright'],['U0076.bmp'],['female'],[],['male'],[[0]],[[0.00010609]],CP
604,[[7]],[[605]],[[3]],['low holistic'],['right'],['inverted'],['U0020.bmp'],['female'],[],['female'],[[1]],[[0.00022132]],CP
605,[[7]],[[606]],[[5]],['low holistic'],['fovea'],['upright'],['U0076.bmp'],['male'],[],['male'],[[1]],[[0.00037779]],CP
606,[[7]],[[607]],[[9]],['high holistic'],['left'],['inverted'],['U0155.bmp'],['female'],[],['female'],[[1]],[[9.87928361e-05]],CP
607,[[7]],[[608]],[[20]],['low holistic'],['right'],['upright'],['U0362.bmp'],['male'],[],['male'],[[1]],[[0.00010456]],CP
608,[[7]],[[609]],[[4]],['high holistic'],['fovea'],['upright'],['U0061.bmp'],['female'],[],['male'],[[0]],[[9.70899127e-05]],CP
609,[[7]],[[610]],[[12]],['high holistic'],['right'],['upright'],['U0178.bmp'],['male'],[],['female'],[[0]],[[0.01633705]],CP
610,[[7]],[[611]],[[7]],['high holistic'],['right'],['upright'],['U0107.bmp'],['female'],[],['male'],[[0]],[[0.00032593]],CP
611,[[7]],[[612]],[[13]],['high holistic'],['right'],['upright'],['U0181.bmp'],['female'],[],['female'],[[1]],[[0.10456152]],CP
612,[[7]],[[613]],[[14]],['high holistic'],['left'],['inverted'],['U0228.bmp'],['male'],[],['female'],[[0]],[[9.94889997e-05]],CP
613,[[7]],[[614]],[[18]],['low holistic'],['right'],['upright'],['U0359.bmp'],['male'],[],['male'],[[1]],[[0.00034686]],CP
614,[[7]],[[615]],[[15]],['low holistic'],['right'],['inverted'],['U0312.bmp'],['male'],[],['male'],[[1]],[[0.00010626]],CP
615,[[7]],[[616]],[[15]],['high holistic'],['fovea'],['inverted'],['U0312.bmp'],['male'],[],['male'],[[1]],[[9.8161865e-05]],CP
616,[[7]],[[617]],[[13]],['low holistic'],['right'],['inverted'],['U0181.bmp'],['male'],[],['female'],[[0]],[[0.00010531]],CP
617,[[7]],[[618]],[[8]],['low holistic'],['left'],['upright'],['U0137.bmp'],['male'],[],['male'],[[1]],[[9.81409103e-05]],CP
618,[[7]],[[619]],[[6]],['high holistic'],['right'],['inverted'],['U0106.bmp'],['female'],[],['female'],[[1]],[[0.00889574]],CP
619,[[7]],[[620]],[[10]],['low holistic'],['left'],['inverted'],['U0159.bmp'],['female'],[],['female'],[[1]],[[9.92801506e-05]],CP
620,[[7]],[[621]],[[10]],['low holistic'],['left'],['inverted'],['U0159.bmp'],['female'],[],['female'],[[1]],[[0.000135]],CP
621,[[7]],[[622]],[[11]],['low holistic'],['left'],['inverted'],['U0164.bmp'],['female'],[],['female'],[[1]],[[1.28036796]],CP
622,[[7]],[[623]],[[9]],['high holistic'],['left'],['inverted'],['U0155.bmp'],['female'],[],['female'],[[1]],[[9.90140252e-05]],CP
623,[[7]],[[624]],[[6]],['low holistic'],['left'],['inverted'],['U0106.bmp'],['male'],[],['female'],[[0]],[[0.00010335]],CP
624,[[7]],[[625]],[[19]],['high holistic'],['left'],['upright'],['U0361.bmp'],['female'],[],['male'],[[0]],[[9.85600054e-05]],CP
625,[[7]],[[626]],[[8]],['high holistic'],['right'],['upright'],['U0137.bmp'],['female'],[],['male'],[[0]],[[0.00015984]],CP
626,[[7]],[[627]],[[3]],['high holistic'],['left'],['upright'],['U0020.bmp'],['male'],[],['female'],[[0]],[[9.93597787e-05]],CP
627,[[7]],[[628]],[[1]],['low holistic'],['left'],['upright'],['U0006.bmp'],['female'],[],['female'],[[1]],[[1.3388797]],CP
628,[[7]],[[629]],[[7]],['low holistic'],['left'],['upright'],['U0107.bmp'],['female'],[],['female'],[[1]],[[0.00010119]],CP
629,[[7]],[[630]],[[1]],['low holistic'],['left'],['inverted'],['U0006.bmp'],['female'],[],['female'],[[1]],[[1.18133251]],CP
630,[[7]],[[631]],[[1]],['low holistic'],['fovea'],['inverted'],['U0006.bmp'],['female'],[],['female'],[[1]],[[9.89420805e-05]],CP
631,[[7]],[[632]],[[3]],['high holistic'],['left'],['upright'],['U0020.bmp'],['male'],[],['male'],[[1]],[[9.91530251e-05]],CP
632,[[7]],[[633]],[[19]],['high holistic'],['right'],['upright'],['U0361.bmp'],['female'],[],['female'],[[1]],[[9.85970255e-05]],CP
633,[[7]],[[634]],[[18]],['high holistic'],['right'],['upright'],['U0359.bmp'],['male'],[],['male'],[[1]],[[1.20190536]],CP
634,[[7]],[[635]],[[15]],['low holistic'],['right'],['inverted'],['U0312.bmp'],['male'],[],['male'],[[1]],[[0.02568308]],CP
635,[[7]],[[636]],[[5]],['high holistic'],['left'],['upright'],['U0076.bmp'],['female'],[],['female'],[[1]],[[0.00014567]],CP
636,[[7]],[[637]],[[15]],['low holistic'],['fovea'],['upright'],['U0312.bmp'],['male'],[],['male'],[[1]],[[9.80510376e-05]],CP
637,[[7]],[[638]],[[15]],['low holistic'],['left'],['upright'],['U0312.bmp'],['male'],[],['male'],[[1]],[[0.00010601]],CP
638,[[7]],[[639]],[[10]],['low holistic'],['left'],['inverted'],['U0159.bmp'],['female'],[],['female'],[[1]],[[0.00010442]],CP
639,[[7]],[[640]],[[14]],['low holistic'],['left'],['inverted'],['U0228.bmp'],['male'],[],['female'],[[0]],[[0.00010617]],CP
640,[[7]],[[641]],[[1]],['low holistic'],['right'],['inverted'],['U0006.bmp'],['female'],[],['female'],[[1]],[[9.89199616e-05]],CP
641,[[7]],[[642]],[[8]],['high holistic'],['left'],['inverted'],['U0137.bmp'],['female'],[],['female'],[[1]],[[0.00017355]],CP
642,[[7]],[[643]],[[6]],['low holistic'],['left'],['inverted'],['U0106.bmp'],['male'],[],['female'],[[0]],[[9.75779258e-05]],CP
643,[[7]],[[644]],[[12]],['low holistic'],['right'],['inverted'],['U0178.bmp'],['female'],[],['female'],[[1]],[[9.85909719e-05]],CP
644,[[7]],[[645]],[[7]],['low holistic'],['right'],['inverted'],['U0107.bmp'],['female'],[],['female'],[[1]],[[0.00025411]],CP
645,[[7]],[[646]],[[6]],['low holistic'],['right'],['inverted'],['U0106.bmp'],['male'],[],['female'],[[0]],[[9.81201883e-05]],CP
646,[[7]],[[647]],[[2]],['high holistic'],['right'],['upright'],['U0014.bmp'],['male'],[],['female'],[[0]],[[9.82310157e-05]],CP
647,[[7]],[[648]],[[11]],['low holistic'],['left'],['inverted'],['U0164.bmp'],['female'],[],['male'],[[0]],[[0.00010623]],CP
648,[[7]],[[649]],[[16]],['high holistic'],['left'],['inverted'],['U0335.bmp'],['female'],[],['female'],[[1]],[[0.00010478]],CP
649,[[7]],[[650]],[[5]],['high holistic'],['left'],['inverted'],['U0076.bmp'],['female'],[],['male'],[[0]],[[0.00039269]],CP
650,[[7]],[[651]],[[3]],['low holistic'],['right'],['inverted'],['U0020.bmp'],['female'],[],['male'],[[0]],[[0.11518137]],CP
651,[[7]],[[652]],[[13]],['high holistic'],['right'],['upright'],['U0181.bmp'],['female'],[],['female'],[[1]],[[0.00017111]],CP
652,[[7]],[[653]],[[8]],['low holistic'],['left'],['upright'],['U0137.bmp'],['male'],[],['male'],[[1]],[[9.91360284e-05]],CP
653,[[7]],[[654]],[[4]],['high holistic'],['fovea'],['upright'],['U0061.bmp'],['female'],[],['female'],[[1]],[[9.9648023e-05]],CP
654,[[7]],[[655]],[[10]],['low holistic'],['fovea'],['upright'],['U0159.bmp'],['female'],[],['female'],[[1]],[[1.31744542]],CP
655,[[7]],[[656]],[[12]],['high holistic'],['left'],['upright'],['U0178.bmp'],['male'],[],['male'],[[1]],[[0.00037546]],CP
656,[[7]],[[657]],[[3]],['high holistic'],['right'],['inverted'],['U0020.bmp'],['male'],[],['female'],[[0]],[[0.00010827]],CP
657,[[7]],[[658]],[[9]],['low holistic'],['left'],['upright'],['U0155.bmp'],['male'],[],['male'],[[1]],[[0.00010016]],CP
658,[[7]],[[659]],[[4]],['low holistic'],['left'],['inverted'],['U0061.bmp'],['female'],[],['female'],[[1]],[[9.93229914e-05]],CP
659,[[7]],[[660]],[[3]],['low holistic'],['fovea'],['upright'],['U0020.bmp'],['female'],[],['female'],[[1]],[[0.0001072]],CP
660,[[7]],[[661]],[[3]],['high holistic'],['left'],['upright'],['U0020.bmp'],['male'],[],['female'],[[0]],[[9.76370648e-05]],CP
661,[[7]],[[662]],[[12]],['high holistic'],['left'],['inverted'],['U0178.bmp'],['male'],[],['female'],[[0]],[[9.82459169e-05]],CP
662,[[7]],[[663]],[[11]],['low holistic'],['left'],['inverted'],['U0164.bmp'],['female'],[],['female'],[[1]],[[9.89490654e-05]],CP
663,[[7]],[[664]],[[12]],['high holistic'],['right'],['upright'],['U0178.bmp'],['male'],[],['male'],[[1]],[[9.8335091e-05]],CP
664,[[7]],[[665]],[[8]],['high holistic'],['right'],['upright'],['U0137.bmp'],['female'],[],['male'],[[0]],[[9.84708313e-05]],CP
665,[[7]],[[666]],[[17]],['high holistic'],['left'],['upright'],['U0346.bmp'],['male'],[],['male'],[[1]],[[9.83001664e-05]],CP
666,[[7]],[[667]],[[20]],['high holistic'],['right'],['upright'],['U0362.bmp'],['female'],[],['female'],[[1]],[[9.88799147e-05]],CP
667,[[7]],[[668]],[[8]],['high holistic'],['right'],['upright'],['U0137.bmp'],['female'],[],['female'],[[1]],[[0.10056568]],CP
668,[[7]],[[669]],[[19]],['high holistic'],['right'],['upright'],['U0361.bmp'],['female'],[],['female'],[[1]],[[0.00019704]],CP
669,[[7]],[[670]],[[9]],['high holistic'],['right'],['upright'],['U0155.bmp'],['female'],[],['female'],[[1]],[[0.10442842]],CP
670,[[7]],[[671]],[[20]],['low holistic'],['right'],['upright'],['U0362.bmp'],['male'],[],['male'],[[1]],[[9.82359052e-05]],CP
671,[[7]],[[672]],[[7]],['high holistic'],['right'],['inverted'],['U0107.bmp'],['female'],[],['female'],[[1]],[[0.00010596]],CP
672,[[7]],[[673]],[[13]],['high holistic'],['right'],['upright'],['U0181.bmp'],['female'],[],['female'],[[1]],[[0.00010885]],CP
673,[[7]],[[674]],[[9]],['low holistic'],['right'],['inverted'],['U0155.bmp'],['male'],[],['male'],[[1]],[[0.00023216]],CP
674,[[7]],[[675]],[[3]],['low holistic'],['left'],['upright'],['U0020.bmp'],['female'],[],['female'],[[1]],[[9.93178692e-05]],CP
675,[[7]],[[676]],[[2]],['high holistic'],['left'],['upright'],['U0014.bmp'],['male'],[],['female'],[[0]],[[9.99460462e-05]],CP
676,[[7]],[[677]],[[18]],['low holistic'],['right'],['upright'],['U0359.bmp'],['male'],[],['female'],[[0]],[[9.88161191e-05]],CP
677,[[7]],[[678]],[[7]],['high holistic'],['right'],['inverted'],['U0107.bmp'],['female'],[],['female'],[[1]],[[0.00010574]],CP
678,[[7]],[[679]],[[8]],['low holistic'],['right'],['upright'],['U0137.bmp'],['male'],[],['male'],[[1]],[[0.23988732]],CP
679,[[7]],[[680]],[[2]],['high holistic'],['left'],['upright'],['U0014.bmp'],['male'],[],['male'],[[1]],[[0.22206397]],CP
680,[[7]],[[681]],[[3]],['high holistic'],['left'],['upright'],['U0020.bmp'],['male'],[],['male'],[[1]],[[1.25986361]],CP
681,[[7]],[[682]],[[17]],['high holistic'],['right'],['upright'],['U0346.bmp'],['male'],[],['male'],[[1]],[[0.14495533]],CP
682,[[7]],[[683]],[[18]],['low holistic'],['right'],['inverted'],['U0359.bmp'],['male'],[],['female'],[[0]],[[9.79548786e-05]],CP
683,[[7]],[[684]],[[15]],['high holistic'],['right'],['inverted'],['U0312.bmp'],['male'],[],['male'],[[1]],[[0.02712694]],CP
684,[[7]],[[685]],[[4]],['low holistic'],['left'],['inverted'],['U0061.bmp'],['female'],[],['female'],[[1]],[[9.78389289e-05]],CP
685,[[7]],[[686]],[[16]],['high holistic'],['left'],['inverted'],['U0335.bmp'],['female'],[],['male'],[[0]],[[0.00027138]],CP
686,[[7]],[[687]],[[2]],['low holistic'],['right'],['upright'],['U0014.bmp'],['male'],[],['female'],[[0]],[[9.89050604e-05]],CP
687,[[7]],[[688]],[[18]],['high holistic'],['right'],['upright'],['U0359.bmp'],['male'],[],['male'],[[1]],[[0.00010616]],CP
688,[[7]],[[689]],[[20]],['low holistic'],['right'],['upright'],['U0362.bmp'],['male'],[],['male'],[[1]],[[0.00029469]],CP
689,[[7]],[[690]],[[15]],['high holistic'],['left'],['inverted'],['U0312.bmp'],['male'],[],['female'],[[0]],[[0.04847273]],CP
690,[[7]],[[691]],[[16]],['high holistic'],['right'],['inverted'],['U0335.bmp'],['female'],[],['female'],[[1]],[[9.89320688e-05]],CP
691,[[7]],[[692]],[[8]],['low holistic'],['left'],['inverted'],['U0137.bmp'],['male'],[],['female'],[[0]],[[9.78778116e-05]],CP
692,[[7]],[[693]],[[2]],['low holistic'],['right'],['upright'],['U0014.bmp'],['male'],[],['male'],[[1]],[[9.90470871e-05]],CP
693,[[7]],[[694]],[[15]],['low holistic'],['left'],['upright'],['U0312.bmp'],['male'],[],['female'],[[0]],[[9.80878249e-05]],CP
694,[[7]],[[695]],[[1]],['high holistic'],['right'],['inverted'],['U0006.bmp'],['female'],[],['female'],[[1]],[[1.5240047]],CP
695,[[7]],[[696]],[[9]],['low holistic'],['right'],['inverted'],['U0155.bmp'],['male'],[],['female'],[[0]],[[9.8753022e-05]],CP
696,[[7]],[[697]],[[7]],['low holistic'],['left'],['upright'],['U0107.bmp'],['female'],[],['female'],[[1]],[[0.00010668]],CP
697,[[7]],[[698]],[[14]],['high holistic'],['left'],['inverted'],['U0228.bmp'],['male'],[],['male'],[[1]],[[0.00011588]],CP
698,[[7]],[[699]],[[10]],['low holistic'],['right'],['inverted'],['U0159.bmp'],['female'],[],['female'],[[1]],[[0.00010686]],CP
699,[[7]],[[700]],[[13]],['high holistic'],['right'],['inverted'],['U0181.bmp'],['female'],[],['female'],[[1]],[[9.82258935e-05]],CP
700,[[7]],[[701]],[[8]],['low holistic'],['right'],['inverted'],['U0137.bmp'],['male'],[],['female'],[[0]],[[0.00010516]],CP
701,[[7]],[[702]],[[10]],['low holistic'],['left'],['upright'],['U0159.bmp'],['female'],[],['female'],[[1]],[[9.92519781e-05]],CP
702,[[7]],[[703]],[[16]],['high holistic'],['right'],['upright'],['U0335.bmp'],['female'],[],['male'],[[0]],[[9.81430057e-05]],CP
703,[[7]],[[704]],[[12]],['high holistic'],['right'],['inverted'],['U0178.bmp'],['male'],[],['female'],[[0]],[[0.00010649]],CP
704,[[7]],[[705]],[[3]],['low holistic'],['fovea'],['inverted'],['U0020.bmp'],['female'],[],['female'],[[1]],[[9.91770066e-05]],CP
705,[[7]],[[706]],[[11]],['low holistic'],['right'],['upright'],['U0164.bmp'],['female'],[],['female'],[[1]],[[9.90929548e-05]],CP
706,[[7]],[[707]],[[4]],['high holistic'],['right'],['upright'],['U0061.bmp'],['female'],[],['male'],[[0]],[[0.0001061]],CP
707,[[7]],[[708]],[[20]],['low holistic'],['right'],['upright'],['U0362.bmp'],['male'],[],['female'],[[0]],[[9.97439492e-05]],CP
708,[[7]],[[709]],[[1]],['low holistic'],['left'],['upright'],['U0006.bmp'],['female'],[],['female'],[[1]],[[9.91569832e-05]],CP
709,[[7]],[[710]],[[14]],['high holistic'],['right'],['upright'],['U0228.bmp'],['male'],[],['female'],[[0]],[[9.94510483e-05]],CP
710,[[7]],[[711]],[[20]],['low holistic'],['fovea'],['inverted'],['U0362.bmp'],['male'],[],['male'],[[1]],[[0.00010589]],CP
711,[[7]],[[712]],[[9]],['high holistic'],['right'],['upright'],['U0155.bmp'],['female'],[],['female'],[[1]],[[9.86880623e-05]],CP
712,[[7]],[[713]],[[15]],['low holistic'],['right'],['upright'],['U0312.bmp'],['male'],[],['male'],[[1]],[[1.38627446]],CP
713,[[7]],[[714]],[[8]],['low holistic'],['fovea'],['inverted'],['U0137.bmp'],['male'],[],['female'],[[0]],[[0.00010649]],CP
714,[[7]],[[715]],[[1]],['low holistic'],['right'],['inverted'],['U0006.bmp'],['female'],[],['female'],[[1]],[[9.84761864e-05]],CP
715,[[7]],[[716]],[[20]],['low holistic'],['fovea'],['inverted'],['U0362.bmp'],['male'],[],['male'],[[1]],[[0.00010024]],CP
716,[[7]],[[717]],[[4]],['low holistic'],['fovea'],['upright'],['U0061.bmp'],['female'],[],['female'],[[1]],[[0.00016018]],CP
717,[[7]],[[718]],[[16]],['low holistic'],['fovea'],['upright'],['U0335.bmp'],['female'],[],['female'],[[1]],[[9.92252026e-05]],CP
718,[[7]],[[719]],[[4]],['low holistic'],['right'],['inverted'],['U0061.bmp'],['female'],[],['female'],[[1]],[[0.01756819]],CP
719,[[7]],[[720]],[[7]],['high holistic'],['right'],['inverted'],['U0107.bmp'],['female'],[],['female'],[[1]],[[0.00010606]],CP
720,[[7]],[[721]],[[11]],['low holistic'],['right'],['inverted'],['U0164.bmp'],['female'],[],['female'],[[1]],[[1.49416498]],CP
721,[[7]],[[722]],[[5]],['high holistic'],['left'],['upright'],['U0076.bmp'],['female'],[],['female'],[[1]],[[9.87669919e-05]],CP
722,[[7]],[[723]],[[2]],['low holistic'],['right'],['inverted'],['U0014.bmp'],['male'],[],['male'],[[1]],[[0.00016823]],CP
723,[[7]],[[724]],[[3]],['high holistic'],['right'],['inverted'],['U0020.bmp'],['male'],[],['female'],[[0]],[[0.00037996]],CP
724,[[7]],[[725]],[[12]],['high holistic'],['fovea'],['inverted'],['U0178.bmp'],['male'],[],['male'],[[1]],[[0.02574352]],CP
725,[[7]],[[726]],[[8]],['high holistic'],['left'],['inverted'],['U0137.bmp'],['female'],[],['female'],[[1]],[[0.00010573]],CP
726,[[7]],[[727]],[[18]],['high holistic'],['right'],['upright'],['U0359.bmp'],['male'],[],['male'],[[1]],[[0.00010514]],CP
727,[[7]],[[728]],[[6]],['low holistic'],['right'],['upright'],['U0106.bmp'],['male'],[],['female'],[[0]],[[9.99050681e-05]],CP
728,[[7]],[[729]],[[14]],['high holistic'],['left'],['inverted'],['U0228.bmp'],['male'],[],['female'],[[0]],[[0.00010588]],CP
729,[[7]],[[730]],[[1]],['high holistic'],['right'],['upright'],['U0006.bmp'],['female'],[],['female'],[[1]],[[9.85099468e-05]],CP
730,[[7]],[[731]],[[18]],['low holistic'],['right'],['upright'],['U0359.bmp'],['male'],[],['male'],[[1]],[[0.02218681]],CP
731,[[7]],[[732]],[[13]],['high holistic'],['right'],['upright'],['U0181.bmp'],['female'],[],['female'],[[1]],[[0.0003792]],CP
732,[[7]],[[733]],[[1]],['high holistic'],['right'],['upright'],['U0006.bmp'],['female'],[],['female'],[[1]],[[0.00010608]],CP
733,[[7]],[[734]],[[1]],['low holistic'],['right'],['inverted'],['U0006.bmp'],['female'],[],['female'],[[1]],[[9.91718844e-05]],CP
734,[[7]],[[735]],[[14]],['high holistic'],['right'],['inverted'],['U0228.bmp'],['male'],[],['female'],[[0]],[[9.8034041e-05]],CP
735,[[7]],[[736]],[[6]],['high holistic'],['left'],['inverted'],['U0106.bmp'],['female'],[],['female'],[[1]],[[0.00011293]],CP
736,[[7]],[[737]],[[15]],['low holistic'],['right'],['inverted'],['U0312.bmp'],['male'],[],['male'],[[1]],[[0.03525875]],CP
737,[[7]],[[738]],[[11]],['low holistic'],['right'],['upright'],['U0164.bmp'],['female'],[],['female'],[[1]],[[9.91069246e-05]],CP
738,[[7]],[[739]],[[18]],['low holistic'],['left'],['inverted'],['U0359.bmp'],['male'],[],['male'],[[1]],[[0.00036058]],CP
739,[[7]],[[740]],[[12]],['high holistic'],['right'],['upright'],['U0178.bmp'],['male'],[],['male'],[[1]],[[0.00010583]],CP
740,[[7]],[[741]],[[1]],['high holistic'],['left'],['inverted'],['U0006.bmp'],['female'],[],['female'],[[1]],[[1.12209668]],CP
741,[[7]],[[742]],[[17]],['high holistic'],['left'],['inverted'],['U0346.bmp'],['male'],[],['male'],[[1]],[[0.00016954]],CP
742,[[7]],[[743]],[[4]],['low holistic'],['left'],['upright'],['U0061.bmp'],['female'],[],['female'],[[1]],[[9.89260152e-05]],CP
743,[[7]],[[744]],[[6]],['high holistic'],['left'],['inverted'],['U0106.bmp'],['female'],[],['female'],[[1]],[[1.05152309]],CP
744,[[7]],[[745]],[[5]],['low holistic'],['left'],['inverted'],['U0076.bmp'],['male'],[],['female'],[[0]],[[9.924802e-05]],CP
745,[[7]],[[746]],[[15]],['high holistic'],['right'],['inverted'],['U0312.bmp'],['male'],[],['female'],[[0]],[[9.85420775e-05]],CP
746,[[7]],[[747]],[[2]],['high holistic'],['left'],['upright'],['U0014.bmp'],['male'],[],['male'],[[1]],[[0.0001044]],CP
747,[[7]],[[748]],[[9]],['high holistic'],['right'],['inverted'],['U0155.bmp'],['female'],[],['female'],[[1]],[[0.01586374]],CP
748,[[7]],[[749]],[[16]],['low holistic'],['left'],['upright'],['U0335.bmp'],['female'],[],['female'],[[1]],[[0.00010574]],CP
749,[[7]],[[750]],[[9]],['low holistic'],['left'],['inverted'],['U0155.bmp'],['male'],[],['female'],[[0]],[[9.9417055e-05]],CP
750,[[7]],[[751]],[[16]],['high holistic'],['right'],['upright'],['U0335.bmp'],['female'],[],['female'],[[1]],[[0.00010571]],CP
751,[[7]],[[752]],[[3]],['low holistic'],['right'],['inverted'],['U0020.bmp'],['female'],[],['female'],[[1]],[[0.0001281]],CP
752,[[7]],[[753]],[[6]],['high holistic'],['left'],['upright'],['U0106.bmp'],['female'],[],['female'],[[1]],[[0.00010104]],CP
753,[[7]],[[754]],[[10]],['high holistic'],['right'],['inverted'],['U0159.bmp'],['male'],[],['female'],[[0]],[[0.00010398]],CP
754,[[7]],[[755]],[[4]],['low holistic'],['left'],['inverted'],['U0061.bmp'],['female'],[],['female'],[[1]],[[0.00016461]],CP
755,[[7]],[[756]],[[6]],['high holistic'],['right'],['upright'],['U0106.bmp'],['female'],[],['female'],[[1]],[[9.81180929e-05]],CP
756,[[7]],[[757]],[[16]],['low holistic'],['right'],['inverted'],['U0335.bmp'],['female'],[],['female'],[[1]],[[0.00010611]],CP
757,[[7]],[[758]],[[8]],['low holistic'],['right'],['upright'],['U0137.bmp'],['male'],[],['male'],[[1]],[[0.00011142]],CP
758,[[7]],[[759]],[[20]],['high holistic'],['left'],['upright'],['U0362.bmp'],['female'],[],['female'],[[1]],[[0.0003259]],CP
759,[[7]],[[760]],[[20]],['low holistic'],['right'],['upright'],['U0362.bmp'],['male'],[],['male'],[[1]],[[0.01952913]],CP
760,[[7]],[[761]],[[1]],['high holistic'],['right'],['upright'],['U0006.bmp'],['female'],[],['female'],[[1]],[[0.00010434]],CP
761,[[7]],[[762]],[[11]],['low holistic'],['left'],['inverted'],['U0164.bmp'],['female'],[],['female'],[[1]],[[9.78619792e-05]],CP
762,[[7]],[[763]],[[14]],['low holistic'],['left'],['upright'],['U0228.bmp'],['male'],[],['male'],[[1]],[[9.79439355e-05]],CP
763,[[7]],[[764]],[[11]],['high holistic'],['left'],['inverted'],['U0164.bmp'],['female'],[],['female'],[[1]],[[0.00010457]],CP
764,[[7]],[[765]],[[6]],['low holistic'],['right'],['upright'],['U0106.bmp'],['male'],[],['male'],[[1]],[[0.00011074]],CP
765,[[7]],[[766]],[[13]],['low holistic'],['left'],['inverted'],['U0181.bmp'],['male'],[],['female'],[[0]],[[9.85250808e-05]],CP
766,[[7]],[[767]],[[11]],['high holistic'],['left'],['upright'],['U0164.bmp'],['female'],[],['female'],[[1]],[[9.86058731e-05]],CP
767,[[7]],[[768]],[[15]],['low holistic'],['right'],['inverted'],['U0312.bmp'],['male'],[],['male'],[[1]],[[0.00011073]],CP
768,[[7]],[[769]],[[17]],['high holistic'],['left'],['upright'],['U0346.bmp'],['male'],[],['male'],[[1]],[[0.0001053]],CP
769,[[7]],[[770]],[[9]],['high holistic'],['left'],['upright'],['U0155.bmp'],['female'],[],['female'],[[1]],[[0.1991882]],CP
770,[[7]],[[771]],[[9]],['high holistic'],['left'],['upright'],['U0155.bmp'],['female'],[],['female'],[[1]],[[0.00014619]],CP
771,[[7]],[[772]],[[2]],['low holistic'],['right'],['upright'],['U0014.bmp'],['male'],[],['male'],[[1]],[[0.01543584]],CP
772,[[7]],[[773]],[[18]],['low holistic'],['right'],['inverted'],['U0359.bmp'],['male'],[],['male'],[[1]],[[0.00018629]],CP
773,[[7]],[[774]],[[16]],['low holistic'],['right'],['inverted'],['U0335.bmp'],['female'],[],['female'],[[1]],[[9.9126948e-05]],CP
774,[[7]],[[775]],[[3]],['high holistic'],['right'],['upright'],['U0020.bmp'],['male'],[],['female'],[[0]],[[0.00010787]],CP
775,[[7]],[[776]],[[5]],['high holistic'],['right'],['upright'],['U0076.bmp'],['female'],[],['male'],[[0]],[[9.88489483e-05]],CP
776,[[7]],[[777]],[[7]],['high holistic'],['right'],['inverted'],['U0107.bmp'],['female'],[],['female'],[[1]],[[1.26019845]],CP
777,[[7]],[[778]],[[13]],['low holistic'],['left'],['upright'],['U0181.bmp'],['male'],[],['male'],[[1]],[[0.352347]],CP
778,[[7]],[[779]],[[18]],['high holistic'],['right'],['upright'],['U0359.bmp'],['male'],[],['male'],[[1]],[[9.68400855e-05]],CP
779,[[7]],[[780]],[[18]],['high holistic'],['left'],['inverted'],['U0359.bmp'],['male'],[],['male'],[[1]],[[0.15400544]],CP
780,[[7]],[[781]],[[19]],['high holistic'],['right'],['inverted'],['U0361.bmp'],['female'],[],['female'],[[1]],[[0.41424776]],CP
781,[[7]],[[782]],[[3]],['low holistic'],['right'],['inverted'],['U0020.bmp'],['female'],[],['female'],[[1]],[[0.00010478]],CP
782,[[7]],[[783]],[[18]],['high holistic'],['left'],['inverted'],['U0359.bmp'],['male'],[],['male'],[[1]],[[0.00010457]],CP
783,[[7]],[[784]],[[5]],['high holistic'],['right'],['inverted'],['U0076.bmp'],['female'],[],['female'],[[1]],[[0.00011113]],CP
784,[[7]],[[785]],[[15]],['high holistic'],['left'],['inverted'],['U0312.bmp'],['male'],[],['male'],[[1]],[[9.82449856e-05]],CP
785,[[7]],[[786]],[[18]],['low holistic'],['fovea'],['upright'],['U0359.bmp'],['male'],[],['male'],[[1]],[[0.0001068]],CP
786,[[7]],[[787]],[[20]],['high holistic'],['left'],['upright'],['U0362.bmp'],['female'],[],['male'],[[0]],[[1.45093839]],CP
787,[[7]],[[788]],[[9]],['high holistic'],['left'],['upright'],['U0155.bmp'],['female'],[],['male'],[[0]],[[0.00010572]],CP
788,[[7]],[[789]],[[5]],['high holistic'],['fovea'],['upright'],['U0076.bmp'],['female'],[],['female'],[[1]],[[0.00010579]],CP
789,[[7]],[[790]],[[3]],['low holistic'],['left'],['inverted'],['U0020.bmp'],['female'],[],['female'],[[1]],[[9.89402179e-05]],CP
790,[[7]],[[791]],[[10]],['high holistic'],['right'],['upright'],['U0159.bmp'],['male'],[],['female'],[[0]],[[0.00010564]],CP
791,[[7]],[[792]],[[15]],['low holistic'],['right'],['inverted'],['U0312.bmp'],['male'],[],['female'],[[0]],[[0.00011335]],CP
792,[[7]],[[793]],[[1]],['low holistic'],['left'],['upright'],['U0006.bmp'],['female'],[],['male'],[[0]],[[0.00010436]],CP
