,SUBID,TRIAL,MOONEYID,MOONEYCATEGORY,LOC,COND,MOONEY_NAME,MOONEY_GENDER,ECCENTRICITY,RESPONSE,ACCURACY,RT,SUBINIT
0,[[3]],[[1]],[[9]],['low holistic'],['right'],['upright'],['U0155.bmp'],['male'],[],['male'],[[1]],[[0.27484599]],CR
1,[[3]],[[2]],[[15]],['high holistic'],['left'],['upright'],['U0312.bmp'],['male'],[],['female'],[[0]],[[189.43215497]],CR
2,[[3]],[[3]],[[13]],['high holistic'],['left'],['inverted'],['U0181.bmp'],['female'],[],['male'],[[0]],[[21.0299947]],CR
3,[[3]],[[4]],[[13]],['high holistic'],['right'],['upright'],['U0181.bmp'],['female'],[],['female'],[[1]],[[3.97524345]],CR
4,[[3]],[[5]],[[3]],['high holistic'],['left'],['inverted'],['U0020.bmp'],['male'],[],['male'],[[1]],[[4.53508378]],CR
5,[[3]],[[6]],[[8]],['high holistic'],['right'],['inverted'],['U0137.bmp'],['female'],[],['female'],[[1]],[[0.00010824]],CR
6,[[3]],[[7]],[[19]],['low holistic'],['left'],['inverted'],['U0361.bmp'],['female'],[],['male'],[[0]],[[10.51485045]],CR
7,[[3]],[[8]],[[2]],['low holistic'],['right'],['upright'],['U0014.bmp'],['male'],[],['male'],[[1]],[[1.91692235]],CR
8,[[3]],[[9]],[[6]],['low holistic'],['right'],['upright'],['U0106.bmp'],['male'],[],['male'],[[1]],[[1.03423684]],CR
9,[[3]],[[10]],[[20]],['high holistic'],['left'],['inverted'],['U0362.bmp'],['female'],[],['male'],[[0]],[[1.5053183]],CR
10,[[3]],[[11]],[[11]],['high holistic'],['right'],['inverted'],['U0164.bmp'],['female'],[],['male'],[[0]],[[0.55753121]],CR
11,[[3]],[[12]],[[13]],['low holistic'],['left'],['inverted'],['U0181.bmp'],['male'],[],['male'],[[1]],[[0.592169]],CR
12,[[3]],[[13]],[[8]],['low holistic'],['left'],['inverted'],['U0137.bmp'],['male'],[],['male'],[[1]],[[2.63201923]],CR
13,[[3]],[[14]],[[3]],['high holistic'],['right'],['upright'],['U0020.bmp'],['male'],[],['female'],[[0]],[[3.62938416]],CR
14,[[3]],[[15]],[[13]],['high holistic'],['left'],['upright'],['U0181.bmp'],['female'],[],['female'],[[1]],[[9.99076292e-05]],CR
15,[[3]],[[16]],[[9]],['low holistic'],['left'],['upright'],['U0155.bmp'],['male'],[],['male'],[[1]],[[0.28647206]],CR
16,[[3]],[[17]],[[16]],['low holistic'],['right'],['inverted'],['U0335.bmp'],['female'],[],['female'],[[1]],[[2.38549848]],CR
17,[[3]],[[18]],[[1]],['high holistic'],['right'],['upright'],['U0006.bmp'],['female'],[],['female'],[[1]],[[0.13240903]],CR
18,[[3]],[[19]],[[20]],['high holistic'],['right'],['inverted'],['U0362.bmp'],['female'],[],['female'],[[1]],[[0.34999102]],CR
19,[[3]],[[20]],[[6]],['high holistic'],['fovea'],['upright'],['U0106.bmp'],['female'],[],['female'],[[1]],[[0.00041416]],CR
20,[[3]],[[21]],[[3]],['low holistic'],['left'],['upright'],['U0020.bmp'],['female'],[],['female'],[[1]],[[0.00010833]],CR
21,[[3]],[[22]],[[20]],['high holistic'],['fovea'],['inverted'],['U0362.bmp'],['female'],[],['female'],[[1]],[[1.62620211]],CR
22,[[3]],[[23]],[[11]],['high holistic'],['right'],['upright'],['U0164.bmp'],['female'],[],['female'],[[1]],[[2.32823547]],CR
23,[[3]],[[24]],[[20]],['low holistic'],['left'],['upright'],['U0362.bmp'],['male'],[],['female'],[[0]],[[0.93993625]],CR
24,[[3]],[[25]],[[17]],['high holistic'],['right'],['inverted'],['U0346.bmp'],['male'],[],['female'],[[0]],[[1.89293227]],CR
25,[[3]],[[26]],[[20]],['high holistic'],['left'],['inverted'],['U0362.bmp'],['female'],[],['male'],[[0]],[[0.12293338]],CR
26,[[3]],[[27]],[[14]],['high holistic'],['right'],['upright'],['U0228.bmp'],['male'],[],['male'],[[1]],[[0.0222998]],CR
27,[[3]],[[28]],[[10]],['low holistic'],['left'],['inverted'],['U0159.bmp'],['female'],[],['male'],[[0]],[[0.14034588]],CR
28,[[3]],[[29]],[[5]],['low holistic'],['left'],['inverted'],['U0076.bmp'],['male'],[],['female'],[[0]],[[1.97294849]],CR
29,[[3]],[[30]],[[5]],['high holistic'],['right'],['inverted'],['U0076.bmp'],['female'],[],['male'],[[0]],[[1.91140767]],CR
30,[[3]],[[31]],[[19]],['low holistic'],['fovea'],['upright'],['U0361.bmp'],['female'],[],['female'],[[1]],[[0.00010119]],CR
31,[[3]],[[32]],[[12]],['high holistic'],['left'],['upright'],['U0178.bmp'],['male'],[],['female'],[[0]],[[3.89903965]],CR
32,[[3]],[[33]],[[14]],['high holistic'],['right'],['inverted'],['U0228.bmp'],['male'],[],['female'],[[0]],[[0.00010355]],CR
33,[[3]],[[34]],[[15]],['low holistic'],['right'],['inverted'],['U0312.bmp'],['male'],[],['female'],[[0]],[[2.3113969]],CR
34,[[3]],[[35]],[[14]],['high holistic'],['left'],['upright'],['U0228.bmp'],['male'],[],['male'],[[1]],[[0.11519563]],CR
35,[[3]],[[36]],[[20]],['high holistic'],['left'],['inverted'],['U0362.bmp'],['female'],[],['male'],[[0]],[[0.17420681]],CR
36,[[3]],[[37]],[[6]],['low holistic'],['left'],['inverted'],['U0106.bmp'],['male'],[],['female'],[[0]],[[0.15920739]],CR
37,[[3]],[[38]],[[2]],['high holistic'],['right'],['upright'],['U0014.bmp'],['male'],[],['male'],[[1]],[[0.00010119]],CR
38,[[3]],[[39]],[[13]],['high holistic'],['left'],['inverted'],['U0181.bmp'],['female'],[],['female'],[[1]],[[0.00010701]],CR
39,[[3]],[[40]],[[5]],['high holistic'],['right'],['inverted'],['U0076.bmp'],['female'],[],['male'],[[0]],[[0.10467781]],CR
40,[[3]],[[41]],[[18]],['high holistic'],['right'],['upright'],['U0359.bmp'],['male'],[],['female'],[[0]],[[0.38050263]],CR
41,[[3]],[[42]],[[3]],['high holistic'],['left'],['upright'],['U0020.bmp'],['male'],[],['male'],[[1]],[[0.11845204]],CR
42,[[3]],[[43]],[[19]],['low holistic'],['right'],['upright'],['U0361.bmp'],['female'],[],['female'],[[1]],[[0.1126568]],CR
43,[[3]],[[44]],[[1]],['high holistic'],['left'],['upright'],['U0006.bmp'],['female'],[],['male'],[[0]],[[0.1257497]],CR
44,[[3]],[[45]],[[11]],['low holistic'],['left'],['inverted'],['U0164.bmp'],['female'],[],['female'],[[1]],[[0.00038127]],CR
45,[[3]],[[46]],[[10]],['high holistic'],['right'],['inverted'],['U0159.bmp'],['male'],[],['female'],[[0]],[[0.00041956]],CR
46,[[3]],[[47]],[[18]],['high holistic'],['right'],['upright'],['U0359.bmp'],['male'],[],['female'],[[0]],[[0.04712901]],CR
47,[[3]],[[48]],[[7]],['high holistic'],['right'],['inverted'],['U0107.bmp'],['female'],[],['female'],[[1]],[[1.26903833]],CR
48,[[3]],[[49]],[[18]],['low holistic'],['left'],['upright'],['U0359.bmp'],['male'],[],['female'],[[0]],[[0.00353736]],CR
49,[[3]],[[50]],[[4]],['high holistic'],['left'],['inverted'],['U0061.bmp'],['female'],[],['female'],[[1]],[[0.07408077]],CR
50,[[3]],[[51]],[[5]],['low holistic'],['left'],['inverted'],['U0076.bmp'],['male'],[],['male'],[[1]],[[0.0719437]],CR
51,[[3]],[[52]],[[3]],['low holistic'],['left'],['upright'],['U0020.bmp'],['female'],[],['female'],[[1]],[[0.06831655]],CR
52,[[3]],[[53]],[[10]],['low holistic'],['fovea'],['inverted'],['U0159.bmp'],['female'],[],['female'],[[1]],[[0.14614834]],CR
53,[[3]],[[54]],[[18]],['high holistic'],['right'],['upright'],['U0359.bmp'],['male'],[],['female'],[[0]],[[0.11715894]],CR
54,[[3]],[[55]],[[3]],['low holistic'],['right'],['upright'],['U0020.bmp'],['female'],[],['female'],[[1]],[[0.08007203]],CR
55,[[3]],[[56]],[[20]],['high holistic'],['fovea'],['inverted'],['U0362.bmp'],['female'],[],['male'],[[0]],[[0.16652685]],CR
56,[[3]],[[57]],[[16]],['high holistic'],['right'],['upright'],['U0335.bmp'],['female'],[],['female'],[[1]],[[0.57537586]],CR
57,[[3]],[[58]],[[20]],['high holistic'],['left'],['upright'],['U0362.bmp'],['female'],[],['female'],[[1]],[[0.11163427]],CR
58,[[3]],[[59]],[[1]],['low holistic'],['left'],['upright'],['U0006.bmp'],['female'],[],['female'],[[1]],[[0.00036381]],CR
59,[[3]],[[60]],[[10]],['low holistic'],['right'],['inverted'],['U0159.bmp'],['female'],[],['male'],[[0]],[[0.13963381]],CR
60,[[3]],[[61]],[[5]],['high holistic'],['left'],['upright'],['U0076.bmp'],['female'],[],['female'],[[1]],[[3.8846126]],CR
61,[[3]],[[62]],[[6]],['high holistic'],['right'],['inverted'],['U0106.bmp'],['female'],[],['male'],[[0]],[[0.1063355]],CR
62,[[3]],[[63]],[[17]],['high holistic'],['right'],['upright'],['U0346.bmp'],['male'],[],['male'],[[1]],[[0.30903559]],CR
63,[[3]],[[64]],[[2]],['high holistic'],['right'],['inverted'],['U0014.bmp'],['male'],[],['female'],[[0]],[[0.30519884]],CR
64,[[3]],[[65]],[[1]],['low holistic'],['left'],['upright'],['U0006.bmp'],['female'],[],['female'],[[1]],[[0.0001012]],CR
65,[[3]],[[66]],[[4]],['low holistic'],['fovea'],['inverted'],['U0061.bmp'],['female'],[],['female'],[[1]],[[0.00016391]],CR
66,[[3]],[[67]],[[14]],['low holistic'],['left'],['inverted'],['U0228.bmp'],['male'],[],['male'],[[1]],[[0.06227553]],CR
67,[[3]],[[68]],[[13]],['low holistic'],['right'],['upright'],['U0181.bmp'],['male'],[],['female'],[[0]],[[0.13126525]],CR
68,[[3]],[[69]],[[11]],['high holistic'],['fovea'],['inverted'],['U0164.bmp'],['female'],[],['female'],[[1]],[[0.00022177]],CR
69,[[3]],[[70]],[[15]],['low holistic'],['left'],['inverted'],['U0312.bmp'],['male'],[],['male'],[[1]],[[0.0539731]],CR
70,[[3]],[[71]],[[13]],['low holistic'],['right'],['inverted'],['U0181.bmp'],['male'],[],['male'],[[1]],[[0.14887414]],CR
71,[[3]],[[72]],[[16]],['low holistic'],['left'],['upright'],['U0335.bmp'],['female'],[],['female'],[[1]],[[0.00032734]],CR
72,[[3]],[[73]],[[15]],['high holistic'],['left'],['upright'],['U0312.bmp'],['male'],[],['female'],[[0]],[[0.0376158]],CR
73,[[3]],[[74]],[[2]],['low holistic'],['right'],['inverted'],['U0014.bmp'],['male'],[],['male'],[[1]],[[0.00010729]],CR
74,[[3]],[[75]],[[19]],['high holistic'],['right'],['inverted'],['U0361.bmp'],['female'],[],['male'],[[0]],[[0.06897048]],CR
75,[[3]],[[76]],[[5]],['low holistic'],['left'],['upright'],['U0076.bmp'],['male'],[],['female'],[[0]],[[9.94829461e-05]],CR
76,[[3]],[[77]],[[15]],['low holistic'],['left'],['upright'],['U0312.bmp'],['male'],[],['female'],[[0]],[[0.12112967]],CR
77,[[3]],[[78]],[[18]],['high holistic'],['right'],['upright'],['U0359.bmp'],['male'],[],['female'],[[0]],[[3.97333088]],CR
78,[[3]],[[79]],[[5]],['high holistic'],['right'],['upright'],['U0076.bmp'],['female'],[],['female'],[[1]],[[0.13284666]],CR
79,[[3]],[[80]],[[7]],['low holistic'],['right'],['upright'],['U0107.bmp'],['female'],[],['female'],[[1]],[[0.05594958]],CR
80,[[3]],[[81]],[[6]],['low holistic'],['left'],['upright'],['U0106.bmp'],['male'],[],['male'],[[1]],[[0.03684879]],CR
81,[[3]],[[82]],[[1]],['high holistic'],['right'],['upright'],['U0006.bmp'],['female'],[],['female'],[[1]],[[0.0001002]],CR
82,[[3]],[[83]],[[17]],['low holistic'],['right'],['inverted'],['U0346.bmp'],['female'],[],['female'],[[1]],[[0.21201276]],CR
83,[[3]],[[84]],[[2]],['low holistic'],['right'],['inverted'],['U0014.bmp'],['male'],[],['male'],[[1]],[[0.00035255]],CR
84,[[3]],[[85]],[[6]],['low holistic'],['left'],['inverted'],['U0106.bmp'],['male'],[],['female'],[[0]],[[0.00036499]],CR
85,[[3]],[[86]],[[1]],['low holistic'],['left'],['inverted'],['U0006.bmp'],['female'],[],['female'],[[1]],[[0.00016362]],CR
86,[[3]],[[87]],[[18]],['low holistic'],['right'],['inverted'],['U0359.bmp'],['male'],[],['female'],[[0]],[[0.10084026]],CR
87,[[3]],[[88]],[[4]],['high holistic'],['left'],['inverted'],['U0061.bmp'],['female'],[],['female'],[[1]],[[0.0168361]],CR
88,[[3]],[[89]],[[19]],['high holistic'],['left'],['inverted'],['U0361.bmp'],['female'],[],['male'],[[0]],[[0.0313968]],CR
89,[[3]],[[90]],[[19]],['high holistic'],['right'],['inverted'],['U0361.bmp'],['female'],[],['female'],[[1]],[[8.74071935]],CR
90,[[3]],[[91]],[[20]],['high holistic'],['left'],['upright'],['U0362.bmp'],['female'],[],['female'],[[1]],[[0.00010106]],CR
91,[[3]],[[92]],[[18]],['low holistic'],['left'],['upright'],['U0359.bmp'],['male'],[],['male'],[[1]],[[0.21748789]],CR
92,[[3]],[[93]],[[15]],['high holistic'],['left'],['upright'],['U0312.bmp'],['male'],[],['female'],[[0]],[[0.21488317]],CR
93,[[3]],[[94]],[[9]],['high holistic'],['left'],['inverted'],['U0155.bmp'],['female'],[],['female'],[[1]],[[0.09584875]],CR
94,[[3]],[[95]],[[1]],['high holistic'],['right'],['upright'],['U0006.bmp'],['female'],[],['female'],[[1]],[[0.29100882]],CR
95,[[3]],[[96]],[[12]],['low holistic'],['fovea'],['upright'],['U0178.bmp'],['female'],[],['female'],[[1]],[[0.0001009]],CR
96,[[3]],[[97]],[[17]],['high holistic'],['right'],['inverted'],['U0346.bmp'],['male'],[],['male'],[[1]],[[0.44620285]],CR
97,[[3]],[[98]],[[2]],['low holistic'],['left'],['upright'],['U0014.bmp'],['male'],[],['female'],[[0]],[[0.00010611]],CR
98,[[3]],[[99]],[[2]],['high holistic'],['right'],['upright'],['U0014.bmp'],['male'],[],['female'],[[0]],[[0.07609924]],CR
99,[[3]],[[100]],[[16]],['high holistic'],['right'],['inverted'],['U0335.bmp'],['female'],[],['female'],[[1]],[[0.32174044]],CR
100,[[3]],[[101]],[[13]],['high holistic'],['right'],['upright'],['U0181.bmp'],['female'],[],['male'],[[0]],[[0.0001016]],CR
101,[[3]],[[102]],[[1]],['low holistic'],['right'],['inverted'],['U0006.bmp'],['female'],[],['female'],[[1]],[[0.18887738]],CR
102,[[3]],[[103]],[[8]],['high holistic'],['left'],['inverted'],['U0137.bmp'],['female'],[],['male'],[[0]],[[0.13251172]],CR
103,[[3]],[[104]],[[1]],['high holistic'],['left'],['upright'],['U0006.bmp'],['female'],[],['female'],[[1]],[[0.07148211]],CR
104,[[3]],[[105]],[[4]],['low holistic'],['right'],['inverted'],['U0061.bmp'],['female'],[],['female'],[[1]],[[0.30044261]],CR
105,[[3]],[[106]],[[1]],['high holistic'],['left'],['upright'],['U0006.bmp'],['female'],[],['female'],[[1]],[[0.00049714]],CR
106,[[3]],[[107]],[[17]],['low holistic'],['left'],['inverted'],['U0346.bmp'],['female'],[],['female'],[[1]],[[0.01824679]],CR
107,[[3]],[[108]],[[20]],['high holistic'],['left'],['inverted'],['U0362.bmp'],['female'],[],['male'],[[0]],[[0.07312355]],CR
108,[[3]],[[109]],[[8]],['high holistic'],['left'],['inverted'],['U0137.bmp'],['female'],[],['male'],[[0]],[[0.06808913]],CR
109,[[3]],[[110]],[[14]],['low holistic'],['right'],['inverted'],['U0228.bmp'],['male'],[],['male'],[[1]],[[0.18598226]],CR
110,[[3]],[[111]],[[15]],['low holistic'],['left'],['upright'],['U0312.bmp'],['male'],[],['female'],[[0]],[[0.00024572]],CR
111,[[3]],[[112]],[[19]],['low holistic'],['left'],['inverted'],['U0361.bmp'],['female'],[],['female'],[[1]],[[0.19470221]],CR
112,[[3]],[[113]],[[7]],['high holistic'],['right'],['upright'],['U0107.bmp'],['female'],[],['male'],[[0]],[[0.09068026]],CR
113,[[3]],[[114]],[[15]],['high holistic'],['right'],['upright'],['U0312.bmp'],['male'],[],['female'],[[0]],[[0.11923746]],CR
114,[[3]],[[115]],[[5]],['low holistic'],['right'],['inverted'],['U0076.bmp'],['male'],[],['male'],[[1]],[[0.16394081]],CR
115,[[3]],[[116]],[[8]],['high holistic'],['left'],['upright'],['U0137.bmp'],['female'],[],['female'],[[1]],[[0.00011357]],CR
116,[[3]],[[117]],[[4]],['high holistic'],['left'],['upright'],['U0061.bmp'],['female'],[],['female'],[[1]],[[0.15769292]],CR
117,[[3]],[[118]],[[17]],['high holistic'],['right'],['upright'],['U0346.bmp'],['male'],[],['male'],[[1]],[[0.05440147]],CR
118,[[3]],[[119]],[[9]],['low holistic'],['right'],['inverted'],['U0155.bmp'],['male'],[],['male'],[[1]],[[0.34728829]],CR
119,[[3]],[[120]],[[17]],['high holistic'],['left'],['upright'],['U0346.bmp'],['male'],[],['female'],[[0]],[[9.89809632e-05]],CR
120,[[3]],[[121]],[[8]],['high holistic'],['right'],['upright'],['U0137.bmp'],['female'],[],['male'],[[0]],[[0.07016036]],CR
121,[[3]],[[122]],[[20]],['high holistic'],['left'],['inverted'],['U0362.bmp'],['female'],[],['female'],[[1]],[[0.06663518]],CR
122,[[3]],[[123]],[[8]],['high holistic'],['left'],['inverted'],['U0137.bmp'],['female'],[],['female'],[[1]],[[0.00010181]],CR
123,[[3]],[[124]],[[2]],['high holistic'],['right'],['inverted'],['U0014.bmp'],['male'],[],['male'],[[1]],[[0.07357412]],CR
124,[[3]],[[125]],[[11]],['high holistic'],['left'],['inverted'],['U0164.bmp'],['female'],[],['female'],[[1]],[[0.00010693]],CR
125,[[3]],[[126]],[[17]],['high holistic'],['left'],['upright'],['U0346.bmp'],['male'],[],['male'],[[1]],[[0.03715296]],CR
126,[[3]],[[127]],[[15]],['low holistic'],['left'],['inverted'],['U0312.bmp'],['male'],[],['male'],[[1]],[[0.08364539]],CR
127,[[3]],[[128]],[[5]],['high holistic'],['right'],['upright'],['U0076.bmp'],['female'],[],['female'],[[1]],[[0.12840391]],CR
128,[[3]],[[129]],[[20]],['high holistic'],['right'],['upright'],['U0362.bmp'],['female'],[],['female'],[[1]],[[0.01122447]],CR
129,[[3]],[[130]],[[17]],['low holistic'],['right'],['upright'],['U0346.bmp'],['female'],[],['female'],[[1]],[[0.09214556]],CR
130,[[3]],[[131]],[[6]],['high holistic'],['left'],['upright'],['U0106.bmp'],['female'],[],['female'],[[1]],[[0.54267756]],CR
131,[[3]],[[132]],[[11]],['low holistic'],['right'],['inverted'],['U0164.bmp'],['female'],[],['female'],[[1]],[[0.06394588]],CR
132,[[3]],[[133]],[[13]],['high holistic'],['left'],['inverted'],['U0181.bmp'],['female'],[],['female'],[[1]],[[0.20423877]],CR
133,[[3]],[[134]],[[5]],['low holistic'],['left'],['upright'],['U0076.bmp'],['male'],[],['male'],[[1]],[[0.00044076]],CR
134,[[3]],[[135]],[[13]],['high holistic'],['left'],['inverted'],['U0181.bmp'],['female'],[],['female'],[[1]],[[0.21262825]],CR
135,[[3]],[[136]],[[17]],['high holistic'],['left'],['inverted'],['U0346.bmp'],['male'],[],['female'],[[0]],[[0.00349909]],CR
136,[[3]],[[137]],[[10]],['high holistic'],['right'],['upright'],['U0159.bmp'],['male'],[],['male'],[[1]],[[0.04266983]],CR
137,[[3]],[[138]],[[12]],['low holistic'],['left'],['inverted'],['U0178.bmp'],['female'],[],['female'],[[1]],[[0.08259674]],CR
138,[[3]],[[139]],[[14]],['high holistic'],['left'],['inverted'],['U0228.bmp'],['male'],[],['female'],[[0]],[[0.04788905]],CR
139,[[3]],[[140]],[[7]],['high holistic'],['left'],['inverted'],['U0107.bmp'],['female'],[],['female'],[[1]],[[0.06134457]],CR
140,[[3]],[[141]],[[19]],['low holistic'],['right'],['upright'],['U0361.bmp'],['female'],[],['male'],[[0]],[[0.12334795]],CR
141,[[3]],[[142]],[[18]],['low holistic'],['left'],['upright'],['U0359.bmp'],['male'],[],['female'],[[0]],[[0.77365916]],CR
142,[[3]],[[143]],[[13]],['high holistic'],['left'],['inverted'],['U0181.bmp'],['female'],[],['female'],[[1]],[[0.00010828]],CR
143,[[3]],[[144]],[[2]],['high holistic'],['right'],['inverted'],['U0014.bmp'],['male'],[],['male'],[[1]],[[0.00010024]],CR
144,[[3]],[[145]],[[13]],['high holistic'],['right'],['upright'],['U0181.bmp'],['female'],[],['female'],[[1]],[[0.0855632]],CR
145,[[3]],[[146]],[[3]],['high holistic'],['right'],['upright'],['U0020.bmp'],['male'],[],['female'],[[0]],[[0.00010776]],CR
146,[[3]],[[147]],[[9]],['high holistic'],['right'],['inverted'],['U0155.bmp'],['female'],[],['female'],[[1]],[[0.00218894]],CR
147,[[3]],[[148]],[[15]],['low holistic'],['right'],['upright'],['U0312.bmp'],['male'],[],['female'],[[0]],[[0.00038071]],CR
148,[[3]],[[149]],[[4]],['low holistic'],['left'],['upright'],['U0061.bmp'],['female'],[],['female'],[[1]],[[0.0759253]],CR
149,[[3]],[[150]],[[17]],['low holistic'],['right'],['upright'],['U0346.bmp'],['female'],[],['female'],[[1]],[[0.00015841]],CR
150,[[3]],[[151]],[[17]],['low holistic'],['right'],['upright'],['U0346.bmp'],['female'],[],['female'],[[1]],[[0.00016583]],CR
151,[[3]],[[152]],[[13]],['high holistic'],['fovea'],['upright'],['U0181.bmp'],['female'],[],['female'],[[1]],[[0.00010029]],CR
152,[[3]],[[153]],[[19]],['low holistic'],['right'],['upright'],['U0361.bmp'],['female'],[],['female'],[[1]],[[0.03387415]],CR
153,[[3]],[[154]],[[18]],['high holistic'],['left'],['upright'],['U0359.bmp'],['male'],[],['male'],[[1]],[[0.00010066]],CR
154,[[3]],[[155]],[[18]],['high holistic'],['left'],['inverted'],['U0359.bmp'],['male'],[],['female'],[[0]],[[0.03145019]],CR
155,[[3]],[[156]],[[2]],['low holistic'],['left'],['inverted'],['U0014.bmp'],['male'],[],['female'],[[0]],[[0.04707234]],CR
156,[[3]],[[157]],[[20]],['low holistic'],['right'],['upright'],['U0362.bmp'],['male'],[],['female'],[[0]],[[0.1575914]],CR
157,[[3]],[[158]],[[10]],['low holistic'],['right'],['inverted'],['U0159.bmp'],['female'],[],['male'],[[0]],[[0.00010647]],CR
158,[[3]],[[159]],[[6]],['high holistic'],['right'],['upright'],['U0106.bmp'],['female'],[],['female'],[[1]],[[0.00018864]],CR
159,[[3]],[[160]],[[9]],['low holistic'],['left'],['inverted'],['U0155.bmp'],['male'],[],['female'],[[0]],[[0.00053821]],CR
160,[[3]],[[161]],[[16]],['low holistic'],['right'],['inverted'],['U0335.bmp'],['female'],[],['female'],[[1]],[[0.15087915]],CR
161,[[3]],[[162]],[[3]],['low holistic'],['right'],['inverted'],['U0020.bmp'],['female'],[],['male'],[[0]],[[0.00037439]],CR
162,[[3]],[[163]],[[12]],['high holistic'],['left'],['upright'],['U0178.bmp'],['male'],[],['female'],[[0]],[[0.00010845]],CR
163,[[3]],[[164]],[[19]],['high holistic'],['left'],['inverted'],['U0361.bmp'],['female'],[],['female'],[[1]],[[0.00010206]],CR
164,[[3]],[[165]],[[12]],['low holistic'],['fovea'],['inverted'],['U0178.bmp'],['female'],[],['female'],[[1]],[[0.07211166]],CR
165,[[3]],[[166]],[[10]],['high holistic'],['right'],['inverted'],['U0159.bmp'],['male'],[],['female'],[[0]],[[0.00048427]],CR
166,[[3]],[[167]],[[8]],['high holistic'],['fovea'],['inverted'],['U0137.bmp'],['female'],[],['female'],[[1]],[[1.97368204]],CR
167,[[3]],[[168]],[[10]],['high holistic'],['left'],['upright'],['U0159.bmp'],['male'],[],['male'],[[1]],[[0.14895624]],CR
168,[[3]],[[169]],[[16]],['high holistic'],['left'],['upright'],['U0335.bmp'],['female'],[],['female'],[[1]],[[0.07100627]],CR
169,[[3]],[[170]],[[19]],['high holistic'],['right'],['inverted'],['U0361.bmp'],['female'],[],['female'],[[1]],[[0.061604]],CR
170,[[3]],[[171]],[[11]],['low holistic'],['left'],['inverted'],['U0164.bmp'],['female'],[],['male'],[[0]],[[0.00010758]],CR
171,[[3]],[[172]],[[7]],['low holistic'],['left'],['upright'],['U0107.bmp'],['female'],[],['male'],[[0]],[[0.02590882]],CR
172,[[3]],[[173]],[[11]],['high holistic'],['left'],['upright'],['U0164.bmp'],['female'],[],['female'],[[1]],[[0.00020961]],CR
173,[[3]],[[174]],[[19]],['low holistic'],['right'],['inverted'],['U0361.bmp'],['female'],[],['male'],[[0]],[[0.00010644]],CR
174,[[3]],[[175]],[[16]],['low holistic'],['right'],['upright'],['U0335.bmp'],['female'],[],['female'],[[1]],[[0.00010761]],CR
175,[[3]],[[176]],[[16]],['low holistic'],['fovea'],['upright'],['U0335.bmp'],['female'],[],['female'],[[1]],[[0.00010067]],CR
176,[[3]],[[177]],[[17]],['high holistic'],['left'],['inverted'],['U0346.bmp'],['male'],[],['female'],[[0]],[[0.00010058]],CR
177,[[3]],[[178]],[[17]],['high holistic'],['right'],['upright'],['U0346.bmp'],['male'],[],['male'],[[1]],[[0.00013644]],CR
178,[[3]],[[179]],[[11]],['low holistic'],['right'],['upright'],['U0164.bmp'],['female'],[],['female'],[[1]],[[0.09708224]],CR
179,[[3]],[[180]],[[7]],['high holistic'],['right'],['upright'],['U0107.bmp'],['female'],[],['female'],[[1]],[[0.01316186]],CR
180,[[3]],[[181]],[[1]],['low holistic'],['right'],['inverted'],['U0006.bmp'],['female'],[],['male'],[[0]],[[0.06126536]],CR
181,[[3]],[[182]],[[2]],['low holistic'],['right'],['upright'],['U0014.bmp'],['male'],[],['male'],[[1]],[[0.01918514]],CR
182,[[3]],[[183]],[[4]],['low holistic'],['right'],['inverted'],['U0061.bmp'],['female'],[],['male'],[[0]],[[0.28907243]],CR
183,[[3]],[[184]],[[18]],['low holistic'],['right'],['inverted'],['U0359.bmp'],['male'],[],['female'],[[0]],[[0.04607339]],CR
184,[[3]],[[185]],[[10]],['high holistic'],['left'],['inverted'],['U0159.bmp'],['male'],[],['female'],[[0]],[[0.00010788]],CR
185,[[3]],[[186]],[[7]],['high holistic'],['left'],['upright'],['U0107.bmp'],['female'],[],['female'],[[1]],[[0.07625098]],CR
186,[[3]],[[187]],[[14]],['low holistic'],['left'],['inverted'],['U0228.bmp'],['male'],[],['male'],[[1]],[[0.01825463]],CR
187,[[3]],[[188]],[[14]],['high holistic'],['left'],['upright'],['U0228.bmp'],['male'],[],['female'],[[0]],[[0.00867139]],CR
188,[[3]],[[189]],[[1]],['low holistic'],['left'],['upright'],['U0006.bmp'],['female'],[],['male'],[[0]],[[0.00013506]],CR
189,[[3]],[[190]],[[20]],['high holistic'],['right'],['inverted'],['U0362.bmp'],['female'],[],['male'],[[0]],[[0.00010011]],CR
190,[[3]],[[191]],[[4]],['high holistic'],['right'],['inverted'],['U0061.bmp'],['female'],[],['female'],[[1]],[[0.00020095]],CR
191,[[3]],[[192]],[[5]],['low holistic'],['right'],['upright'],['U0076.bmp'],['male'],[],['male'],[[1]],[[0.00794102]],CR
192,[[3]],[[193]],[[4]],['high holistic'],['right'],['upright'],['U0061.bmp'],['female'],[],['female'],[[1]],[[0.00101591]],CR
193,[[3]],[[194]],[[19]],['low holistic'],['right'],['inverted'],['U0361.bmp'],['female'],[],['female'],[[1]],[[0.00047052]],CR
194,[[3]],[[195]],[[4]],['low holistic'],['left'],['inverted'],['U0061.bmp'],['female'],[],['female'],[[1]],[[0.00010808]],CR
195,[[3]],[[196]],[[12]],['high holistic'],['left'],['upright'],['U0178.bmp'],['male'],[],['female'],[[0]],[[0.00010879]],CR
196,[[3]],[[197]],[[11]],['low holistic'],['left'],['inverted'],['U0164.bmp'],['female'],[],['male'],[[0]],[[0.70535874]],CR
197,[[3]],[[198]],[[18]],['high holistic'],['right'],['inverted'],['U0359.bmp'],['male'],[],['male'],[[1]],[[0.12310035]],CR
198,[[3]],[[199]],[[19]],['high holistic'],['right'],['upright'],['U0361.bmp'],['female'],[],['female'],[[1]],[[0.11042804]],CR
199,[[3]],[[200]],[[19]],['low holistic'],['right'],['upright'],['U0361.bmp'],['female'],[],['female'],[[1]],[[0.00032527]],CR
200,[[3]],[[201]],[[2]],['low holistic'],['left'],['inverted'],['U0014.bmp'],['male'],[],['male'],[[1]],[[0.05712511]],CR
201,[[3]],[[202]],[[17]],['high holistic'],['left'],['inverted'],['U0346.bmp'],['male'],[],['male'],[[1]],[[0.07099329]],CR
202,[[3]],[[203]],[[1]],['high holistic'],['left'],['upright'],['U0006.bmp'],['female'],[],['female'],[[1]],[[0.00010249]],CR
203,[[3]],[[204]],[[19]],['low holistic'],['left'],['inverted'],['U0361.bmp'],['female'],[],['female'],[[1]],[[0.00016311]],CR
204,[[3]],[[205]],[[18]],['high holistic'],['left'],['inverted'],['U0359.bmp'],['male'],[],['female'],[[0]],[[0.00031781]],CR
205,[[3]],[[206]],[[4]],['high holistic'],['left'],['inverted'],['U0061.bmp'],['female'],[],['male'],[[0]],[[0.03712426]],CR
206,[[3]],[[207]],[[9]],['high holistic'],['right'],['inverted'],['U0155.bmp'],['female'],[],['female'],[[1]],[[9.9693425e-05]],CR
207,[[3]],[[208]],[[2]],['low holistic'],['right'],['inverted'],['U0014.bmp'],['male'],[],['female'],[[0]],[[0.03589898]],CR
208,[[3]],[[209]],[[2]],['low holistic'],['left'],['inverted'],['U0014.bmp'],['male'],[],['male'],[[1]],[[0.02760142]],CR
209,[[3]],[[210]],[[11]],['high holistic'],['fovea'],['inverted'],['U0164.bmp'],['female'],[],['female'],[[1]],[[9.90824774e-05]],CR
210,[[3]],[[211]],[[15]],['low holistic'],['right'],['inverted'],['U0312.bmp'],['male'],[],['male'],[[1]],[[0.22611436]],CR
211,[[3]],[[212]],[[5]],['high holistic'],['fovea'],['inverted'],['U0076.bmp'],['female'],[],['male'],[[0]],[[0.11181452]],CR
212,[[3]],[[213]],[[11]],['high holistic'],['left'],['inverted'],['U0164.bmp'],['female'],[],['female'],[[1]],[[0.00011729]],CR
213,[[3]],[[214]],[[14]],['low holistic'],['left'],['inverted'],['U0228.bmp'],['male'],[],['male'],[[1]],[[9.9869445e-05]],CR
214,[[3]],[[215]],[[19]],['high holistic'],['left'],['inverted'],['U0361.bmp'],['female'],[],['female'],[[1]],[[0.03573685]],CR
215,[[3]],[[216]],[[18]],['high holistic'],['right'],['inverted'],['U0359.bmp'],['male'],[],['female'],[[0]],[[0.00010176]],CR
216,[[3]],[[217]],[[13]],['high holistic'],['left'],['inverted'],['U0181.bmp'],['female'],[],['male'],[[0]],[[0.00010209]],CR
217,[[3]],[[218]],[[17]],['high holistic'],['right'],['upright'],['U0346.bmp'],['male'],[],['female'],[[0]],[[0.00010802]],CR
218,[[3]],[[219]],[[10]],['low holistic'],['left'],['inverted'],['U0159.bmp'],['female'],[],['male'],[[0]],[[1.75439325]],CR
219,[[3]],[[220]],[[7]],['low holistic'],['left'],['inverted'],['U0107.bmp'],['female'],[],['female'],[[1]],[[0.00010811]],CR
220,[[3]],[[221]],[[5]],['low holistic'],['left'],['upright'],['U0076.bmp'],['male'],[],['male'],[[1]],[[0.00011138]],CR
221,[[3]],[[222]],[[15]],['low holistic'],['right'],['upright'],['U0312.bmp'],['male'],[],['female'],[[0]],[[0.00019463]],CR
222,[[3]],[[223]],[[14]],['low holistic'],['left'],['upright'],['U0228.bmp'],['male'],[],['male'],[[1]],[[0.03652432]],CR
223,[[3]],[[224]],[[1]],['high holistic'],['right'],['upright'],['U0006.bmp'],['female'],[],['female'],[[1]],[[0.45858041]],CR
224,[[3]],[[225]],[[14]],['low holistic'],['right'],['upright'],['U0228.bmp'],['male'],[],['male'],[[1]],[[0.04891032]],CR
225,[[3]],[[226]],[[18]],['low holistic'],['left'],['upright'],['U0359.bmp'],['male'],[],['male'],[[1]],[[0.24557149]],CR
226,[[3]],[[227]],[[19]],['low holistic'],['right'],['inverted'],['U0361.bmp'],['female'],[],['female'],[[1]],[[0.05839418]],CR
227,[[3]],[[228]],[[16]],['low holistic'],['left'],['inverted'],['U0335.bmp'],['female'],[],['male'],[[0]],[[0.06446666]],CR
228,[[3]],[[229]],[[5]],['high holistic'],['left'],['inverted'],['U0076.bmp'],['female'],[],['female'],[[1]],[[0.00011538]],CR
229,[[3]],[[230]],[[20]],['high holistic'],['right'],['inverted'],['U0362.bmp'],['female'],[],['male'],[[0]],[[0.03802361]],CR
230,[[3]],[[231]],[[7]],['low holistic'],['right'],['inverted'],['U0107.bmp'],['female'],[],['female'],[[1]],[[0.00018131]],CR
231,[[3]],[[232]],[[11]],['high holistic'],['left'],['upright'],['U0164.bmp'],['female'],[],['female'],[[1]],[[5.12387719]],CR
232,[[3]],[[233]],[[20]],['high holistic'],['left'],['inverted'],['U0362.bmp'],['female'],[],['female'],[[1]],[[0.03267103]],CR
233,[[3]],[[234]],[[5]],['high holistic'],['left'],['inverted'],['U0076.bmp'],['female'],[],['female'],[[1]],[[0.00026835]],CR
234,[[3]],[[235]],[[7]],['low holistic'],['right'],['inverted'],['U0107.bmp'],['female'],[],['female'],[[1]],[[0.11705171]],CR
235,[[3]],[[236]],[[2]],['low holistic'],['left'],['inverted'],['U0014.bmp'],['male'],[],['male'],[[1]],[[9.85404477e-05]],CR
236,[[3]],[[237]],[[17]],['high holistic'],['left'],['upright'],['U0346.bmp'],['male'],[],['female'],[[0]],[[9.97614115e-05]],CR
237,[[3]],[[238]],[[11]],['high holistic'],['left'],['upright'],['U0164.bmp'],['female'],[],['female'],[[1]],[[0.03454109]],CR
238,[[3]],[[239]],[[5]],['low holistic'],['right'],['inverted'],['U0076.bmp'],['male'],[],['male'],[[1]],[[0.00795879]],CR
239,[[3]],[[240]],[[20]],['high holistic'],['right'],['inverted'],['U0362.bmp'],['female'],[],['female'],[[1]],[[0.07050377]],CR
240,[[3]],[[241]],[[4]],['low holistic'],['right'],['upright'],['U0061.bmp'],['female'],[],['male'],[[0]],[[0.01064328]],CR
241,[[3]],[[242]],[[16]],['low holistic'],['right'],['upright'],['U0335.bmp'],['female'],[],['female'],[[1]],[[0.08506347]],CR
242,[[3]],[[243]],[[18]],['low holistic'],['right'],['inverted'],['U0359.bmp'],['male'],[],['male'],[[1]],[[0.03322863]],CR
243,[[3]],[[244]],[[9]],['high holistic'],['left'],['upright'],['U0155.bmp'],['female'],[],['female'],[[1]],[[0.00740399]],CR
244,[[3]],[[245]],[[17]],['high holistic'],['right'],['upright'],['U0346.bmp'],['male'],[],['male'],[[1]],[[0.16822788]],CR
245,[[3]],[[246]],[[11]],['low holistic'],['right'],['inverted'],['U0164.bmp'],['female'],[],['female'],[[1]],[[0.00010691]],CR
246,[[3]],[[247]],[[6]],['low holistic'],['left'],['upright'],['U0106.bmp'],['male'],[],['female'],[[0]],[[0.00038558]],CR
247,[[3]],[[248]],[[18]],['low holistic'],['right'],['upright'],['U0359.bmp'],['male'],[],['female'],[[0]],[[0.09450113]],CR
248,[[3]],[[249]],[[5]],['low holistic'],['right'],['inverted'],['U0076.bmp'],['male'],[],['male'],[[1]],[[0.14677866]],CR
249,[[3]],[[250]],[[19]],['low holistic'],['left'],['inverted'],['U0361.bmp'],['female'],[],['female'],[[1]],[[0.11676408]],CR
250,[[3]],[[251]],[[2]],['low holistic'],['left'],['inverted'],['U0014.bmp'],['male'],[],['female'],[[0]],[[4.32818103]],CR
251,[[3]],[[252]],[[19]],['low holistic'],['right'],['upright'],['U0361.bmp'],['female'],[],['female'],[[1]],[[0.04455844]],CR
252,[[3]],[[253]],[[12]],['low holistic'],['left'],['upright'],['U0178.bmp'],['female'],[],['female'],[[1]],[[0.00016952]],CR
253,[[3]],[[254]],[[7]],['high holistic'],['right'],['inverted'],['U0107.bmp'],['female'],[],['male'],[[0]],[[0.03326789]],CR
254,[[3]],[[255]],[[11]],['high holistic'],['left'],['inverted'],['U0164.bmp'],['female'],[],['female'],[[1]],[[0.08893081]],CR
255,[[3]],[[256]],[[19]],['low holistic'],['right'],['upright'],['U0361.bmp'],['female'],[],['female'],[[1]],[[0.02017658]],CR
256,[[3]],[[257]],[[19]],['high holistic'],['fovea'],['inverted'],['U0361.bmp'],['female'],[],['female'],[[1]],[[1.57290445]],CR
257,[[3]],[[258]],[[13]],['high holistic'],['right'],['inverted'],['U0181.bmp'],['female'],[],['female'],[[1]],[[0.00010807]],CR
258,[[3]],[[259]],[[2]],['high holistic'],['left'],['upright'],['U0014.bmp'],['male'],[],['female'],[[0]],[[0.00010084]],CR
259,[[3]],[[260]],[[19]],['high holistic'],['left'],['upright'],['U0361.bmp'],['female'],[],['female'],[[1]],[[9.91392881e-05]],CR
260,[[3]],[[261]],[[7]],['high holistic'],['left'],['upright'],['U0107.bmp'],['female'],[],['female'],[[1]],[[0.36101515]],CR
261,[[3]],[[262]],[[7]],['high holistic'],['fovea'],['upright'],['U0107.bmp'],['female'],[],['female'],[[1]],[[0.10540863]],CR
262,[[3]],[[263]],[[9]],['high holistic'],['right'],['upright'],['U0155.bmp'],['female'],[],['male'],[[0]],[[0.06984974]],CR
263,[[3]],[[264]],[[9]],['low holistic'],['left'],['upright'],['U0155.bmp'],['male'],[],['male'],[[1]],[[0.04315913]],CR
264,[[3]],[[265]],[[18]],['high holistic'],['left'],['inverted'],['U0359.bmp'],['male'],[],['female'],[[0]],[[0.11204937]],CR
265,[[3]],[[266]],[[7]],['high holistic'],['left'],['inverted'],['U0107.bmp'],['female'],[],['female'],[[1]],[[0.10080254]],CR
266,[[3]],[[267]],[[11]],['high holistic'],['fovea'],['upright'],['U0164.bmp'],['female'],[],['female'],[[1]],[[0.128044]],CR
267,[[3]],[[268]],[[3]],['high holistic'],['left'],['inverted'],['U0020.bmp'],['male'],[],['male'],[[1]],[[0.00012048]],CR
268,[[3]],[[269]],[[19]],['low holistic'],['left'],['inverted'],['U0361.bmp'],['female'],[],['male'],[[0]],[[0.01778703]],CR
269,[[3]],[[270]],[[15]],['high holistic'],['right'],['upright'],['U0312.bmp'],['male'],[],['male'],[[1]],[[0.14564414]],CR
270,[[3]],[[271]],[[18]],['high holistic'],['left'],['inverted'],['U0359.bmp'],['male'],[],['male'],[[1]],[[0.22891347]],CR
271,[[3]],[[272]],[[20]],['high holistic'],['left'],['upright'],['U0362.bmp'],['female'],[],['female'],[[1]],[[0.02754786]],CR
272,[[3]],[[273]],[[3]],['low holistic'],['left'],['upright'],['U0020.bmp'],['female'],[],['female'],[[1]],[[0.00011871]],CR
273,[[3]],[[274]],[[18]],['high holistic'],['right'],['inverted'],['U0359.bmp'],['male'],[],['female'],[[0]],[[0.0001269]],CR
274,[[3]],[[275]],[[19]],['low holistic'],['right'],['inverted'],['U0361.bmp'],['female'],[],['female'],[[1]],[[0.31558173]],CR
275,[[3]],[[276]],[[6]],['high holistic'],['right'],['upright'],['U0106.bmp'],['female'],[],['male'],[[0]],[[0.25458998]],CR
276,[[3]],[[277]],[[12]],['low holistic'],['fovea'],['upright'],['U0178.bmp'],['female'],[],['female'],[[1]],[[0.00010077]],CR
277,[[3]],[[278]],[[10]],['low holistic'],['left'],['upright'],['U0159.bmp'],['female'],[],['female'],[[1]],[[0.0001082]],CR
278,[[3]],[[279]],[[19]],['high holistic'],['right'],['inverted'],['U0361.bmp'],['female'],[],['male'],[[0]],[[0.14122948]],CR
279,[[3]],[[280]],[[1]],['low holistic'],['right'],['inverted'],['U0006.bmp'],['female'],[],['female'],[[1]],[[0.0001737]],CR
280,[[3]],[[281]],[[17]],['high holistic'],['right'],['inverted'],['U0346.bmp'],['male'],[],['female'],[[0]],[[0.08683539]],CR
281,[[3]],[[282]],[[1]],['low holistic'],['left'],['inverted'],['U0006.bmp'],['female'],[],['male'],[[0]],[[0.10689357]],CR
282,[[3]],[[283]],[[11]],['high holistic'],['fovea'],['upright'],['U0164.bmp'],['female'],[],['female'],[[1]],[[0.13370558]],CR
283,[[3]],[[284]],[[4]],['low holistic'],['right'],['upright'],['U0061.bmp'],['female'],[],['male'],[[0]],[[0.16015124]],CR
284,[[3]],[[285]],[[7]],['low holistic'],['left'],['inverted'],['U0107.bmp'],['female'],[],['female'],[[1]],[[0.05827231]],CR
285,[[3]],[[286]],[[9]],['high holistic'],['left'],['upright'],['U0155.bmp'],['female'],[],['female'],[[1]],[[0.7119416]],CR
286,[[3]],[[287]],[[17]],['high holistic'],['right'],['inverted'],['U0346.bmp'],['male'],[],['female'],[[0]],[[0.0001096]],CR
287,[[3]],[[288]],[[17]],['low holistic'],['left'],['inverted'],['U0346.bmp'],['female'],[],['female'],[[1]],[[0.05107365]],CR
288,[[3]],[[289]],[[4]],['high holistic'],['left'],['upright'],['U0061.bmp'],['female'],[],['female'],[[1]],[[0.32865765]],CR
289,[[3]],[[290]],[[1]],['high holistic'],['left'],['upright'],['U0006.bmp'],['female'],[],['female'],[[1]],[[0.00479609]],CR
290,[[3]],[[291]],[[1]],['high holistic'],['right'],['inverted'],['U0006.bmp'],['female'],[],['female'],[[1]],[[9.9378638e-05]],CR
291,[[3]],[[292]],[[7]],['high holistic'],['left'],['upright'],['U0107.bmp'],['female'],[],['female'],[[1]],[[0.0124401]],CR
292,[[3]],[[293]],[[8]],['low holistic'],['right'],['upright'],['U0137.bmp'],['male'],[],['male'],[[1]],[[0.04282646]],CR
293,[[3]],[[294]],[[17]],['low holistic'],['left'],['inverted'],['U0346.bmp'],['female'],[],['female'],[[1]],[[0.00147401]],CR
294,[[3]],[[295]],[[20]],['high holistic'],['left'],['upright'],['U0362.bmp'],['female'],[],['female'],[[1]],[[0.21056371]],CR
295,[[3]],[[296]],[[16]],['low holistic'],['right'],['inverted'],['U0335.bmp'],['female'],[],['male'],[[0]],[[0.29858296]],CR
296,[[3]],[[297]],[[13]],['low holistic'],['left'],['upright'],['U0181.bmp'],['male'],[],['male'],[[1]],[[0.14916516]],CR
297,[[3]],[[298]],[[16]],['low holistic'],['fovea'],['upright'],['U0335.bmp'],['female'],[],['female'],[[1]],[[0.00017563]],CR
298,[[3]],[[299]],[[10]],['high holistic'],['left'],['inverted'],['U0159.bmp'],['male'],[],['female'],[[0]],[[0.1125496]],CR
299,[[3]],[[300]],[[11]],['high holistic'],['left'],['inverted'],['U0164.bmp'],['female'],[],['female'],[[1]],[[0.02814297]],CR
300,[[3]],[[301]],[[6]],['low holistic'],['right'],['inverted'],['U0106.bmp'],['male'],[],['male'],[[1]],[[0.00014904]],CR
301,[[3]],[[302]],[[10]],['low holistic'],['right'],['inverted'],['U0159.bmp'],['female'],[],['female'],[[1]],[[0.14762711]],CR
302,[[3]],[[303]],[[18]],['low holistic'],['right'],['inverted'],['U0359.bmp'],['male'],[],['female'],[[0]],[[0.14949594]],CR
303,[[3]],[[304]],[[5]],['low holistic'],['right'],['upright'],['U0076.bmp'],['male'],[],['male'],[[1]],[[0.0004908]],CR
304,[[3]],[[305]],[[11]],['high holistic'],['right'],['upright'],['U0164.bmp'],['female'],[],['female'],[[1]],[[0.0229874]],CR
305,[[3]],[[306]],[[12]],['low holistic'],['left'],['upright'],['U0178.bmp'],['female'],[],['male'],[[0]],[[0.00010645]],CR
306,[[3]],[[307]],[[7]],['low holistic'],['fovea'],['inverted'],['U0107.bmp'],['female'],[],['female'],[[1]],[[0.04644262]],CR
307,[[3]],[[308]],[[3]],['high holistic'],['left'],['inverted'],['U0020.bmp'],['male'],[],['female'],[[0]],[[0.00010089]],CR
308,[[3]],[[309]],[[8]],['high holistic'],['left'],['upright'],['U0137.bmp'],['female'],[],['male'],[[0]],[[0.00025888]],CR
309,[[3]],[[310]],[[5]],['low holistic'],['fovea'],['upright'],['U0076.bmp'],['male'],[],['male'],[[1]],[[0.04303599]],CR
310,[[3]],[[311]],[[12]],['high holistic'],['right'],['inverted'],['U0178.bmp'],['male'],[],['female'],[[0]],[[0.00012177]],CR
311,[[3]],[[312]],[[6]],['low holistic'],['fovea'],['upright'],['U0106.bmp'],['male'],[],['male'],[[1]],[[0.13904367]],CR
312,[[3]],[[313]],[[4]],['high holistic'],['left'],['inverted'],['U0061.bmp'],['female'],[],['female'],[[1]],[[0.0001559]],CR
313,[[3]],[[314]],[[10]],['low holistic'],['right'],['inverted'],['U0159.bmp'],['female'],[],['female'],[[1]],[[3.16408366]],CR
314,[[3]],[[315]],[[5]],['low holistic'],['right'],['inverted'],['U0076.bmp'],['male'],[],['male'],[[1]],[[0.1251814]],CR
315,[[3]],[[316]],[[11]],['high holistic'],['left'],['inverted'],['U0164.bmp'],['female'],[],['female'],[[1]],[[0.74432942]],CR
316,[[3]],[[317]],[[2]],['low holistic'],['left'],['upright'],['U0014.bmp'],['male'],[],['male'],[[1]],[[0.2271235]],CR
317,[[3]],[[318]],[[10]],['low holistic'],['left'],['upright'],['U0159.bmp'],['female'],[],['female'],[[1]],[[0.10628114]],CR
318,[[3]],[[319]],[[20]],['high holistic'],['fovea'],['inverted'],['U0362.bmp'],['female'],[],['male'],[[0]],[[0.34290539]],CR
319,[[3]],[[320]],[[15]],['low holistic'],['right'],['inverted'],['U0312.bmp'],['male'],[],['male'],[[1]],[[1.08101728]],CR
320,[[3]],[[321]],[[11]],['high holistic'],['left'],['inverted'],['U0164.bmp'],['female'],[],['female'],[[1]],[[0.14134375]],CR
321,[[3]],[[322]],[[3]],['high holistic'],['fovea'],['upright'],['U0020.bmp'],['male'],[],['male'],[[1]],[[0.1346978]],CR
322,[[3]],[[323]],[[8]],['low holistic'],['right'],['inverted'],['U0137.bmp'],['male'],[],['female'],[[0]],[[0.12123449]],CR
323,[[3]],[[324]],[[2]],['high holistic'],['left'],['upright'],['U0014.bmp'],['male'],[],['female'],[[0]],[[0.0936937]],CR
324,[[3]],[[325]],[[14]],['low holistic'],['right'],['upright'],['U0228.bmp'],['male'],[],['male'],[[1]],[[0.0964482]],CR
325,[[3]],[[326]],[[11]],['high holistic'],['right'],['inverted'],['U0164.bmp'],['female'],[],['male'],[[0]],[[0.30874243]],CR
326,[[3]],[[327]],[[4]],['high holistic'],['right'],['inverted'],['U0061.bmp'],['female'],[],['female'],[[1]],[[0.54448945]],CR
327,[[3]],[[328]],[[9]],['high holistic'],['left'],['inverted'],['U0155.bmp'],['female'],[],['female'],[[1]],[[0.26778246]],CR
328,[[3]],[[329]],[[15]],['low holistic'],['right'],['upright'],['U0312.bmp'],['male'],[],['male'],[[1]],[[0.152477]],CR
329,[[3]],[[330]],[[9]],['low holistic'],['fovea'],['upright'],['U0155.bmp'],['male'],[],['male'],[[1]],[[0.02509617]],CR
330,[[3]],[[331]],[[17]],['low holistic'],['right'],['inverted'],['U0346.bmp'],['female'],[],['female'],[[1]],[[0.05855042]],CR
331,[[3]],[[332]],[[19]],['low holistic'],['right'],['upright'],['U0361.bmp'],['female'],[],['female'],[[1]],[[0.11831733]],CR
332,[[3]],[[333]],[[11]],['high holistic'],['right'],['inverted'],['U0164.bmp'],['female'],[],['female'],[[1]],[[1.01886148]],CR
333,[[3]],[[334]],[[9]],['low holistic'],['right'],['upright'],['U0155.bmp'],['male'],[],['male'],[[1]],[[0.01638008]],CR
334,[[3]],[[335]],[[4]],['low holistic'],['right'],['upright'],['U0061.bmp'],['female'],[],['female'],[[1]],[[0.06481307]],CR
335,[[3]],[[336]],[[12]],['low holistic'],['right'],['upright'],['U0178.bmp'],['female'],[],['female'],[[1]],[[0.58271463]],CR
336,[[3]],[[337]],[[9]],['high holistic'],['fovea'],['upright'],['U0155.bmp'],['female'],[],['male'],[[0]],[[0.06336556]],CR
337,[[3]],[[338]],[[2]],['high holistic'],['left'],['inverted'],['U0014.bmp'],['male'],[],['male'],[[1]],[[0.10851832]],CR
338,[[3]],[[339]],[[8]],['high holistic'],['left'],['upright'],['U0137.bmp'],['female'],[],['female'],[[1]],[[0.07122705]],CR
339,[[3]],[[340]],[[6]],['low holistic'],['right'],['inverted'],['U0106.bmp'],['male'],[],['female'],[[0]],[[0.83634443]],CR
340,[[3]],[[341]],[[8]],['high holistic'],['right'],['inverted'],['U0137.bmp'],['female'],[],['female'],[[1]],[[0.08406987]],CR
341,[[3]],[[342]],[[11]],['high holistic'],['fovea'],['inverted'],['U0164.bmp'],['female'],[],['female'],[[1]],[[0.13637125]],CR
342,[[3]],[[343]],[[16]],['high holistic'],['fovea'],['inverted'],['U0335.bmp'],['female'],[],['female'],[[1]],[[0.2672866]],CR
343,[[3]],[[344]],[[8]],['low holistic'],['left'],['upright'],['U0137.bmp'],['male'],[],['male'],[[1]],[[9.98163596e-05]],CR
344,[[3]],[[345]],[[20]],['high holistic'],['left'],['inverted'],['U0362.bmp'],['female'],[],['female'],[[1]],[[0.48965198]],CR
345,[[3]],[[346]],[[7]],['low holistic'],['right'],['inverted'],['U0107.bmp'],['female'],[],['female'],[[1]],[[0.18084787]],CR
346,[[3]],[[347]],[[7]],['high holistic'],['left'],['upright'],['U0107.bmp'],['female'],[],['male'],[[0]],[[0.11619502]],CR
347,[[3]],[[348]],[[16]],['low holistic'],['right'],['inverted'],['U0335.bmp'],['female'],[],['female'],[[1]],[[0.12825751]],CR
348,[[3]],[[349]],[[2]],['low holistic'],['left'],['inverted'],['U0014.bmp'],['male'],[],['male'],[[1]],[[0.18017837]],CR
349,[[3]],[[350]],[[5]],['high holistic'],['right'],['upright'],['U0076.bmp'],['female'],[],['female'],[[1]],[[0.2614607]],CR
350,[[3]],[[351]],[[6]],['low holistic'],['right'],['inverted'],['U0106.bmp'],['male'],[],['male'],[[1]],[[0.01817098]],CR
351,[[3]],[[352]],[[20]],['high holistic'],['left'],['upright'],['U0362.bmp'],['female'],[],['female'],[[1]],[[0.09008201]],CR
352,[[3]],[[353]],[[10]],['high holistic'],['left'],['upright'],['U0159.bmp'],['male'],[],['male'],[[1]],[[0.02124018]],CR
353,[[3]],[[354]],[[13]],['high holistic'],['right'],['upright'],['U0181.bmp'],['female'],[],['female'],[[1]],[[0.14892945]],CR
354,[[3]],[[355]],[[20]],['low holistic'],['left'],['inverted'],['U0362.bmp'],['male'],[],['female'],[[0]],[[1.05583187]],CR
355,[[3]],[[356]],[[14]],['high holistic'],['right'],['inverted'],['U0228.bmp'],['male'],[],['male'],[[1]],[[0.34838363]],CR
356,[[3]],[[357]],[[14]],['low holistic'],['right'],['upright'],['U0228.bmp'],['male'],[],['male'],[[1]],[[0.06257988]],CR
357,[[3]],[[358]],[[10]],['high holistic'],['left'],['inverted'],['U0159.bmp'],['male'],[],['female'],[[0]],[[0.02817288]],CR
358,[[3]],[[359]],[[13]],['high holistic'],['right'],['upright'],['U0181.bmp'],['female'],[],['male'],[[0]],[[1.01853796]],CR
359,[[3]],[[360]],[[2]],['high holistic'],['left'],['upright'],['U0014.bmp'],['male'],[],['female'],[[0]],[[0.00012318]],CR
360,[[3]],[[361]],[[18]],['low holistic'],['left'],['upright'],['U0359.bmp'],['male'],[],['male'],[[1]],[[1.00309265]],CR
361,[[3]],[[362]],[[8]],['low holistic'],['left'],['upright'],['U0137.bmp'],['male'],[],['male'],[[1]],[[0.28956157]],CR
362,[[3]],[[363]],[[20]],['low holistic'],['left'],['inverted'],['U0362.bmp'],['male'],[],['female'],[[0]],[[0.55908101]],CR
363,[[3]],[[364]],[[13]],['low holistic'],['right'],['inverted'],['U0181.bmp'],['male'],[],['male'],[[1]],[[1.52715708]],CR
364,[[3]],[[365]],[[7]],['low holistic'],['left'],['inverted'],['U0107.bmp'],['female'],[],['female'],[[1]],[[0.14625038]],CR
365,[[3]],[[366]],[[6]],['high holistic'],['right'],['inverted'],['U0106.bmp'],['female'],[],['female'],[[1]],[[0.10860461]],CR
366,[[3]],[[367]],[[18]],['low holistic'],['left'],['inverted'],['U0359.bmp'],['male'],[],['male'],[[1]],[[0.28124512]],CR
367,[[3]],[[368]],[[12]],['high holistic'],['right'],['upright'],['U0178.bmp'],['male'],[],['male'],[[1]],[[0.09266308]],CR
368,[[3]],[[369]],[[4]],['low holistic'],['right'],['upright'],['U0061.bmp'],['female'],[],['female'],[[1]],[[0.04996922]],CR
369,[[3]],[[370]],[[1]],['low holistic'],['right'],['inverted'],['U0006.bmp'],['female'],[],['male'],[[0]],[[0.15801768]],CR
370,[[3]],[[371]],[[20]],['low holistic'],['right'],['upright'],['U0362.bmp'],['male'],[],['male'],[[1]],[[0.0176194]],CR
371,[[3]],[[372]],[[11]],['low holistic'],['right'],['inverted'],['U0164.bmp'],['female'],[],['female'],[[1]],[[0.29719105]],CR
372,[[3]],[[373]],[[18]],['low holistic'],['left'],['upright'],['U0359.bmp'],['male'],[],['male'],[[1]],[[0.08451444]],CR
373,[[3]],[[374]],[[20]],['high holistic'],['left'],['upright'],['U0362.bmp'],['female'],[],['female'],[[1]],[[0.10561899]],CR
374,[[3]],[[375]],[[3]],['high holistic'],['right'],['inverted'],['U0020.bmp'],['male'],[],['female'],[[0]],[[1.82884337]],CR
375,[[3]],[[376]],[[4]],['low holistic'],['left'],['inverted'],['U0061.bmp'],['female'],[],['female'],[[1]],[[0.23459275]],CR
376,[[3]],[[377]],[[3]],['low holistic'],['right'],['upright'],['U0020.bmp'],['female'],[],['male'],[[0]],[[0.09688572]],CR
377,[[3]],[[378]],[[6]],['low holistic'],['left'],['upright'],['U0106.bmp'],['male'],[],['male'],[[1]],[[0.22129691]],CR
378,[[3]],[[379]],[[4]],['low holistic'],['left'],['inverted'],['U0061.bmp'],['female'],[],['female'],[[1]],[[0.20459439]],CR
379,[[3]],[[380]],[[5]],['high holistic'],['right'],['upright'],['U0076.bmp'],['female'],[],['female'],[[1]],[[0.41338081]],CR
380,[[3]],[[381]],[[6]],['high holistic'],['right'],['inverted'],['U0106.bmp'],['female'],[],['female'],[[1]],[[0.31604405]],CR
381,[[3]],[[382]],[[10]],['high holistic'],['right'],['upright'],['U0159.bmp'],['male'],[],['male'],[[1]],[[0.12664832]],CR
382,[[3]],[[383]],[[15]],['high holistic'],['right'],['inverted'],['U0312.bmp'],['male'],[],['female'],[[0]],[[0.26601768]],CR
383,[[3]],[[384]],[[6]],['high holistic'],['right'],['inverted'],['U0106.bmp'],['female'],[],['male'],[[0]],[[0.98468352]],CR
384,[[3]],[[385]],[[7]],['high holistic'],['right'],['inverted'],['U0107.bmp'],['female'],[],['female'],[[1]],[[0.0001077]],CR
385,[[3]],[[386]],[[8]],['high holistic'],['left'],['upright'],['U0137.bmp'],['female'],[],['male'],[[0]],[[0.00023147]],CR
386,[[3]],[[387]],[[13]],['low holistic'],['left'],['upright'],['U0181.bmp'],['male'],[],['female'],[[0]],[[0.00010021]],CR
387,[[3]],[[388]],[[2]],['low holistic'],['left'],['upright'],['U0014.bmp'],['male'],[],['female'],[[0]],[[0.20010891]],CR
388,[[3]],[[389]],[[16]],['high holistic'],['right'],['upright'],['U0335.bmp'],['female'],[],['male'],[[0]],[[0.14422536]],CR
389,[[3]],[[390]],[[11]],['high holistic'],['left'],['upright'],['U0164.bmp'],['female'],[],['female'],[[1]],[[0.06567547]],CR
390,[[3]],[[391]],[[15]],['low holistic'],['right'],['upright'],['U0312.bmp'],['male'],[],['male'],[[1]],[[0.09870121]],CR
391,[[3]],[[392]],[[10]],['high holistic'],['right'],['inverted'],['U0159.bmp'],['male'],[],['male'],[[1]],[[0.00016008]],CR
392,[[3]],[[393]],[[20]],['low holistic'],['left'],['upright'],['U0362.bmp'],['male'],[],['male'],[[1]],[[0.11761328]],CR
393,[[3]],[[394]],[[19]],['low holistic'],['left'],['inverted'],['U0361.bmp'],['female'],[],['female'],[[1]],[[0.18577077]],CR
394,[[3]],[[395]],[[11]],['low holistic'],['fovea'],['upright'],['U0164.bmp'],['female'],[],['male'],[[0]],[[0.08314686]],CR
395,[[3]],[[396]],[[11]],['low holistic'],['right'],['inverted'],['U0164.bmp'],['female'],[],['female'],[[1]],[[0.00017813]],CR
396,[[3]],[[397]],[[16]],['high holistic'],['right'],['inverted'],['U0335.bmp'],['female'],[],['male'],[[0]],[[0.0705903]],CR
397,[[3]],[[398]],[[6]],['low holistic'],['right'],['inverted'],['U0106.bmp'],['male'],[],['male'],[[1]],[[0.19621886]],CR
398,[[3]],[[399]],[[19]],['low holistic'],['left'],['inverted'],['U0361.bmp'],['female'],[],['female'],[[1]],[[0.11642121]],CR
399,[[3]],[[400]],[[2]],['low holistic'],['right'],['inverted'],['U0014.bmp'],['male'],[],['male'],[[1]],[[0.36747956]],CR
400,[[3]],[[401]],[[12]],['low holistic'],['left'],['inverted'],['U0178.bmp'],['female'],[],['female'],[[1]],[[0.15318869]],CR
401,[[3]],[[402]],[[6]],['high holistic'],['fovea'],['inverted'],['U0106.bmp'],['female'],[],['female'],[[1]],[[0.1217344]],CR
402,[[3]],[[403]],[[14]],['low holistic'],['left'],['upright'],['U0228.bmp'],['male'],[],['male'],[[1]],[[0.0147627]],CR
403,[[3]],[[404]],[[8]],['low holistic'],['right'],['upright'],['U0137.bmp'],['male'],[],['female'],[[0]],[[0.10908028]],CR
404,[[3]],[[405]],[[9]],['high holistic'],['right'],['upright'],['U0155.bmp'],['female'],[],['male'],[[0]],[[0.60832259]],CR
405,[[3]],[[406]],[[1]],['high holistic'],['right'],['inverted'],['U0006.bmp'],['female'],[],['female'],[[1]],[[0.35320294]],CR
406,[[3]],[[407]],[[11]],['low holistic'],['fovea'],['inverted'],['U0164.bmp'],['female'],[],['female'],[[1]],[[0.2035296]],CR
407,[[3]],[[408]],[[15]],['low holistic'],['left'],['inverted'],['U0312.bmp'],['male'],[],['male'],[[1]],[[0.19521866]],CR
408,[[3]],[[409]],[[11]],['high holistic'],['left'],['inverted'],['U0164.bmp'],['female'],[],['male'],[[0]],[[0.48940735]],CR
409,[[3]],[[410]],[[3]],['low holistic'],['right'],['inverted'],['U0020.bmp'],['female'],[],['female'],[[1]],[[0.078179]],CR
410,[[3]],[[411]],[[19]],['high holistic'],['right'],['upright'],['U0361.bmp'],['female'],[],['male'],[[0]],[[0.42725687]],CR
411,[[3]],[[412]],[[16]],['high holistic'],['left'],['upright'],['U0335.bmp'],['female'],[],['female'],[[1]],[[0.11516228]],CR
412,[[3]],[[413]],[[6]],['high holistic'],['left'],['upright'],['U0106.bmp'],['female'],[],['female'],[[1]],[[0.87925388]],CR
413,[[3]],[[414]],[[6]],['low holistic'],['left'],['upright'],['U0106.bmp'],['male'],[],['male'],[[1]],[[0.12301391]],CR
414,[[3]],[[415]],[[4]],['low holistic'],['left'],['upright'],['U0061.bmp'],['female'],[],['female'],[[1]],[[0.58201143]],CR
415,[[3]],[[416]],[[18]],['high holistic'],['right'],['upright'],['U0359.bmp'],['male'],[],['male'],[[1]],[[3.07808736]],CR
416,[[3]],[[417]],[[2]],['high holistic'],['right'],['upright'],['U0014.bmp'],['male'],[],['male'],[[1]],[[0.17989844]],CR
417,[[3]],[[418]],[[19]],['high holistic'],['right'],['upright'],['U0361.bmp'],['female'],[],['male'],[[0]],[[0.07482174]],CR
418,[[3]],[[419]],[[12]],['low holistic'],['right'],['inverted'],['U0178.bmp'],['female'],[],['female'],[[1]],[[0.83953462]],CR
419,[[3]],[[420]],[[17]],['high holistic'],['left'],['inverted'],['U0346.bmp'],['male'],[],['female'],[[0]],[[0.99120251]],CR
420,[[3]],[[421]],[[17]],['high holistic'],['left'],['upright'],['U0346.bmp'],['male'],[],['male'],[[1]],[[0.15983339]],CR
421,[[3]],[[422]],[[16]],['high holistic'],['right'],['inverted'],['U0335.bmp'],['female'],[],['female'],[[1]],[[1.12932663]],CR
422,[[3]],[[423]],[[20]],['high holistic'],['fovea'],['upright'],['U0362.bmp'],['female'],[],['female'],[[1]],[[0.25243715]],CR
423,[[3]],[[424]],[[16]],['high holistic'],['left'],['inverted'],['U0335.bmp'],['female'],[],['female'],[[1]],[[0.1454471]],CR
424,[[3]],[[425]],[[11]],['high holistic'],['right'],['upright'],['U0164.bmp'],['female'],[],['male'],[[0]],[[0.09966178]],CR
425,[[3]],[[426]],[[4]],['high holistic'],['left'],['inverted'],['U0061.bmp'],['female'],[],['female'],[[1]],[[0.6092035]],CR
426,[[3]],[[427]],[[5]],['low holistic'],['right'],['inverted'],['U0076.bmp'],['male'],[],['male'],[[1]],[[0.60892035]],CR
427,[[3]],[[428]],[[5]],['low holistic'],['right'],['upright'],['U0076.bmp'],['male'],[],['male'],[[1]],[[0.04650548]],CR
428,[[3]],[[429]],[[20]],['low holistic'],['right'],['inverted'],['U0362.bmp'],['male'],[],['female'],[[0]],[[0.06931168]],CR
429,[[3]],[[430]],[[18]],['low holistic'],['left'],['inverted'],['U0359.bmp'],['male'],[],['male'],[[1]],[[0.49961966]],CR
430,[[3]],[[431]],[[17]],['low holistic'],['right'],['inverted'],['U0346.bmp'],['female'],[],['female'],[[1]],[[0.19853576]],CR
431,[[3]],[[432]],[[11]],['low holistic'],['left'],['inverted'],['U0164.bmp'],['female'],[],['female'],[[1]],[[0.09375894]],CR
432,[[3]],[[433]],[[1]],['low holistic'],['left'],['upright'],['U0006.bmp'],['female'],[],['female'],[[1]],[[0.02677736]],CR
433,[[3]],[[434]],[[2]],['high holistic'],['left'],['upright'],['U0014.bmp'],['male'],[],['male'],[[1]],[[0.16885575]],CR
434,[[3]],[[435]],[[1]],['high holistic'],['right'],['inverted'],['U0006.bmp'],['female'],[],['female'],[[1]],[[2.21885989]],CR
435,[[3]],[[436]],[[10]],['high holistic'],['right'],['inverted'],['U0159.bmp'],['male'],[],['male'],[[1]],[[1.08977861]],CR
436,[[3]],[[437]],[[4]],['high holistic'],['left'],['inverted'],['U0061.bmp'],['female'],[],['female'],[[1]],[[0.48534022]],CR
437,[[3]],[[438]],[[16]],['low holistic'],['right'],['upright'],['U0335.bmp'],['female'],[],['female'],[[1]],[[0.01125104]],CR
438,[[3]],[[439]],[[1]],['high holistic'],['right'],['upright'],['U0006.bmp'],['female'],[],['female'],[[1]],[[0.09213853]],CR
439,[[3]],[[440]],[[7]],['low holistic'],['left'],['inverted'],['U0107.bmp'],['female'],[],['female'],[[1]],[[0.1820088]],CR
440,[[3]],[[441]],[[17]],['low holistic'],['right'],['inverted'],['U0346.bmp'],['female'],[],['male'],[[0]],[[0.97619558]],CR
441,[[3]],[[442]],[[5]],['low holistic'],['right'],['inverted'],['U0076.bmp'],['male'],[],['male'],[[1]],[[0.17637529]],CR
442,[[3]],[[443]],[[5]],['low holistic'],['fovea'],['upright'],['U0076.bmp'],['male'],[],['male'],[[1]],[[0.0403101]],CR
443,[[3]],[[444]],[[20]],['high holistic'],['left'],['inverted'],['U0362.bmp'],['female'],[],['female'],[[1]],[[0.296695]],CR
444,[[3]],[[445]],[[16]],['low holistic'],['fovea'],['upright'],['U0335.bmp'],['female'],[],['female'],[[1]],[[0.17153324]],CR
445,[[3]],[[446]],[[10]],['high holistic'],['left'],['upright'],['U0159.bmp'],['male'],[],['male'],[[1]],[[0.04557177]],CR
446,[[3]],[[447]],[[7]],['high holistic'],['left'],['upright'],['U0107.bmp'],['female'],[],['female'],[[1]],[[0.16999151]],CR
447,[[3]],[[448]],[[17]],['low holistic'],['left'],['inverted'],['U0346.bmp'],['female'],[],['female'],[[1]],[[0.07498804]],CR
448,[[3]],[[449]],[[10]],['low holistic'],['fovea'],['upright'],['U0159.bmp'],['female'],[],['female'],[[1]],[[0.03189935]],CR
449,[[3]],[[450]],[[19]],['low holistic'],['left'],['inverted'],['U0361.bmp'],['female'],[],['female'],[[1]],[[0.11234448]],CR
450,[[3]],[[451]],[[19]],['high holistic'],['right'],['inverted'],['U0361.bmp'],['female'],[],['male'],[[0]],[[0.41125749]],CR
451,[[3]],[[452]],[[20]],['high holistic'],['right'],['upright'],['U0362.bmp'],['female'],[],['female'],[[1]],[[0.13869929]],CR
452,[[3]],[[453]],[[18]],['high holistic'],['right'],['inverted'],['U0359.bmp'],['male'],[],['female'],[[0]],[[0.00010003]],CR
453,[[3]],[[454]],[[4]],['low holistic'],['right'],['upright'],['U0061.bmp'],['female'],[],['male'],[[0]],[[0.18153557]],CR
454,[[3]],[[455]],[[8]],['low holistic'],['right'],['inverted'],['U0137.bmp'],['male'],[],['female'],[[0]],[[0.00011853]],CR
455,[[3]],[[456]],[[20]],['low holistic'],['right'],['upright'],['U0362.bmp'],['male'],[],['female'],[[0]],[[0.00011255]],CR
456,[[3]],[[457]],[[20]],['high holistic'],['right'],['upright'],['U0362.bmp'],['female'],[],['female'],[[1]],[[0.11058243]],CR
457,[[3]],[[458]],[[5]],['high holistic'],['left'],['upright'],['U0076.bmp'],['female'],[],['female'],[[1]],[[0.15416348]],CR
458,[[3]],[[459]],[[5]],['high holistic'],['left'],['inverted'],['U0076.bmp'],['female'],[],['female'],[[1]],[[0.77966795]],CR
459,[[3]],[[460]],[[13]],['low holistic'],['left'],['inverted'],['U0181.bmp'],['male'],[],['male'],[[1]],[[0.27594736]],CR
460,[[3]],[[461]],[[4]],['high holistic'],['right'],['inverted'],['U0061.bmp'],['female'],[],['female'],[[1]],[[0.38511768]],CR
461,[[3]],[[462]],[[8]],['high holistic'],['left'],['inverted'],['U0137.bmp'],['female'],[],['female'],[[1]],[[0.41867549]],CR
462,[[3]],[[463]],[[12]],['low holistic'],['right'],['upright'],['U0178.bmp'],['female'],[],['female'],[[1]],[[0.18568095]],CR
463,[[3]],[[464]],[[4]],['high holistic'],['left'],['inverted'],['U0061.bmp'],['female'],[],['male'],[[0]],[[0.06605482]],CR
464,[[3]],[[465]],[[17]],['high holistic'],['left'],['upright'],['U0346.bmp'],['male'],[],['male'],[[1]],[[0.07010626]],CR
465,[[3]],[[466]],[[6]],['low holistic'],['right'],['upright'],['U0106.bmp'],['male'],[],['male'],[[1]],[[0.13273463]],CR
466,[[3]],[[467]],[[19]],['low holistic'],['left'],['inverted'],['U0361.bmp'],['female'],[],['male'],[[0]],[[0.00010735]],CR
467,[[3]],[[468]],[[18]],['high holistic'],['right'],['inverted'],['U0359.bmp'],['male'],[],['male'],[[1]],[[0.2547276]],CR
468,[[3]],[[469]],[[17]],['high holistic'],['left'],['upright'],['U0346.bmp'],['male'],[],['female'],[[0]],[[0.09236498]],CR
469,[[3]],[[470]],[[7]],['high holistic'],['left'],['upright'],['U0107.bmp'],['female'],[],['male'],[[0]],[[0.20076845]],CR
470,[[3]],[[471]],[[6]],['low holistic'],['right'],['upright'],['U0106.bmp'],['male'],[],['male'],[[1]],[[0.10450846]],CR
471,[[3]],[[472]],[[1]],['high holistic'],['left'],['inverted'],['U0006.bmp'],['female'],[],['female'],[[1]],[[1.49192821]],CR
472,[[3]],[[473]],[[11]],['low holistic'],['left'],['upright'],['U0164.bmp'],['female'],[],['female'],[[1]],[[0.2327937]],CR
473,[[3]],[[474]],[[3]],['high holistic'],['right'],['inverted'],['U0020.bmp'],['male'],[],['male'],[[1]],[[0.94299736]],CR
474,[[3]],[[475]],[[19]],['low holistic'],['right'],['upright'],['U0361.bmp'],['female'],[],['female'],[[1]],[[0.2427108]],CR
475,[[3]],[[476]],[[7]],['low holistic'],['right'],['upright'],['U0107.bmp'],['female'],[],['female'],[[1]],[[0.91168607]],CR
476,[[3]],[[477]],[[2]],['low holistic'],['right'],['inverted'],['U0014.bmp'],['male'],[],['male'],[[1]],[[0.28239796]],CR
477,[[3]],[[478]],[[19]],['high holistic'],['left'],['inverted'],['U0361.bmp'],['female'],[],['male'],[[0]],[[0.0002576]],CR
478,[[3]],[[479]],[[13]],['low holistic'],['left'],['upright'],['U0181.bmp'],['male'],[],['male'],[[1]],[[0.00010063]],CR
479,[[3]],[[480]],[[3]],['high holistic'],['right'],['upright'],['U0020.bmp'],['male'],[],['female'],[[0]],[[0.04830028]],CR
480,[[3]],[[481]],[[6]],['high holistic'],['right'],['upright'],['U0106.bmp'],['female'],[],['male'],[[0]],[[0.10174999]],CR
481,[[3]],[[482]],[[12]],['low holistic'],['left'],['upright'],['U0178.bmp'],['female'],[],['female'],[[1]],[[0.25774342]],CR
482,[[3]],[[483]],[[20]],['low holistic'],['left'],['upright'],['U0362.bmp'],['male'],[],['male'],[[1]],[[0.05617202]],CR
483,[[3]],[[484]],[[18]],['high holistic'],['right'],['upright'],['U0359.bmp'],['male'],[],['female'],[[0]],[[0.10820648]],CR
484,[[3]],[[485]],[[16]],['low holistic'],['left'],['inverted'],['U0335.bmp'],['female'],[],['male'],[[0]],[[0.00016327]],CR
485,[[3]],[[486]],[[2]],['high holistic'],['right'],['inverted'],['U0014.bmp'],['male'],[],['male'],[[1]],[[0.32795739]],CR
486,[[3]],[[487]],[[5]],['low holistic'],['right'],['inverted'],['U0076.bmp'],['male'],[],['male'],[[1]],[[0.3951543]],CR
487,[[3]],[[488]],[[6]],['low holistic'],['right'],['upright'],['U0106.bmp'],['male'],[],['male'],[[1]],[[0.28342773]],CR
488,[[3]],[[489]],[[12]],['low holistic'],['right'],['upright'],['U0178.bmp'],['female'],[],['female'],[[1]],[[0.00011062]],CR
489,[[3]],[[490]],[[18]],['high holistic'],['right'],['inverted'],['U0359.bmp'],['male'],[],['female'],[[0]],[[0.07956729]],CR
490,[[3]],[[491]],[[6]],['high holistic'],['right'],['upright'],['U0106.bmp'],['female'],[],['female'],[[1]],[[0.39709526]],CR
491,[[3]],[[492]],[[3]],['high holistic'],['left'],['upright'],['U0020.bmp'],['male'],[],['male'],[[1]],[[0.0822827]],CR
492,[[3]],[[493]],[[6]],['high holistic'],['left'],['upright'],['U0106.bmp'],['female'],[],['female'],[[1]],[[0.04000504]],CR
493,[[3]],[[494]],[[8]],['low holistic'],['fovea'],['inverted'],['U0137.bmp'],['male'],[],['male'],[[1]],[[0.34266313]],CR
494,[[3]],[[495]],[[4]],['low holistic'],['left'],['inverted'],['U0061.bmp'],['female'],[],['female'],[[1]],[[0.15234176]],CR
495,[[3]],[[496]],[[5]],['low holistic'],['left'],['inverted'],['U0076.bmp'],['male'],[],['male'],[[1]],[[1.7370849]],CR
496,[[3]],[[497]],[[3]],['low holistic'],['right'],['upright'],['U0020.bmp'],['female'],[],['female'],[[1]],[[1.9569542]],CR
497,[[3]],[[498]],[[1]],['high holistic'],['fovea'],['inverted'],['U0006.bmp'],['female'],[],['female'],[[1]],[[0.66195019]],CR
498,[[3]],[[499]],[[2]],['high holistic'],['fovea'],['upright'],['U0014.bmp'],['male'],[],['male'],[[1]],[[0.87567949]],CR
499,[[3]],[[500]],[[6]],['low holistic'],['right'],['upright'],['U0106.bmp'],['male'],[],['female'],[[0]],[[0.00013753]],CR
500,[[3]],[[501]],[[6]],['high holistic'],['fovea'],['upright'],['U0106.bmp'],['female'],[],['female'],[[1]],[[0.1424445]],CR
501,[[3]],[[502]],[[1]],['high holistic'],['left'],['upright'],['U0006.bmp'],['female'],[],['female'],[[1]],[[0.15414534]],CR
502,[[3]],[[503]],[[13]],['high holistic'],['right'],['inverted'],['U0181.bmp'],['female'],[],['female'],[[1]],[[0.29189551]],CR
503,[[3]],[[504]],[[8]],['low holistic'],['right'],['upright'],['U0137.bmp'],['male'],[],['male'],[[1]],[[0.24916555]],CR
504,[[3]],[[505]],[[9]],['low holistic'],['fovea'],['inverted'],['U0155.bmp'],['male'],[],['male'],[[1]],[[0.21408155]],CR
505,[[3]],[[506]],[[7]],['high holistic'],['right'],['upright'],['U0107.bmp'],['female'],[],['female'],[[1]],[[0.18110954]],CR
506,[[3]],[[507]],[[4]],['high holistic'],['left'],['upright'],['U0061.bmp'],['female'],[],['female'],[[1]],[[0.12668407]],CR
507,[[3]],[[508]],[[19]],['low holistic'],['right'],['inverted'],['U0361.bmp'],['female'],[],['female'],[[1]],[[1.03129016]],CR
508,[[3]],[[509]],[[1]],['low holistic'],['left'],['upright'],['U0006.bmp'],['female'],[],['female'],[[1]],[[0.85478629]],CR
509,[[3]],[[510]],[[4]],['high holistic'],['right'],['inverted'],['U0061.bmp'],['female'],[],['female'],[[1]],[[0.69327203]],CR
510,[[3]],[[511]],[[3]],['high holistic'],['right'],['inverted'],['U0020.bmp'],['male'],[],['female'],[[0]],[[0.2229259]],CR
511,[[3]],[[512]],[[4]],['low holistic'],['left'],['inverted'],['U0061.bmp'],['female'],[],['female'],[[1]],[[0.00010913]],CR
512,[[3]],[[513]],[[16]],['high holistic'],['fovea'],['inverted'],['U0335.bmp'],['female'],[],['male'],[[0]],[[0.12513095]],CR
513,[[3]],[[514]],[[2]],['high holistic'],['left'],['inverted'],['U0014.bmp'],['male'],[],['female'],[[0]],[[0.05586191]],CR
514,[[3]],[[515]],[[7]],['low holistic'],['left'],['inverted'],['U0107.bmp'],['female'],[],['female'],[[1]],[[0.08636636]],CR
515,[[3]],[[516]],[[5]],['low holistic'],['right'],['inverted'],['U0076.bmp'],['male'],[],['male'],[[1]],[[0.08191763]],CR
516,[[3]],[[517]],[[17]],['low holistic'],['right'],['inverted'],['U0346.bmp'],['female'],[],['female'],[[1]],[[0.191512]],CR
517,[[3]],[[518]],[[2]],['high holistic'],['right'],['upright'],['U0014.bmp'],['male'],[],['female'],[[0]],[[0.05580375]],CR
518,[[3]],[[519]],[[19]],['high holistic'],['left'],['inverted'],['U0361.bmp'],['female'],[],['female'],[[1]],[[0.35766405]],CR
519,[[3]],[[520]],[[11]],['high holistic'],['right'],['upright'],['U0164.bmp'],['female'],[],['female'],[[1]],[[0.48634001]],CR
520,[[3]],[[521]],[[1]],['high holistic'],['right'],['upright'],['U0006.bmp'],['female'],[],['female'],[[1]],[[0.38415309]],CR
521,[[3]],[[522]],[[17]],['high holistic'],['left'],['upright'],['U0346.bmp'],['male'],[],['male'],[[1]],[[2.73528497]],CR
522,[[3]],[[523]],[[10]],['low holistic'],['right'],['inverted'],['U0159.bmp'],['female'],[],['female'],[[1]],[[0.77811828]],CR
523,[[3]],[[524]],[[11]],['low holistic'],['left'],['upright'],['U0164.bmp'],['female'],[],['female'],[[1]],[[0.03329286]],CR
524,[[3]],[[525]],[[15]],['low holistic'],['right'],['inverted'],['U0312.bmp'],['male'],[],['male'],[[1]],[[0.28878723]],CR
525,[[3]],[[526]],[[2]],['low holistic'],['left'],['upright'],['U0014.bmp'],['male'],[],['male'],[[1]],[[0.31741107]],CR
526,[[3]],[[527]],[[1]],['high holistic'],['right'],['inverted'],['U0006.bmp'],['female'],[],['female'],[[1]],[[0.46286044]],CR
527,[[3]],[[528]],[[7]],['low holistic'],['right'],['upright'],['U0107.bmp'],['female'],[],['female'],[[1]],[[0.53310638]],CR
528,[[3]],[[529]],[[20]],['low holistic'],['right'],['upright'],['U0362.bmp'],['male'],[],['male'],[[1]],[[0.0303037]],CR
529,[[3]],[[530]],[[19]],['high holistic'],['right'],['inverted'],['U0361.bmp'],['female'],[],['female'],[[1]],[[0.00017783]],CR
530,[[3]],[[531]],[[2]],['low holistic'],['left'],['inverted'],['U0014.bmp'],['male'],[],['male'],[[1]],[[0.35671123]],CR
531,[[3]],[[532]],[[5]],['high holistic'],['left'],['inverted'],['U0076.bmp'],['female'],[],['male'],[[0]],[[0.10163722]],CR
532,[[3]],[[533]],[[4]],['low holistic'],['right'],['upright'],['U0061.bmp'],['female'],[],['female'],[[1]],[[0.26600379]],CR
533,[[3]],[[534]],[[19]],['low holistic'],['left'],['upright'],['U0361.bmp'],['female'],[],['female'],[[1]],[[0.00019457]],CR
534,[[3]],[[535]],[[3]],['low holistic'],['left'],['upright'],['U0020.bmp'],['female'],[],['female'],[[1]],[[0.00012166]],CR
535,[[3]],[[536]],[[2]],['high holistic'],['right'],['upright'],['U0014.bmp'],['male'],[],['male'],[[1]],[[0.15919756]],CR
536,[[3]],[[537]],[[2]],['high holistic'],['right'],['inverted'],['U0014.bmp'],['male'],[],['male'],[[1]],[[0.0002664]],CR
537,[[3]],[[538]],[[9]],['low holistic'],['right'],['upright'],['U0155.bmp'],['male'],[],['male'],[[1]],[[0.00011175]],CR
538,[[3]],[[539]],[[5]],['low holistic'],['left'],['inverted'],['U0076.bmp'],['male'],[],['female'],[[0]],[[0.39086898]],CR
539,[[3]],[[540]],[[11]],['high holistic'],['left'],['upright'],['U0164.bmp'],['female'],[],['female'],[[1]],[[0.15933922]],CR
540,[[3]],[[541]],[[10]],['high holistic'],['right'],['inverted'],['U0159.bmp'],['male'],[],['female'],[[0]],[[0.22331099]],CR
541,[[3]],[[542]],[[2]],['low holistic'],['right'],['upright'],['U0014.bmp'],['male'],[],['male'],[[1]],[[0.10304716]],CR
542,[[3]],[[543]],[[20]],['low holistic'],['right'],['upright'],['U0362.bmp'],['male'],[],['male'],[[1]],[[0.39554467]],CR
543,[[3]],[[544]],[[19]],['low holistic'],['fovea'],['inverted'],['U0361.bmp'],['female'],[],['female'],[[1]],[[0.20327552]],CR
544,[[3]],[[545]],[[1]],['low holistic'],['left'],['upright'],['U0006.bmp'],['female'],[],['male'],[[0]],[[0.29983386]],CR
545,[[3]],[[546]],[[4]],['high holistic'],['left'],['upright'],['U0061.bmp'],['female'],[],['female'],[[1]],[[0.12564948]],CR
546,[[3]],[[547]],[[14]],['high holistic'],['right'],['upright'],['U0228.bmp'],['male'],[],['male'],[[1]],[[0.07224277]],CR
547,[[3]],[[548]],[[2]],['high holistic'],['right'],['inverted'],['U0014.bmp'],['male'],[],['male'],[[1]],[[0.26941249]],CR
548,[[3]],[[549]],[[13]],['low holistic'],['right'],['upright'],['U0181.bmp'],['male'],[],['male'],[[1]],[[0.11467786]],CR
549,[[3]],[[550]],[[8]],['low holistic'],['right'],['upright'],['U0137.bmp'],['male'],[],['male'],[[1]],[[0.06241945]],CR
550,[[3]],[[551]],[[9]],['high holistic'],['left'],['upright'],['U0155.bmp'],['female'],[],['male'],[[0]],[[0.53915183]],CR
551,[[3]],[[552]],[[10]],['low holistic'],['left'],['upright'],['U0159.bmp'],['female'],[],['female'],[[1]],[[0.37251571]],CR
552,[[3]],[[553]],[[11]],['low holistic'],['right'],['inverted'],['U0164.bmp'],['female'],[],['female'],[[1]],[[0.18914975]],CR
553,[[3]],[[554]],[[20]],['high holistic'],['left'],['inverted'],['U0362.bmp'],['female'],[],['male'],[[0]],[[0.33287678]],CR
554,[[3]],[[555]],[[3]],['high holistic'],['left'],['upright'],['U0020.bmp'],['male'],[],['male'],[[1]],[[0.92869054]],CR
555,[[3]],[[556]],[[16]],['low holistic'],['left'],['inverted'],['U0335.bmp'],['female'],[],['female'],[[1]],[[0.61127359]],CR
556,[[3]],[[557]],[[7]],['high holistic'],['left'],['inverted'],['U0107.bmp'],['female'],[],['female'],[[1]],[[0.27348467]],CR
557,[[3]],[[558]],[[10]],['high holistic'],['left'],['upright'],['U0159.bmp'],['male'],[],['male'],[[1]],[[0.26989596]],CR
558,[[3]],[[559]],[[11]],['high holistic'],['left'],['inverted'],['U0164.bmp'],['female'],[],['female'],[[1]],[[0.5072146]],CR
559,[[3]],[[560]],[[18]],['low holistic'],['left'],['upright'],['U0359.bmp'],['male'],[],['male'],[[1]],[[0.16629153]],CR
560,[[3]],[[561]],[[16]],['low holistic'],['left'],['inverted'],['U0335.bmp'],['female'],[],['female'],[[1]],[[0.9044327]],CR
561,[[3]],[[562]],[[16]],['low holistic'],['fovea'],['inverted'],['U0335.bmp'],['female'],[],['female'],[[1]],[[0.0276405]],CR
562,[[3]],[[563]],[[18]],['low holistic'],['right'],['inverted'],['U0359.bmp'],['male'],[],['female'],[[0]],[[0.14655896]],CR
563,[[3]],[[564]],[[17]],['high holistic'],['right'],['inverted'],['U0346.bmp'],['male'],[],['male'],[[1]],[[0.03745426]],CR
564,[[3]],[[565]],[[8]],['high holistic'],['fovea'],['upright'],['U0137.bmp'],['female'],[],['female'],[[1]],[[0.15356642]],CR
565,[[3]],[[566]],[[5]],['high holistic'],['fovea'],['inverted'],['U0076.bmp'],['female'],[],['female'],[[1]],[[1.20422735]],CR
566,[[3]],[[567]],[[13]],['low holistic'],['left'],['inverted'],['U0181.bmp'],['male'],[],['male'],[[1]],[[0.25144154]],CR
567,[[3]],[[568]],[[19]],['high holistic'],['right'],['inverted'],['U0361.bmp'],['female'],[],['female'],[[1]],[[1.56898657]],CR
568,[[3]],[[569]],[[9]],['high holistic'],['left'],['upright'],['U0155.bmp'],['female'],[],['female'],[[1]],[[1.03306469]],CR
569,[[3]],[[570]],[[13]],['low holistic'],['right'],['inverted'],['U0181.bmp'],['male'],[],['male'],[[1]],[[0.18351877]],CR
570,[[3]],[[571]],[[20]],['low holistic'],['right'],['upright'],['U0362.bmp'],['male'],[],['female'],[[0]],[[0.14321417]],CR
571,[[3]],[[572]],[[14]],['high holistic'],['left'],['inverted'],['U0228.bmp'],['male'],[],['male'],[[1]],[[0.01058193]],CR
572,[[3]],[[573]],[[3]],['high holistic'],['right'],['inverted'],['U0020.bmp'],['male'],[],['female'],[[0]],[[0.02613217]],CR
573,[[3]],[[574]],[[9]],['low holistic'],['right'],['upright'],['U0155.bmp'],['male'],[],['male'],[[1]],[[0.75258961]],CR
574,[[3]],[[575]],[[17]],['high holistic'],['right'],['upright'],['U0346.bmp'],['male'],[],['male'],[[1]],[[0.20831612]],CR
575,[[3]],[[576]],[[2]],['low holistic'],['left'],['upright'],['U0014.bmp'],['male'],[],['female'],[[0]],[[0.00010732]],CR
576,[[3]],[[577]],[[13]],['low holistic'],['right'],['inverted'],['U0181.bmp'],['male'],[],['male'],[[1]],[[0.00019812]],CR
577,[[3]],[[578]],[[19]],['low holistic'],['left'],['upright'],['U0361.bmp'],['female'],[],['female'],[[1]],[[0.30371919]],CR
578,[[3]],[[579]],[[1]],['high holistic'],['right'],['inverted'],['U0006.bmp'],['female'],[],['female'],[[1]],[[0.08259641]],CR
579,[[3]],[[580]],[[5]],['high holistic'],['right'],['upright'],['U0076.bmp'],['female'],[],['female'],[[1]],[[0.08049045]],CR
580,[[3]],[[581]],[[17]],['high holistic'],['right'],['upright'],['U0346.bmp'],['male'],[],['female'],[[0]],[[0.12473504]],CR
581,[[3]],[[582]],[[13]],['low holistic'],['right'],['upright'],['U0181.bmp'],['male'],[],['female'],[[0]],[[0.01489519]],CR
582,[[3]],[[583]],[[1]],['low holistic'],['left'],['upright'],['U0006.bmp'],['female'],[],['male'],[[0]],[[0.0001137]],CR
583,[[3]],[[584]],[[1]],['high holistic'],['left'],['inverted'],['U0006.bmp'],['female'],[],['female'],[[1]],[[0.04290389]],CR
584,[[3]],[[585]],[[4]],['high holistic'],['right'],['inverted'],['U0061.bmp'],['female'],[],['female'],[[1]],[[0.22569553]],CR
585,[[3]],[[586]],[[1]],['high holistic'],['right'],['upright'],['U0006.bmp'],['female'],[],['male'],[[0]],[[0.00039753]],CR
586,[[3]],[[587]],[[4]],['low holistic'],['right'],['inverted'],['U0061.bmp'],['female'],[],['female'],[[1]],[[0.27262442]],CR
587,[[3]],[[588]],[[20]],['low holistic'],['right'],['inverted'],['U0362.bmp'],['male'],[],['female'],[[0]],[[0.33353498]],CR
588,[[3]],[[589]],[[10]],['low holistic'],['left'],['inverted'],['U0159.bmp'],['female'],[],['male'],[[0]],[[0.01430486]],CR
589,[[3]],[[590]],[[9]],['high holistic'],['right'],['inverted'],['U0155.bmp'],['female'],[],['female'],[[1]],[[0.00010203]],CR
590,[[3]],[[591]],[[13]],['high holistic'],['right'],['upright'],['U0181.bmp'],['female'],[],['female'],[[1]],[[8.0461734]],CR
591,[[3]],[[592]],[[10]],['high holistic'],['left'],['upright'],['U0159.bmp'],['male'],[],['male'],[[1]],[[1.71446651]],CR
592,[[3]],[[593]],[[3]],['low holistic'],['right'],['upright'],['U0020.bmp'],['female'],[],['female'],[[1]],[[0.03916651]],CR
593,[[3]],[[594]],[[11]],['high holistic'],['left'],['inverted'],['U0164.bmp'],['female'],[],['female'],[[1]],[[0.53154049]],CR
594,[[3]],[[595]],[[9]],['high holistic'],['fovea'],['upright'],['U0155.bmp'],['female'],[],['female'],[[1]],[[0.45373473]],CR
595,[[3]],[[596]],[[20]],['low holistic'],['right'],['upright'],['U0362.bmp'],['male'],[],['male'],[[1]],[[0.04366979]],CR
596,[[3]],[[597]],[[4]],['low holistic'],['fovea'],['upright'],['U0061.bmp'],['female'],[],['female'],[[1]],[[0.00013751]],CR
597,[[3]],[[598]],[[18]],['low holistic'],['right'],['upright'],['U0359.bmp'],['male'],[],['female'],[[0]],[[0.79332314]],CR
598,[[3]],[[599]],[[15]],['low holistic'],['left'],['upright'],['U0312.bmp'],['male'],[],['male'],[[1]],[[0.09824728]],CR
599,[[3]],[[600]],[[12]],['high holistic'],['right'],['inverted'],['U0178.bmp'],['male'],[],['female'],[[0]],[[0.140921]],CR
600,[[3]],[[601]],[[16]],['low holistic'],['left'],['inverted'],['U0335.bmp'],['female'],[],['female'],[[1]],[[0.22383617]],CR
601,[[3]],[[602]],[[17]],['low holistic'],['left'],['upright'],['U0346.bmp'],['female'],[],['female'],[[1]],[[0.07069898]],CR
602,[[3]],[[603]],[[13]],['low holistic'],['right'],['upright'],['U0181.bmp'],['male'],[],['male'],[[1]],[[0.08294705]],CR
603,[[3]],[[604]],[[11]],['low holistic'],['left'],['inverted'],['U0164.bmp'],['female'],[],['female'],[[1]],[[0.0475662]],CR
604,[[3]],[[605]],[[12]],['low holistic'],['fovea'],['upright'],['U0178.bmp'],['female'],[],['female'],[[1]],[[0.06089557]],CR
605,[[3]],[[606]],[[7]],['low holistic'],['left'],['inverted'],['U0107.bmp'],['female'],[],['male'],[[0]],[[0.02533998]],CR
606,[[3]],[[607]],[[18]],['low holistic'],['left'],['inverted'],['U0359.bmp'],['male'],[],['male'],[[1]],[[0.40226381]],CR
607,[[3]],[[608]],[[5]],['low holistic'],['right'],['inverted'],['U0076.bmp'],['male'],[],['male'],[[1]],[[0.24028671]],CR
608,[[3]],[[609]],[[12]],['high holistic'],['left'],['upright'],['U0178.bmp'],['male'],[],['female'],[[0]],[[0.86327753]],CR
609,[[3]],[[610]],[[6]],['high holistic'],['left'],['inverted'],['U0106.bmp'],['female'],[],['male'],[[0]],[[0.46817945]],CR
610,[[3]],[[611]],[[6]],['low holistic'],['right'],['upright'],['U0106.bmp'],['male'],[],['male'],[[1]],[[0.16190652]],CR
611,[[3]],[[612]],[[2]],['low holistic'],['right'],['upright'],['U0014.bmp'],['male'],[],['male'],[[1]],[[0.0001025]],CR
612,[[3]],[[613]],[[5]],['high holistic'],['right'],['inverted'],['U0076.bmp'],['female'],[],['male'],[[0]],[[0.0112256]],CR
613,[[3]],[[614]],[[20]],['high holistic'],['left'],['upright'],['U0362.bmp'],['female'],[],['female'],[[1]],[[9.99178737e-05]],CR
614,[[3]],[[615]],[[2]],['low holistic'],['left'],['inverted'],['U0014.bmp'],['male'],[],['female'],[[0]],[[0.0001002]],CR
615,[[3]],[[616]],[[2]],['low holistic'],['right'],['upright'],['U0014.bmp'],['male'],[],['male'],[[1]],[[0.09548983]],CR
616,[[3]],[[617]],[[19]],['high holistic'],['left'],['upright'],['U0361.bmp'],['female'],[],['male'],[[0]],[[0.11702942]],CR
617,[[3]],[[618]],[[15]],['high holistic'],['left'],['upright'],['U0312.bmp'],['male'],[],['male'],[[1]],[[0.15900007]],CR
618,[[3]],[[619]],[[5]],['low holistic'],['left'],['upright'],['U0076.bmp'],['male'],[],['male'],[[1]],[[0.18369527]],CR
619,[[3]],[[620]],[[2]],['low holistic'],['left'],['upright'],['U0014.bmp'],['male'],[],['male'],[[1]],[[0.05618662]],CR
620,[[3]],[[621]],[[17]],['low holistic'],['right'],['upright'],['U0346.bmp'],['female'],[],['female'],[[1]],[[0.07814155]],CR
621,[[3]],[[622]],[[5]],['high holistic'],['right'],['inverted'],['U0076.bmp'],['female'],[],['male'],[[0]],[[0.10676938]],CR
622,[[3]],[[623]],[[2]],['high holistic'],['left'],['inverted'],['U0014.bmp'],['male'],[],['male'],[[1]],[[0.33396583]],CR
623,[[3]],[[624]],[[4]],['low holistic'],['right'],['inverted'],['U0061.bmp'],['female'],[],['female'],[[1]],[[0.04029052]],CR
624,[[3]],[[625]],[[15]],['high holistic'],['right'],['upright'],['U0312.bmp'],['male'],[],['male'],[[1]],[[0.39075164]],CR
625,[[3]],[[626]],[[12]],['high holistic'],['left'],['inverted'],['U0178.bmp'],['male'],[],['male'],[[1]],[[0.15154854]],CR
626,[[3]],[[627]],[[15]],['low holistic'],['left'],['inverted'],['U0312.bmp'],['male'],[],['male'],[[1]],[[0.23150761]],CR
627,[[3]],[[628]],[[13]],['low holistic'],['left'],['upright'],['U0181.bmp'],['male'],[],['male'],[[1]],[[0.000119]],CR
628,[[3]],[[629]],[[19]],['high holistic'],['fovea'],['upright'],['U0361.bmp'],['female'],[],['female'],[[1]],[[0.0709954]],CR
629,[[3]],[[630]],[[1]],['high holistic'],['left'],['inverted'],['U0006.bmp'],['female'],[],['male'],[[0]],[[0.10826758]],CR
630,[[3]],[[631]],[[15]],['high holistic'],['left'],['upright'],['U0312.bmp'],['male'],[],['female'],[[0]],[[0.00011312]],CR
631,[[3]],[[632]],[[2]],['high holistic'],['right'],['inverted'],['U0014.bmp'],['male'],[],['male'],[[1]],[[0.10219286]],CR
632,[[3]],[[633]],[[4]],['low holistic'],['left'],['upright'],['U0061.bmp'],['female'],[],['female'],[[1]],[[0.16286191]],CR
633,[[3]],[[634]],[[16]],['low holistic'],['left'],['upright'],['U0335.bmp'],['female'],[],['male'],[[0]],[[0.15614794]],CR
634,[[3]],[[635]],[[20]],['low holistic'],['left'],['upright'],['U0362.bmp'],['male'],[],['male'],[[1]],[[0.01939177]],CR
635,[[3]],[[636]],[[10]],['high holistic'],['left'],['upright'],['U0159.bmp'],['male'],[],['female'],[[0]],[[0.00045695]],CR
636,[[3]],[[637]],[[13]],['high holistic'],['left'],['inverted'],['U0181.bmp'],['female'],[],['male'],[[0]],[[0.15437131]],CR
637,[[3]],[[638]],[[18]],['low holistic'],['left'],['inverted'],['U0359.bmp'],['male'],[],['male'],[[1]],[[0.50180563]],CR
638,[[3]],[[639]],[[4]],['high holistic'],['fovea'],['upright'],['U0061.bmp'],['female'],[],['female'],[[1]],[[0.13505147]],CR
639,[[3]],[[640]],[[13]],['high holistic'],['left'],['inverted'],['U0181.bmp'],['female'],[],['female'],[[1]],[[0.21006612]],CR
640,[[3]],[[641]],[[19]],['high holistic'],['left'],['upright'],['U0361.bmp'],['female'],[],['male'],[[0]],[[0.05851356]],CR
641,[[3]],[[642]],[[4]],['high holistic'],['right'],['upright'],['U0061.bmp'],['female'],[],['male'],[[0]],[[0.00050649]],CR
642,[[3]],[[643]],[[3]],['high holistic'],['left'],['upright'],['U0020.bmp'],['male'],[],['female'],[[0]],[[0.00018649]],CR
643,[[3]],[[644]],[[4]],['low holistic'],['left'],['inverted'],['U0061.bmp'],['female'],[],['male'],[[0]],[[0.0697057]],CR
644,[[3]],[[645]],[[12]],['low holistic'],['left'],['upright'],['U0178.bmp'],['female'],[],['female'],[[1]],[[0.08421697]],CR
645,[[3]],[[646]],[[19]],['high holistic'],['right'],['upright'],['U0361.bmp'],['female'],[],['female'],[[1]],[[0.41643791]],CR
646,[[3]],[[647]],[[4]],['high holistic'],['left'],['upright'],['U0061.bmp'],['female'],[],['female'],[[1]],[[1.31027469]],CR
647,[[3]],[[648]],[[4]],['high holistic'],['left'],['inverted'],['U0061.bmp'],['female'],[],['female'],[[1]],[[0.31460362]],CR
648,[[3]],[[649]],[[18]],['low holistic'],['left'],['upright'],['U0359.bmp'],['male'],[],['male'],[[1]],[[0.3405262]],CR
649,[[3]],[[650]],[[3]],['low holistic'],['right'],['inverted'],['U0020.bmp'],['female'],[],['female'],[[1]],[[0.20627717]],CR
650,[[3]],[[651]],[[11]],['low holistic'],['right'],['upright'],['U0164.bmp'],['female'],[],['female'],[[1]],[[0.8294804]],CR
651,[[3]],[[652]],[[9]],['high holistic'],['left'],['upright'],['U0155.bmp'],['female'],[],['female'],[[1]],[[0.56483465]],CR
652,[[3]],[[653]],[[4]],['low holistic'],['left'],['upright'],['U0061.bmp'],['female'],[],['male'],[[0]],[[1.18953867]],CR
653,[[3]],[[654]],[[8]],['high holistic'],['right'],['upright'],['U0137.bmp'],['female'],[],['female'],[[1]],[[0.29278798]],CR
654,[[3]],[[655]],[[6]],['high holistic'],['left'],['inverted'],['U0106.bmp'],['female'],[],['female'],[[1]],[[0.32959018]],CR
655,[[3]],[[656]],[[6]],['high holistic'],['right'],['inverted'],['U0106.bmp'],['female'],[],['female'],[[1]],[[0.21298091]],CR
656,[[3]],[[657]],[[4]],['high holistic'],['right'],['upright'],['U0061.bmp'],['female'],[],['female'],[[1]],[[0.19565855]],CR
657,[[3]],[[658]],[[9]],['high holistic'],['right'],['upright'],['U0155.bmp'],['female'],[],['female'],[[1]],[[0.16297376]],CR
658,[[3]],[[659]],[[16]],['low holistic'],['right'],['inverted'],['U0335.bmp'],['female'],[],['female'],[[1]],[[0.61163749]],CR
659,[[3]],[[660]],[[14]],['low holistic'],['left'],['upright'],['U0228.bmp'],['male'],[],['female'],[[0]],[[0.00489932]],CR
660,[[3]],[[661]],[[5]],['low holistic'],['left'],['upright'],['U0076.bmp'],['male'],[],['male'],[[1]],[[0.0995713]],CR
661,[[3]],[[662]],[[2]],['low holistic'],['left'],['inverted'],['U0014.bmp'],['male'],[],['male'],[[1]],[[0.15104538]],CR
662,[[3]],[[663]],[[9]],['high holistic'],['left'],['inverted'],['U0155.bmp'],['female'],[],['female'],[[1]],[[0.01006647]],CR
663,[[3]],[[664]],[[18]],['high holistic'],['left'],['upright'],['U0359.bmp'],['male'],[],['male'],[[1]],[[0.36686039]],CR
664,[[3]],[[665]],[[2]],['low holistic'],['left'],['upright'],['U0014.bmp'],['male'],[],['male'],[[1]],[[0.01647899]],CR
665,[[3]],[[666]],[[2]],['high holistic'],['right'],['inverted'],['U0014.bmp'],['male'],[],['female'],[[0]],[[0.12829349]],CR
666,[[3]],[[667]],[[9]],['low holistic'],['left'],['upright'],['U0155.bmp'],['male'],[],['male'],[[1]],[[0.09798525]],CR
667,[[3]],[[668]],[[4]],['high holistic'],['left'],['upright'],['U0061.bmp'],['female'],[],['female'],[[1]],[[0.19787595]],CR
668,[[3]],[[669]],[[13]],['high holistic'],['fovea'],['inverted'],['U0181.bmp'],['female'],[],['female'],[[1]],[[0.18968945]],CR
669,[[3]],[[670]],[[4]],['high holistic'],['fovea'],['inverted'],['U0061.bmp'],['female'],[],['female'],[[1]],[[0.1590939]],CR
670,[[3]],[[671]],[[15]],['low holistic'],['left'],['inverted'],['U0312.bmp'],['male'],[],['female'],[[0]],[[0.18453602]],CR
671,[[3]],[[672]],[[20]],['high holistic'],['right'],['inverted'],['U0362.bmp'],['female'],[],['male'],[[0]],[[0.00010735]],CR
672,[[3]],[[673]],[[1]],['low holistic'],['left'],['upright'],['U0006.bmp'],['female'],[],['female'],[[1]],[[0.11214755]],CR
673,[[3]],[[674]],[[15]],['low holistic'],['right'],['upright'],['U0312.bmp'],['male'],[],['male'],[[1]],[[0.16998073]],CR
674,[[3]],[[675]],[[2]],['low holistic'],['left'],['upright'],['U0014.bmp'],['male'],[],['male'],[[1]],[[0.18646797]],CR
675,[[3]],[[676]],[[9]],['high holistic'],['right'],['inverted'],['U0155.bmp'],['female'],[],['male'],[[0]],[[0.62834679]],CR
676,[[3]],[[677]],[[18]],['low holistic'],['right'],['inverted'],['U0359.bmp'],['male'],[],['female'],[[0]],[[0.20990067]],CR
677,[[3]],[[678]],[[19]],['high holistic'],['left'],['upright'],['U0361.bmp'],['female'],[],['female'],[[1]],[[0.1451609]],CR
678,[[3]],[[679]],[[17]],['low holistic'],['left'],['upright'],['U0346.bmp'],['female'],[],['female'],[[1]],[[0.00294026]],CR
679,[[3]],[[680]],[[16]],['high holistic'],['right'],['upright'],['U0335.bmp'],['female'],[],['male'],[[0]],[[0.03578412]],CR
680,[[3]],[[681]],[[7]],['high holistic'],['left'],['upright'],['U0107.bmp'],['female'],[],['male'],[[0]],[[0.08812116]],CR
681,[[3]],[[682]],[[19]],['high holistic'],['right'],['inverted'],['U0361.bmp'],['female'],[],['male'],[[0]],[[0.00013147]],CR
682,[[3]],[[683]],[[4]],['high holistic'],['right'],['upright'],['U0061.bmp'],['female'],[],['female'],[[1]],[[0.2126146]],CR
683,[[3]],[[684]],[[1]],['high holistic'],['right'],['inverted'],['U0006.bmp'],['female'],[],['female'],[[1]],[[0.08538198]],CR
684,[[3]],[[685]],[[19]],['low holistic'],['right'],['upright'],['U0361.bmp'],['female'],[],['female'],[[1]],[[0.14501013]],CR
685,[[3]],[[686]],[[11]],['high holistic'],['fovea'],['upright'],['U0164.bmp'],['female'],[],['female'],[[1]],[[0.01126668]],CR
686,[[3]],[[687]],[[20]],['high holistic'],['right'],['inverted'],['U0362.bmp'],['female'],[],['male'],[[0]],[[0.44338439]],CR
687,[[3]],[[688]],[[8]],['low holistic'],['right'],['upright'],['U0137.bmp'],['male'],[],['male'],[[1]],[[0.2633379]],CR
688,[[3]],[[689]],[[17]],['high holistic'],['right'],['inverted'],['U0346.bmp'],['male'],[],['male'],[[1]],[[0.15599811]],CR
689,[[3]],[[690]],[[2]],['high holistic'],['left'],['upright'],['U0014.bmp'],['male'],[],['female'],[[0]],[[0.00035916]],CR
690,[[3]],[[691]],[[7]],['low holistic'],['fovea'],['upright'],['U0107.bmp'],['female'],[],['female'],[[1]],[[0.55091186]],CR
691,[[3]],[[692]],[[14]],['high holistic'],['left'],['inverted'],['U0228.bmp'],['male'],[],['male'],[[1]],[[0.52781259]],CR
692,[[3]],[[693]],[[20]],['low holistic'],['left'],['inverted'],['U0362.bmp'],['male'],[],['female'],[[0]],[[0.13029493]],CR
693,[[3]],[[694]],[[5]],['low holistic'],['right'],['upright'],['U0076.bmp'],['male'],[],['male'],[[1]],[[0.00010549]],CR
694,[[3]],[[695]],[[19]],['low holistic'],['right'],['inverted'],['U0361.bmp'],['female'],[],['female'],[[1]],[[0.21234754]],CR
695,[[3]],[[696]],[[2]],['low holistic'],['right'],['upright'],['U0014.bmp'],['male'],[],['male'],[[1]],[[0.10628633]],CR
696,[[3]],[[697]],[[7]],['high holistic'],['left'],['upright'],['U0107.bmp'],['female'],[],['female'],[[1]],[[0.66989549]],CR
697,[[3]],[[698]],[[1]],['low holistic'],['right'],['upright'],['U0006.bmp'],['female'],[],['male'],[[0]],[[0.05174362]],CR
698,[[3]],[[699]],[[18]],['low holistic'],['right'],['inverted'],['U0359.bmp'],['male'],[],['female'],[[0]],[[1.63391691]],CR
699,[[3]],[[700]],[[5]],['high holistic'],['left'],['upright'],['U0076.bmp'],['female'],[],['female'],[[1]],[[0.18436744]],CR
700,[[3]],[[701]],[[4]],['low holistic'],['left'],['upright'],['U0061.bmp'],['female'],[],['female'],[[1]],[[0.37667614]],CR
701,[[3]],[[702]],[[9]],['low holistic'],['right'],['inverted'],['U0155.bmp'],['male'],[],['female'],[[0]],[[0.00015973]],CR
702,[[3]],[[703]],[[19]],['low holistic'],['left'],['inverted'],['U0361.bmp'],['female'],[],['female'],[[1]],[[0.00010501]],CR
703,[[3]],[[704]],[[17]],['high holistic'],['left'],['upright'],['U0346.bmp'],['male'],[],['male'],[[1]],[[0.15980621]],CR
704,[[3]],[[705]],[[16]],['high holistic'],['right'],['inverted'],['U0335.bmp'],['female'],[],['female'],[[1]],[[0.23370713]],CR
705,[[3]],[[706]],[[8]],['high holistic'],['right'],['inverted'],['U0137.bmp'],['female'],[],['female'],[[1]],[[1.28077123]],CR
706,[[3]],[[707]],[[9]],['low holistic'],['right'],['upright'],['U0155.bmp'],['male'],[],['male'],[[1]],[[0.22782094]],CR
707,[[3]],[[708]],[[15]],['low holistic'],['right'],['inverted'],['U0312.bmp'],['male'],[],['male'],[[1]],[[0.16980518]],CR
708,[[3]],[[709]],[[6]],['high holistic'],['left'],['inverted'],['U0106.bmp'],['female'],[],['male'],[[0]],[[0.34726378]],CR
709,[[3]],[[710]],[[11]],['high holistic'],['left'],['inverted'],['U0164.bmp'],['female'],[],['female'],[[1]],[[0.09403151]],CR
710,[[3]],[[711]],[[1]],['low holistic'],['left'],['inverted'],['U0006.bmp'],['female'],[],['female'],[[1]],[[0.32192376]],CR
711,[[3]],[[712]],[[7]],['low holistic'],['left'],['upright'],['U0107.bmp'],['female'],[],['female'],[[1]],[[0.02000799]],CR
712,[[3]],[[713]],[[4]],['high holistic'],['right'],['inverted'],['U0061.bmp'],['female'],[],['female'],[[1]],[[0.21881948]],CR
713,[[3]],[[714]],[[16]],['low holistic'],['left'],['inverted'],['U0335.bmp'],['female'],[],['female'],[[1]],[[0.22676389]],CR
714,[[3]],[[715]],[[18]],['high holistic'],['left'],['inverted'],['U0359.bmp'],['male'],[],['female'],[[0]],[[0.00029841]],CR
715,[[3]],[[716]],[[19]],['low holistic'],['left'],['upright'],['U0361.bmp'],['female'],[],['female'],[[1]],[[0.01717978]],CR
716,[[3]],[[717]],[[6]],['high holistic'],['right'],['upright'],['U0106.bmp'],['female'],[],['female'],[[1]],[[0.3437783]],CR
717,[[3]],[[718]],[[20]],['high holistic'],['left'],['inverted'],['U0362.bmp'],['female'],[],['male'],[[0]],[[0.01688238]],CR
718,[[3]],[[719]],[[3]],['low holistic'],['left'],['inverted'],['U0020.bmp'],['female'],[],['female'],[[1]],[[0.12767938]],CR
719,[[3]],[[720]],[[3]],['high holistic'],['right'],['inverted'],['U0020.bmp'],['male'],[],['female'],[[0]],[[0.05829766]],CR
720,[[3]],[[721]],[[10]],['low holistic'],['left'],['upright'],['U0159.bmp'],['female'],[],['female'],[[1]],[[0.07092516]],CR
721,[[3]],[[722]],[[13]],['low holistic'],['fovea'],['inverted'],['U0181.bmp'],['male'],[],['male'],[[1]],[[0.29254407]],CR
722,[[3]],[[723]],[[8]],['high holistic'],['right'],['upright'],['U0137.bmp'],['female'],[],['female'],[[1]],[[0.15220963]],CR
723,[[3]],[[724]],[[19]],['low holistic'],['left'],['upright'],['U0361.bmp'],['female'],[],['female'],[[1]],[[0.05788126]],CR
724,[[3]],[[725]],[[14]],['low holistic'],['left'],['upright'],['U0228.bmp'],['male'],[],['female'],[[0]],[[0.02297216]],CR
725,[[3]],[[726]],[[14]],['low holistic'],['left'],['upright'],['U0228.bmp'],['male'],[],['female'],[[0]],[[0.00018172]],CR
726,[[3]],[[727]],[[17]],['high holistic'],['right'],['upright'],['U0346.bmp'],['male'],[],['male'],[[1]],[[0.10970356]],CR
727,[[3]],[[728]],[[6]],['low holistic'],['left'],['inverted'],['U0106.bmp'],['male'],[],['female'],[[0]],[[0.00033514]],CR
728,[[3]],[[729]],[[4]],['low holistic'],['fovea'],['upright'],['U0061.bmp'],['female'],[],['female'],[[1]],[[0.00010032]],CR
729,[[3]],[[730]],[[3]],['high holistic'],['right'],['inverted'],['U0020.bmp'],['male'],[],['female'],[[0]],[[0.00010874]],CR
730,[[3]],[[731]],[[11]],['high holistic'],['left'],['inverted'],['U0164.bmp'],['female'],[],['female'],[[1]],[[9.83756036e-05]],CR
731,[[3]],[[732]],[[1]],['low holistic'],['right'],['upright'],['U0006.bmp'],['female'],[],['female'],[[1]],[[0.00060151]],CR
732,[[3]],[[733]],[[5]],['high holistic'],['right'],['upright'],['U0076.bmp'],['female'],[],['female'],[[1]],[[0.10305633]],CR
733,[[3]],[[734]],[[1]],['low holistic'],['left'],['upright'],['U0006.bmp'],['female'],[],['female'],[[1]],[[0.00045648]],CR
734,[[3]],[[735]],[[5]],['high holistic'],['left'],['upright'],['U0076.bmp'],['female'],[],['female'],[[1]],[[0.01734116]],CR
735,[[3]],[[736]],[[13]],['high holistic'],['left'],['upright'],['U0181.bmp'],['female'],[],['female'],[[1]],[[0.09844193]],CR
736,[[3]],[[737]],[[18]],['high holistic'],['right'],['upright'],['U0359.bmp'],['male'],[],['male'],[[1]],[[0.21280032]],CR
737,[[3]],[[738]],[[12]],['high holistic'],['right'],['upright'],['U0178.bmp'],['male'],[],['male'],[[1]],[[0.00016492]],CR
738,[[3]],[[739]],[[9]],['high holistic'],['right'],['upright'],['U0155.bmp'],['female'],[],['female'],[[1]],[[2.83661844]],CR
739,[[3]],[[740]],[[6]],['high holistic'],['right'],['upright'],['U0106.bmp'],['female'],[],['female'],[[1]],[[0.48331846]],CR
740,[[3]],[[741]],[[20]],['high holistic'],['right'],['upright'],['U0362.bmp'],['female'],[],['female'],[[1]],[[0.57508792]],CR
741,[[3]],[[742]],[[10]],['high holistic'],['right'],['upright'],['U0159.bmp'],['male'],[],['female'],[[0]],[[0.15072087]],CR
742,[[3]],[[743]],[[15]],['high holistic'],['left'],['inverted'],['U0312.bmp'],['male'],[],['male'],[[1]],[[0.29848474]],CR
743,[[3]],[[744]],[[11]],['high holistic'],['right'],['upright'],['U0164.bmp'],['female'],[],['female'],[[1]],[[0.11461925]],CR
744,[[3]],[[745]],[[2]],['low holistic'],['right'],['inverted'],['U0014.bmp'],['male'],[],['female'],[[0]],[[0.00010671]],CR
745,[[3]],[[746]],[[6]],['high holistic'],['right'],['upright'],['U0106.bmp'],['female'],[],['female'],[[1]],[[0.00033453]],CR
746,[[3]],[[747]],[[13]],['low holistic'],['right'],['upright'],['U0181.bmp'],['male'],[],['female'],[[0]],[[0.00012575]],CR
747,[[3]],[[748]],[[1]],['low holistic'],['left'],['inverted'],['U0006.bmp'],['female'],[],['female'],[[1]],[[0.06238904]],CR
748,[[3]],[[749]],[[18]],['low holistic'],['right'],['upright'],['U0359.bmp'],['male'],[],['female'],[[0]],[[0.00010562]],CR
749,[[3]],[[750]],[[12]],['low holistic'],['right'],['inverted'],['U0178.bmp'],['female'],[],['female'],[[1]],[[0.03676078]],CR
750,[[3]],[[751]],[[19]],['low holistic'],['right'],['upright'],['U0361.bmp'],['female'],[],['female'],[[1]],[[2.01038284]],CR
751,[[3]],[[752]],[[1]],['low holistic'],['left'],['upright'],['U0006.bmp'],['female'],[],['female'],[[1]],[[0.00057071]],CR
752,[[3]],[[753]],[[16]],['high holistic'],['left'],['inverted'],['U0335.bmp'],['female'],[],['female'],[[1]],[[0.16832825]],CR
753,[[3]],[[754]],[[16]],['high holistic'],['right'],['inverted'],['U0335.bmp'],['female'],[],['female'],[[1]],[[0.13864393]],CR
754,[[3]],[[755]],[[6]],['high holistic'],['right'],['inverted'],['U0106.bmp'],['female'],[],['female'],[[1]],[[0.14022447]],CR
755,[[3]],[[756]],[[11]],['high holistic'],['left'],['upright'],['U0164.bmp'],['female'],[],['female'],[[1]],[[0.26298457]],CR
756,[[3]],[[757]],[[11]],['low holistic'],['left'],['inverted'],['U0164.bmp'],['female'],[],['female'],[[1]],[[0.06812174]],CR
757,[[3]],[[758]],[[20]],['low holistic'],['left'],['inverted'],['U0362.bmp'],['male'],[],['female'],[[0]],[[0.08735825]],CR
758,[[3]],[[759]],[[15]],['high holistic'],['right'],['inverted'],['U0312.bmp'],['male'],[],['female'],[[0]],[[0.00010056]],CR
759,[[3]],[[760]],[[18]],['high holistic'],['right'],['inverted'],['U0359.bmp'],['male'],[],['male'],[[1]],[[0.00019079]],CR
760,[[3]],[[761]],[[16]],['low holistic'],['right'],['upright'],['U0335.bmp'],['female'],[],['female'],[[1]],[[0.13879118]],CR
761,[[3]],[[762]],[[15]],['low holistic'],['left'],['inverted'],['U0312.bmp'],['male'],[],['male'],[[1]],[[0.21225087]],CR
762,[[3]],[[763]],[[7]],['high holistic'],['right'],['inverted'],['U0107.bmp'],['female'],[],['male'],[[0]],[[0.20551914]],CR
763,[[3]],[[764]],[[14]],['low holistic'],['left'],['inverted'],['U0228.bmp'],['male'],[],['male'],[[1]],[[0.25213017]],CR
764,[[3]],[[765]],[[1]],['low holistic'],['fovea'],['inverted'],['U0006.bmp'],['female'],[],['male'],[[0]],[[0.0023377]],CR
765,[[3]],[[766]],[[8]],['high holistic'],['right'],['upright'],['U0137.bmp'],['female'],[],['female'],[[1]],[[0.10586184]],CR
766,[[3]],[[767]],[[12]],['low holistic'],['right'],['inverted'],['U0178.bmp'],['female'],[],['female'],[[1]],[[0.00038858]],CR
767,[[3]],[[768]],[[14]],['low holistic'],['fovea'],['upright'],['U0228.bmp'],['male'],[],['female'],[[0]],[[0.01162815]],CR
768,[[3]],[[769]],[[10]],['low holistic'],['right'],['inverted'],['U0159.bmp'],['female'],[],['female'],[[1]],[[0.00010005]],CR
769,[[3]],[[770]],[[16]],['low holistic'],['left'],['upright'],['U0335.bmp'],['female'],[],['male'],[[0]],[[0.0001071]],CR
770,[[3]],[[771]],[[15]],['high holistic'],['right'],['inverted'],['U0312.bmp'],['male'],[],['male'],[[1]],[[0.17027289]],CR
771,[[3]],[[772]],[[8]],['low holistic'],['right'],['inverted'],['U0137.bmp'],['male'],[],['female'],[[0]],[[0.77267003]],CR
772,[[3]],[[773]],[[7]],['low holistic'],['fovea'],['inverted'],['U0107.bmp'],['female'],[],['female'],[[1]],[[0.12500713]],CR
773,[[3]],[[774]],[[14]],['low holistic'],['right'],['inverted'],['U0228.bmp'],['male'],[],['male'],[[1]],[[0.15961399]],CR
774,[[3]],[[775]],[[9]],['low holistic'],['left'],['inverted'],['U0155.bmp'],['male'],[],['male'],[[1]],[[0.44779646]],CR
775,[[3]],[[776]],[[19]],['low holistic'],['right'],['inverted'],['U0361.bmp'],['female'],[],['female'],[[1]],[[0.61454007]],CR
776,[[3]],[[777]],[[2]],['low holistic'],['left'],['inverted'],['U0014.bmp'],['male'],[],['male'],[[1]],[[0.20561211]],CR
777,[[3]],[[778]],[[4]],['high holistic'],['right'],['inverted'],['U0061.bmp'],['female'],[],['female'],[[1]],[[9.90806147e-05]],CR
778,[[3]],[[779]],[[13]],['low holistic'],['fovea'],['upright'],['U0181.bmp'],['male'],[],['female'],[[0]],[[6.38055569]],CR
779,[[3]],[[780]],[[5]],['high holistic'],['right'],['upright'],['U0076.bmp'],['female'],[],['female'],[[1]],[[0.02758483]],CR
780,[[3]],[[781]],[[12]],['high holistic'],['right'],['inverted'],['U0178.bmp'],['male'],[],['male'],[[1]],[[1.06494747]],CR
781,[[3]],[[782]],[[20]],['low holistic'],['right'],['inverted'],['U0362.bmp'],['male'],[],['male'],[[1]],[[0.28443852]],CR
782,[[3]],[[783]],[[9]],['low holistic'],['left'],['inverted'],['U0155.bmp'],['male'],[],['female'],[[0]],[[0.23928986]],CR
783,[[3]],[[784]],[[16]],['low holistic'],['left'],['upright'],['U0335.bmp'],['female'],[],['female'],[[1]],[[0.06333245]],CR
784,[[3]],[[785]],[[9]],['high holistic'],['fovea'],['inverted'],['U0155.bmp'],['female'],[],['female'],[[1]],[[0.0294053]],CR
785,[[3]],[[786]],[[15]],['low holistic'],['right'],['upright'],['U0312.bmp'],['male'],[],['male'],[[1]],[[0.10820324]],CR
786,[[3]],[[787]],[[3]],['low holistic'],['right'],['upright'],['U0020.bmp'],['female'],[],['female'],[[1]],[[0.08642347]],CR
787,[[3]],[[788]],[[10]],['high holistic'],['left'],['upright'],['U0159.bmp'],['male'],[],['male'],[[1]],[[0.06733306]],CR
788,[[3]],[[789]],[[7]],['low holistic'],['right'],['inverted'],['U0107.bmp'],['female'],[],['female'],[[1]],[[0.15915746]],CR
789,[[3]],[[790]],[[2]],['high holistic'],['left'],['inverted'],['U0014.bmp'],['male'],[],['male'],[[1]],[[0.07217015]],CR
790,[[3]],[[791]],[[10]],['low holistic'],['left'],['inverted'],['U0159.bmp'],['female'],[],['female'],[[1]],[[0.08575328]],CR
791,[[3]],[[792]],[[5]],['low holistic'],['left'],['inverted'],['U0076.bmp'],['male'],[],['male'],[[1]],[[0.08115315]],CR
792,[[3]],[[793]],[[1]],['low holistic'],['right'],['inverted'],['U0006.bmp'],['female'],[],['female'],[[1]],[[0.09449653]],CR
793,[[3]],[[794]],[[4]],['high holistic'],['left'],['upright'],['U0061.bmp'],['female'],[],['female'],[[1]],[[0.19484617]],CR
794,[[3]],[[795]],[[14]],['low holistic'],['left'],['upright'],['U0228.bmp'],['male'],[],['male'],[[1]],[[0.16258847]],CR
795,[[3]],[[796]],[[11]],['high holistic'],['left'],['inverted'],['U0164.bmp'],['female'],[],['female'],[[1]],[[0.10798588]],CR
796,[[3]],[[797]],[[17]],['high holistic'],['right'],['upright'],['U0346.bmp'],['male'],[],['female'],[[0]],[[0.26288443]],CR
797,[[3]],[[798]],[[6]],['low holistic'],['left'],['inverted'],['U0106.bmp'],['male'],[],['female'],[[0]],[[0.2596442]],CR
