,SUBID,TRIAL,MOONEYID,MOONEYCATEGORY,LOC,COND,MOONEY_NAME,MOONEY_GENDER,ECCENTRICITY,RESPONSE,ACCURACY,RT,SUBINIT
0,[[11]],[[1]],[[13]],['low holistic'],['left'],['inverted'],['U0181.bmp'],['male'],[[4]],['male'],[[1]],[[1.25293625]],CW
1,[[11]],[[2]],[[14]],['low holistic'],['right'],['upright'],['U0228.bmp'],['male'],[[4]],['male'],[[1]],[[0.31146077]],CW
2,[[11]],[[3]],[[5]],['low holistic'],['left'],['upright'],['U0076.bmp'],['male'],[[6]],['male'],[[1]],[[0.31544875]],CW
3,[[11]],[[4]],[[8]],['high holistic'],['left'],['inverted'],['U0137.bmp'],['female'],[[12]],['female'],[[1]],[[1.46466546]],CW
4,[[11]],[[5]],[[19]],['high holistic'],['right'],['upright'],['U0361.bmp'],['female'],[[12]],['male'],[[0]],[[1.74165479]],CW
5,[[11]],[[6]],[[17]],['high holistic'],['right'],['upright'],['U0346.bmp'],['male'],[[4]],['male'],[[1]],[[0.32121624]],CW
6,[[11]],[[7]],[[9]],['high holistic'],['right'],['upright'],['U0155.bmp'],['female'],[[8]],['female'],[[1]],[[0.57223872]],CW
7,[[11]],[[8]],[[12]],['low holistic'],['fovea'],['inverted'],['U0178.bmp'],['female'],[[0]],['female'],[[1]],[[0.36616624]],CW
8,[[11]],[[9]],[[14]],['low holistic'],['left'],['inverted'],['U0228.bmp'],['male'],[[10]],['male'],[[1]],[[0.42869735]],CW
9,[[11]],[[10]],[[4]],['high holistic'],['left'],['upright'],['U0061.bmp'],['female'],[[2]],['female'],[[1]],[[0.23809035]],CW
10,[[11]],[[11]],[[6]],['low holistic'],['left'],['inverted'],['U0106.bmp'],['male'],[[10]],['female'],[[0]],[[1.41866632]],CW
11,[[11]],[[12]],[[10]],['high holistic'],['left'],['upright'],['U0159.bmp'],['male'],[[10]],['male'],[[1]],[[0.53961357]],CW
12,[[11]],[[13]],[[3]],['high holistic'],['right'],['inverted'],['U0020.bmp'],['male'],[[10]],['male'],[[1]],[[0.31901921]],CW
13,[[11]],[[14]],[[8]],['high holistic'],['right'],['upright'],['U0137.bmp'],['female'],[[8]],['female'],[[1]],[[0.29821375]],CW
14,[[11]],[[15]],[[2]],['low holistic'],['right'],['inverted'],['U0014.bmp'],['male'],[[10]],['male'],[[1]],[[0.66984171]],CW
15,[[11]],[[16]],[[18]],['high holistic'],['left'],['inverted'],['U0359.bmp'],['male'],[[12]],['male'],[[1]],[[0.8242605]],CW
16,[[11]],[[17]],[[10]],['low holistic'],['left'],['upright'],['U0159.bmp'],['female'],[[8]],['female'],[[1]],[[0.25746437]],CW
17,[[11]],[[18]],[[20]],['high holistic'],['right'],['inverted'],['U0362.bmp'],['female'],[[10]],['male'],[[0]],[[1.1778629]],CW
18,[[11]],[[19]],[[18]],['high holistic'],['left'],['inverted'],['U0359.bmp'],['male'],[[2]],['male'],[[1]],[[0.5219472]],CW
19,[[11]],[[20]],[[1]],['high holistic'],['right'],['upright'],['U0006.bmp'],['female'],[[8]],['female'],[[1]],[[0.50861397]],CW
20,[[11]],[[21]],[[19]],['high holistic'],['right'],['upright'],['U0361.bmp'],['female'],[[6]],['male'],[[0]],[[0.42409221]],CW
21,[[11]],[[22]],[[9]],['low holistic'],['right'],['upright'],['U0155.bmp'],['male'],[[10]],['male'],[[1]],[[0.93449623]],CW
22,[[11]],[[23]],[[9]],['low holistic'],['right'],['inverted'],['U0155.bmp'],['male'],[[12]],['male'],[[1]],[[0.77887159]],CW
23,[[11]],[[24]],[[1]],['low holistic'],['left'],['upright'],['U0006.bmp'],['female'],[[10]],['male'],[[0]],[[0.59443232]],CW
24,[[11]],[[25]],[[2]],['low holistic'],['left'],['inverted'],['U0014.bmp'],['male'],[[12]],['male'],[[1]],[[0.6931325]],CW
25,[[11]],[[26]],[[4]],['low holistic'],['right'],['upright'],['U0061.bmp'],['female'],[[10]],['female'],[[1]],[[0.56907456]],CW
26,[[11]],[[27]],[[15]],['low holistic'],['right'],['upright'],['U0312.bmp'],['male'],[[4]],['male'],[[1]],[[0.32165206]],CW
27,[[11]],[[28]],[[15]],['low holistic'],['left'],['upright'],['U0312.bmp'],['male'],[[2]],['male'],[[1]],[[0.59684212]],CW
28,[[11]],[[29]],[[4]],['high holistic'],['right'],['upright'],['U0061.bmp'],['female'],[[10]],['female'],[[1]],[[0.2706225]],CW
29,[[11]],[[30]],[[12]],['low holistic'],['left'],['upright'],['U0178.bmp'],['female'],[[12]],['female'],[[1]],[[0.28245616]],CW
30,[[11]],[[31]],[[7]],['low holistic'],['left'],['inverted'],['U0107.bmp'],['female'],[[2]],['female'],[[1]],[[0.1830901]],CW
31,[[11]],[[32]],[[11]],['high holistic'],['left'],['inverted'],['U0164.bmp'],['female'],[[10]],['female'],[[1]],[[0.2411441]],CW
32,[[11]],[[33]],[[17]],['high holistic'],['right'],['upright'],['U0346.bmp'],['male'],[[4]],['male'],[[1]],[[0.18392621]],CW
33,[[11]],[[34]],[[20]],['low holistic'],['left'],['upright'],['U0362.bmp'],['male'],[[10]],['male'],[[1]],[[1.72083853]],CW
34,[[11]],[[35]],[[10]],['low holistic'],['fovea'],['inverted'],['U0159.bmp'],['female'],[[0]],['female'],[[1]],[[0.28216778]],CW
35,[[11]],[[36]],[[10]],['low holistic'],['right'],['upright'],['U0159.bmp'],['female'],[[4]],['female'],[[1]],[[0.12762062]],CW
36,[[11]],[[37]],[[15]],['high holistic'],['left'],['upright'],['U0312.bmp'],['male'],[[6]],['male'],[[1]],[[0.44366936]],CW
37,[[11]],[[38]],[[5]],['high holistic'],['right'],['inverted'],['U0076.bmp'],['female'],[[4]],['male'],[[0]],[[0.58488348]],CW
38,[[11]],[[39]],[[18]],['high holistic'],['right'],['inverted'],['U0359.bmp'],['male'],[[6]],['male'],[[1]],[[0.44982741]],CW
39,[[11]],[[40]],[[19]],['low holistic'],['right'],['inverted'],['U0361.bmp'],['female'],[[8]],['female'],[[1]],[[0.29650816]],CW
40,[[11]],[[41]],[[7]],['low holistic'],['right'],['inverted'],['U0107.bmp'],['female'],[[2]],['female'],[[1]],[[0.24362436]],CW
41,[[11]],[[42]],[[15]],['high holistic'],['left'],['inverted'],['U0312.bmp'],['male'],[[8]],['male'],[[1]],[[0.32205124]],CW
42,[[11]],[[43]],[[13]],['high holistic'],['left'],['inverted'],['U0181.bmp'],['female'],[[4]],['male'],[[0]],[[0.28476432]],CW
43,[[11]],[[44]],[[16]],['low holistic'],['right'],['inverted'],['U0335.bmp'],['female'],[[4]],['female'],[[1]],[[0.6993687]],CW
44,[[11]],[[45]],[[20]],['low holistic'],['right'],['upright'],['U0362.bmp'],['male'],[[8]],['male'],[[1]],[[0.72591017]],CW
45,[[11]],[[46]],[[8]],['high holistic'],['fovea'],['upright'],['U0137.bmp'],['female'],[[0]],['female'],[[1]],[[0.23325579]],CW
46,[[11]],[[47]],[[5]],['high holistic'],['right'],['inverted'],['U0076.bmp'],['female'],[[8]],['male'],[[0]],[[0.58439395]],CW
47,[[11]],[[48]],[[3]],['low holistic'],['right'],['upright'],['U0020.bmp'],['female'],[[8]],['female'],[[1]],[[0.08865678]],CW
48,[[11]],[[49]],[[4]],['high holistic'],['left'],['inverted'],['U0061.bmp'],['female'],[[8]],['female'],[[1]],[[1.00583093]],CW
49,[[11]],[[50]],[[15]],['low holistic'],['left'],['inverted'],['U0312.bmp'],['male'],[[4]],['male'],[[1]],[[0.20610725]],CW
50,[[11]],[[51]],[[11]],['high holistic'],['right'],['upright'],['U0164.bmp'],['female'],[[12]],['male'],[[0]],[[0.3750532]],CW
51,[[11]],[[52]],[[2]],['high holistic'],['fovea'],['upright'],['U0014.bmp'],['male'],[[0]],['male'],[[1]],[[0.23802856]],CW
52,[[11]],[[53]],[[3]],['low holistic'],['fovea'],['inverted'],['U0020.bmp'],['female'],[[0]],['female'],[[1]],[[0.18946093]],CW
53,[[11]],[[54]],[[10]],['high holistic'],['right'],['inverted'],['U0159.bmp'],['male'],[[8]],['female'],[[0]],[[0.72734129]],CW
54,[[11]],[[55]],[[7]],['high holistic'],['left'],['upright'],['U0107.bmp'],['female'],[[2]],['female'],[[1]],[[0.20873717]],CW
55,[[11]],[[56]],[[14]],['high holistic'],['right'],['inverted'],['U0228.bmp'],['male'],[[12]],['female'],[[0]],[[0.72874053]],CW
56,[[11]],[[57]],[[12]],['high holistic'],['left'],['inverted'],['U0178.bmp'],['male'],[[8]],['female'],[[0]],[[0.34026657]],CW
57,[[11]],[[58]],[[17]],['high holistic'],['left'],['upright'],['U0346.bmp'],['male'],[[12]],['female'],[[0]],[[0.71033843]],CW
58,[[11]],[[59]],[[17]],['low holistic'],['right'],['upright'],['U0346.bmp'],['female'],[[4]],['female'],[[1]],[[0.17722051]],CW
59,[[11]],[[60]],[[3]],['low holistic'],['right'],['upright'],['U0020.bmp'],['female'],[[10]],['female'],[[1]],[[0.40089006]],CW
60,[[11]],[[61]],[[20]],['low holistic'],['left'],['upright'],['U0362.bmp'],['male'],[[4]],['male'],[[1]],[[0.13914238]],CW
61,[[11]],[[62]],[[4]],['high holistic'],['left'],['inverted'],['U0061.bmp'],['female'],[[4]],['female'],[[1]],[[0.25326039]],CW
62,[[11]],[[63]],[[13]],['high holistic'],['right'],['inverted'],['U0181.bmp'],['female'],[[2]],['female'],[[1]],[[0.33033836]],CW
63,[[11]],[[64]],[[2]],['low holistic'],['left'],['inverted'],['U0014.bmp'],['male'],[[2]],['male'],[[1]],[[1.09450891]],CW
64,[[11]],[[65]],[[9]],['high holistic'],['fovea'],['inverted'],['U0155.bmp'],['female'],[[0]],['male'],[[0]],[[0.48166]],CW
65,[[11]],[[66]],[[2]],['low holistic'],['right'],['upright'],['U0014.bmp'],['male'],[[6]],['male'],[[1]],[[0.18215658]],CW
66,[[11]],[[67]],[[14]],['low holistic'],['right'],['upright'],['U0228.bmp'],['male'],[[12]],['male'],[[1]],[[0.19851837]],CW
67,[[11]],[[68]],[[6]],['high holistic'],['left'],['inverted'],['U0106.bmp'],['female'],[[6]],['female'],[[1]],[[0.24705106]],CW
68,[[11]],[[69]],[[3]],['low holistic'],['right'],['inverted'],['U0020.bmp'],['female'],[[10]],['female'],[[1]],[[0.02848738]],CW
69,[[11]],[[70]],[[1]],['low holistic'],['left'],['inverted'],['U0006.bmp'],['female'],[[10]],['female'],[[1]],[[0.28273913]],CW
70,[[11]],[[71]],[[14]],['low holistic'],['left'],['inverted'],['U0228.bmp'],['male'],[[2]],['male'],[[1]],[[0.24238539]],CW
71,[[11]],[[72]],[[17]],['low holistic'],['right'],['upright'],['U0346.bmp'],['female'],[[10]],['male'],[[0]],[[0.38483761]],CW
72,[[11]],[[73]],[[20]],['low holistic'],['left'],['inverted'],['U0362.bmp'],['male'],[[4]],['male'],[[1]],[[0.41598801]],CW
73,[[11]],[[74]],[[4]],['high holistic'],['left'],['upright'],['U0061.bmp'],['female'],[[6]],['female'],[[1]],[[0.1985204]],CW
74,[[11]],[[75]],[[17]],['high holistic'],['right'],['inverted'],['U0346.bmp'],['male'],[[2]],['male'],[[1]],[[0.47151118]],CW
75,[[11]],[[76]],[[14]],['high holistic'],['left'],['upright'],['U0228.bmp'],['male'],[[2]],['male'],[[1]],[[0.31621796]],CW
76,[[11]],[[77]],[[19]],['low holistic'],['left'],['inverted'],['U0361.bmp'],['female'],[[12]],['male'],[[0]],[[0.75149936]],CW
77,[[11]],[[78]],[[19]],['low holistic'],['left'],['upright'],['U0361.bmp'],['female'],[[4]],['female'],[[1]],[[1.4493208]],CW
78,[[11]],[[79]],[[11]],['high holistic'],['left'],['upright'],['U0164.bmp'],['female'],[[12]],['male'],[[0]],[[0.4248178]],CW
79,[[11]],[[80]],[[8]],['high holistic'],['right'],['inverted'],['U0137.bmp'],['female'],[[2]],['female'],[[1]],[[0.17570753]],CW
80,[[11]],[[81]],[[14]],['low holistic'],['left'],['upright'],['U0228.bmp'],['male'],[[8]],['male'],[[1]],[[0.23207074]],CW
81,[[11]],[[82]],[[17]],['low holistic'],['right'],['upright'],['U0346.bmp'],['female'],[[8]],['female'],[[1]],[[0.5183486]],CW
82,[[11]],[[83]],[[2]],['high holistic'],['left'],['inverted'],['U0014.bmp'],['male'],[[4]],['male'],[[1]],[[1.51257923]],CW
83,[[11]],[[84]],[[16]],['high holistic'],['left'],['upright'],['U0335.bmp'],['female'],[[12]],['male'],[[0]],[[0.21421936]],CW
84,[[11]],[[85]],[[3]],['high holistic'],['left'],['inverted'],['U0020.bmp'],['male'],[[4]],['female'],[[0]],[[0.31577125]],CW
85,[[11]],[[86]],[[9]],['high holistic'],['fovea'],['upright'],['U0155.bmp'],['female'],[[0]],['male'],[[0]],[[0.47165645]],CW
86,[[11]],[[87]],[[9]],['low holistic'],['left'],['upright'],['U0155.bmp'],['male'],[[4]],['male'],[[1]],[[0.26778942]],CW
87,[[11]],[[88]],[[4]],['high holistic'],['left'],['inverted'],['U0061.bmp'],['female'],[[6]],['male'],[[0]],[[0.80330645]],CW
88,[[11]],[[89]],[[3]],['low holistic'],['left'],['inverted'],['U0020.bmp'],['female'],[[8]],['female'],[[1]],[[0.17799458]],CW
89,[[11]],[[90]],[[5]],['low holistic'],['right'],['upright'],['U0076.bmp'],['male'],[[2]],['male'],[[1]],[[0.16992249]],CW
90,[[11]],[[91]],[[17]],['low holistic'],['left'],['upright'],['U0346.bmp'],['female'],[[8]],['female'],[[1]],[[0.49100867]],CW
91,[[11]],[[92]],[[4]],['high holistic'],['right'],['upright'],['U0061.bmp'],['female'],[[6]],['female'],[[1]],[[0.54391077]],CW
92,[[11]],[[93]],[[1]],['high holistic'],['right'],['inverted'],['U0006.bmp'],['female'],[[10]],['female'],[[1]],[[0.59481935]],CW
93,[[11]],[[94]],[[10]],['high holistic'],['left'],['inverted'],['U0159.bmp'],['male'],[[2]],['female'],[[0]],[[0.94626165]],CW
94,[[11]],[[95]],[[2]],['low holistic'],['left'],['upright'],['U0014.bmp'],['male'],[[6]],['male'],[[1]],[[0.06063545]],CW
95,[[11]],[[96]],[[13]],['high holistic'],['right'],['inverted'],['U0181.bmp'],['female'],[[8]],['female'],[[1]],[[0.12944858]],CW
96,[[11]],[[97]],[[11]],['low holistic'],['right'],['inverted'],['U0164.bmp'],['female'],[[12]],['female'],[[1]],[[0.00038757]],CW
97,[[11]],[[98]],[[1]],['high holistic'],['right'],['inverted'],['U0006.bmp'],['female'],[[12]],['female'],[[1]],[[0.30210287]],CW
98,[[11]],[[99]],[[15]],['low holistic'],['right'],['upright'],['U0312.bmp'],['male'],[[6]],['male'],[[1]],[[0.13697668]],CW
99,[[11]],[[100]],[[5]],['low holistic'],['left'],['upright'],['U0076.bmp'],['male'],[[4]],['male'],[[1]],[[0.48365821]],CW
100,[[11]],[[101]],[[6]],['high holistic'],['right'],['upright'],['U0106.bmp'],['female'],[[8]],['female'],[[1]],[[0.64041943]],CW
101,[[11]],[[102]],[[9]],['high holistic'],['left'],['upright'],['U0155.bmp'],['female'],[[8]],['female'],[[1]],[[0.23245979]],CW
102,[[11]],[[103]],[[7]],['low holistic'],['right'],['upright'],['U0107.bmp'],['female'],[[4]],['female'],[[1]],[[0.10130987]],CW
103,[[11]],[[104]],[[7]],['low holistic'],['right'],['inverted'],['U0107.bmp'],['female'],[[6]],['female'],[[1]],[[0.08138154]],CW
104,[[11]],[[105]],[[19]],['high holistic'],['right'],['inverted'],['U0361.bmp'],['female'],[[6]],['female'],[[1]],[[0.3504993]],CW
105,[[11]],[[106]],[[3]],['low holistic'],['right'],['upright'],['U0020.bmp'],['female'],[[4]],['female'],[[1]],[[0.00010144]],CW
106,[[11]],[[107]],[[11]],['low holistic'],['left'],['inverted'],['U0164.bmp'],['female'],[[12]],['female'],[[1]],[[0.00027111]],CW
107,[[11]],[[108]],[[5]],['low holistic'],['right'],['upright'],['U0076.bmp'],['male'],[[8]],['female'],[[0]],[[8.9460152]],CW
108,[[11]],[[109]],[[18]],['high holistic'],['right'],['upright'],['U0359.bmp'],['male'],[[12]],['female'],[[0]],[[1.30642319]],CW
109,[[11]],[[110]],[[3]],['high holistic'],['right'],['inverted'],['U0020.bmp'],['male'],[[4]],['female'],[[0]],[[1.17515466]],CW
110,[[11]],[[111]],[[5]],['low holistic'],['fovea'],['inverted'],['U0076.bmp'],['male'],[[0]],['female'],[[0]],[[0.26387609]],CW
111,[[11]],[[112]],[[8]],['low holistic'],['left'],['inverted'],['U0137.bmp'],['male'],[[6]],['female'],[[0]],[[0.19015718]],CW
112,[[11]],[[113]],[[4]],['low holistic'],['right'],['upright'],['U0061.bmp'],['female'],[[10]],['male'],[[0]],[[0.02864433]],CW
113,[[11]],[[114]],[[15]],['high holistic'],['left'],['inverted'],['U0312.bmp'],['male'],[[4]],['female'],[[0]],[[9.93236899e-05]],CW
114,[[11]],[[115]],[[13]],['high holistic'],['right'],['upright'],['U0181.bmp'],['female'],[[12]],['male'],[[0]],[[0.37139964]],CW
115,[[11]],[[116]],[[7]],['low holistic'],['right'],['upright'],['U0107.bmp'],['female'],[[12]],['male'],[[0]],[[0.25233168]],CW
116,[[11]],[[117]],[[20]],['low holistic'],['right'],['inverted'],['U0362.bmp'],['male'],[[12]],['male'],[[1]],[[0.27527225]],CW
117,[[11]],[[118]],[[7]],['high holistic'],['right'],['upright'],['U0107.bmp'],['female'],[[12]],['female'],[[1]],[[0.06425512]],CW
118,[[11]],[[119]],[[7]],['low holistic'],['left'],['inverted'],['U0107.bmp'],['female'],[[12]],['female'],[[1]],[[0.10987637]],CW
119,[[11]],[[120]],[[14]],['high holistic'],['right'],['inverted'],['U0228.bmp'],['male'],[[2]],['male'],[[1]],[[0.34432401]],CW
120,[[11]],[[121]],[[14]],['high holistic'],['right'],['upright'],['U0228.bmp'],['male'],[[8]],['male'],[[1]],[[0.28241972]],CW
121,[[11]],[[122]],[[13]],['low holistic'],['right'],['upright'],['U0181.bmp'],['male'],[[10]],['male'],[[1]],[[0.1839381]],CW
122,[[11]],[[123]],[[9]],['high holistic'],['right'],['inverted'],['U0155.bmp'],['female'],[[2]],['female'],[[1]],[[0.66442651]],CW
123,[[11]],[[124]],[[12]],['low holistic'],['right'],['inverted'],['U0178.bmp'],['female'],[[4]],['female'],[[1]],[[0.07835414]],CW
124,[[11]],[[125]],[[18]],['high holistic'],['left'],['inverted'],['U0359.bmp'],['male'],[[12]],['female'],[[0]],[[0.36224272]],CW
125,[[11]],[[126]],[[12]],['low holistic'],['right'],['inverted'],['U0178.bmp'],['female'],[[2]],['female'],[[1]],[[0.06844897]],CW
126,[[11]],[[127]],[[11]],['high holistic'],['left'],['upright'],['U0164.bmp'],['female'],[[12]],['male'],[[0]],[[0.25058867]],CW
127,[[11]],[[128]],[[16]],['high holistic'],['left'],['upright'],['U0335.bmp'],['female'],[[2]],['female'],[[1]],[[0.07286032]],CW
128,[[11]],[[129]],[[20]],['high holistic'],['right'],['inverted'],['U0362.bmp'],['female'],[[6]],['male'],[[0]],[[0.54857064]],CW
129,[[11]],[[130]],[[7]],['low holistic'],['fovea'],['upright'],['U0107.bmp'],['female'],[[0]],['female'],[[1]],[[0.02386782]],CW
130,[[11]],[[131]],[[19]],['high holistic'],['right'],['inverted'],['U0361.bmp'],['female'],[[12]],['female'],[[1]],[[1.0611917]],CW
131,[[11]],[[132]],[[1]],['low holistic'],['left'],['upright'],['U0006.bmp'],['female'],[[2]],['female'],[[1]],[[0.10764065]],CW
132,[[11]],[[133]],[[12]],['low holistic'],['left'],['inverted'],['U0178.bmp'],['female'],[[6]],['female'],[[1]],[[0.00047862]],CW
133,[[11]],[[134]],[[19]],['low holistic'],['right'],['inverted'],['U0361.bmp'],['female'],[[10]],['female'],[[1]],[[0.205438]],CW
134,[[11]],[[135]],[[17]],['high holistic'],['right'],['inverted'],['U0346.bmp'],['male'],[[6]],['male'],[[1]],[[0.06986111]],CW
135,[[11]],[[136]],[[1]],['low holistic'],['left'],['inverted'],['U0006.bmp'],['female'],[[12]],['female'],[[1]],[[0.19590918]],CW
136,[[11]],[[137]],[[13]],['low holistic'],['right'],['inverted'],['U0181.bmp'],['male'],[[8]],['male'],[[1]],[[0.00010244]],CW
137,[[11]],[[138]],[[11]],['high holistic'],['left'],['inverted'],['U0164.bmp'],['female'],[[6]],['female'],[[1]],[[0.05197206]],CW
138,[[11]],[[139]],[[1]],['low holistic'],['right'],['inverted'],['U0006.bmp'],['female'],[[6]],['female'],[[1]],[[0.05657466]],CW
139,[[11]],[[140]],[[12]],['low holistic'],['right'],['upright'],['U0178.bmp'],['female'],[[10]],['female'],[[1]],[[0.04047696]],CW
140,[[11]],[[141]],[[20]],['low holistic'],['left'],['upright'],['U0362.bmp'],['male'],[[10]],['male'],[[1]],[[0.03733315]],CW
141,[[11]],[[142]],[[5]],['low holistic'],['left'],['upright'],['U0076.bmp'],['male'],[[2]],['male'],[[1]],[[0.06635693]],CW
142,[[11]],[[143]],[[19]],['low holistic'],['left'],['inverted'],['U0361.bmp'],['female'],[[10]],['female'],[[1]],[[0.16211258]],CW
143,[[11]],[[144]],[[19]],['low holistic'],['right'],['inverted'],['U0361.bmp'],['female'],[[8]],['female'],[[1]],[[0.16312748]],CW
144,[[11]],[[145]],[[12]],['high holistic'],['left'],['upright'],['U0178.bmp'],['male'],[[6]],['male'],[[1]],[[0.18055463]],CW
145,[[11]],[[146]],[[7]],['low holistic'],['right'],['upright'],['U0107.bmp'],['female'],[[12]],['female'],[[1]],[[0.58180361]],CW
146,[[11]],[[147]],[[10]],['high holistic'],['right'],['upright'],['U0159.bmp'],['male'],[[8]],['male'],[[1]],[[0.2222383]],CW
147,[[11]],[[148]],[[11]],['high holistic'],['left'],['upright'],['U0164.bmp'],['female'],[[12]],['male'],[[0]],[[0.1800062]],CW
148,[[11]],[[149]],[[7]],['low holistic'],['left'],['inverted'],['U0107.bmp'],['female'],[[10]],['female'],[[1]],[[0.14063383]],CW
149,[[11]],[[150]],[[1]],['low holistic'],['right'],['inverted'],['U0006.bmp'],['female'],[[8]],['female'],[[1]],[[0.09513619]],CW
150,[[11]],[[151]],[[20]],['high holistic'],['right'],['inverted'],['U0362.bmp'],['female'],[[6]],['male'],[[0]],[[0.45959496]],CW
151,[[11]],[[152]],[[14]],['low holistic'],['right'],['upright'],['U0228.bmp'],['male'],[[2]],['male'],[[1]],[[0.22729395]],CW
152,[[11]],[[153]],[[19]],['high holistic'],['left'],['upright'],['U0361.bmp'],['female'],[[2]],['female'],[[1]],[[0.52188998]],CW
153,[[11]],[[154]],[[7]],['high holistic'],['left'],['upright'],['U0107.bmp'],['female'],[[4]],['female'],[[1]],[[0.21244955]],CW
154,[[11]],[[155]],[[16]],['low holistic'],['fovea'],['upright'],['U0335.bmp'],['female'],[[0]],['female'],[[1]],[[0.20427527]],CW
155,[[11]],[[156]],[[17]],['high holistic'],['right'],['upright'],['U0346.bmp'],['male'],[[10]],['male'],[[1]],[[0.17104511]],CW
156,[[11]],[[157]],[[12]],['low holistic'],['right'],['inverted'],['U0178.bmp'],['female'],[[12]],['female'],[[1]],[[0.00018257]],CW
157,[[11]],[[158]],[[16]],['high holistic'],['left'],['upright'],['U0335.bmp'],['female'],[[10]],['female'],[[1]],[[0.17146434]],CW
158,[[11]],[[159]],[[17]],['low holistic'],['left'],['upright'],['U0346.bmp'],['female'],[[12]],['female'],[[1]],[[0.00011009]],CW
159,[[11]],[[160]],[[4]],['low holistic'],['right'],['upright'],['U0061.bmp'],['female'],[[10]],['female'],[[1]],[[0.63742499]],CW
160,[[11]],[[161]],[[5]],['low holistic'],['left'],['upright'],['U0076.bmp'],['male'],[[12]],['male'],[[1]],[[0.05197722]],CW
161,[[11]],[[162]],[[9]],['high holistic'],['right'],['upright'],['U0155.bmp'],['female'],[[6]],['female'],[[1]],[[0.2095591]],CW
162,[[11]],[[163]],[[20]],['low holistic'],['left'],['upright'],['U0362.bmp'],['male'],[[12]],['male'],[[1]],[[0.15285272]],CW
163,[[11]],[[164]],[[18]],['high holistic'],['right'],['upright'],['U0359.bmp'],['male'],[[12]],['female'],[[0]],[[0.30084462]],CW
164,[[11]],[[165]],[[14]],['low holistic'],['left'],['inverted'],['U0228.bmp'],['male'],[[10]],['female'],[[0]],[[0.24774788]],CW
165,[[11]],[[166]],[[10]],['low holistic'],['fovea'],['upright'],['U0159.bmp'],['female'],[[0]],['female'],[[1]],[[0.22251226]],CW
166,[[11]],[[167]],[[20]],['high holistic'],['fovea'],['inverted'],['U0362.bmp'],['female'],[[0]],['male'],[[0]],[[0.82939736]],CW
167,[[11]],[[168]],[[17]],['low holistic'],['fovea'],['upright'],['U0346.bmp'],['female'],[[0]],['female'],[[1]],[[0.22031498]],CW
168,[[11]],[[169]],[[15]],['low holistic'],['left'],['inverted'],['U0312.bmp'],['male'],[[2]],['male'],[[1]],[[0.13169622]],CW
169,[[11]],[[170]],[[16]],['high holistic'],['right'],['upright'],['U0335.bmp'],['female'],[[12]],['male'],[[0]],[[0.20716536]],CW
170,[[11]],[[171]],[[6]],['low holistic'],['right'],['inverted'],['U0106.bmp'],['male'],[[10]],['male'],[[1]],[[0.23752543]],CW
171,[[11]],[[172]],[[12]],['high holistic'],['left'],['upright'],['U0178.bmp'],['male'],[[10]],['male'],[[1]],[[0.10871549]],CW
172,[[11]],[[173]],[[8]],['high holistic'],['right'],['inverted'],['U0137.bmp'],['female'],[[2]],['female'],[[1]],[[0.30124505]],CW
173,[[11]],[[174]],[[2]],['low holistic'],['right'],['inverted'],['U0014.bmp'],['male'],[[10]],['male'],[[1]],[[0.18553763]],CW
174,[[11]],[[175]],[[7]],['low holistic'],['right'],['inverted'],['U0107.bmp'],['female'],[[6]],['female'],[[1]],[[0.1548381]],CW
175,[[11]],[[176]],[[1]],['low holistic'],['left'],['upright'],['U0006.bmp'],['female'],[[8]],['female'],[[1]],[[0.20639907]],CW
176,[[11]],[[177]],[[5]],['low holistic'],['left'],['upright'],['U0076.bmp'],['male'],[[8]],['male'],[[1]],[[0.09213614]],CW
177,[[11]],[[178]],[[7]],['low holistic'],['right'],['upright'],['U0107.bmp'],['female'],[[6]],['female'],[[1]],[[0.0584216]],CW
178,[[11]],[[179]],[[8]],['low holistic'],['right'],['upright'],['U0137.bmp'],['male'],[[4]],['male'],[[1]],[[0.19796518]],CW
179,[[11]],[[180]],[[1]],['high holistic'],['left'],['inverted'],['U0006.bmp'],['female'],[[12]],['female'],[[1]],[[0.25493572]],CW
180,[[11]],[[181]],[[10]],['low holistic'],['right'],['upright'],['U0159.bmp'],['female'],[[12]],['female'],[[1]],[[0.22908135]],CW
181,[[11]],[[182]],[[16]],['high holistic'],['right'],['upright'],['U0335.bmp'],['female'],[[10]],['male'],[[0]],[[0.2021525]],CW
182,[[11]],[[183]],[[8]],['high holistic'],['right'],['inverted'],['U0137.bmp'],['female'],[[6]],['female'],[[1]],[[0.26732957]],CW
183,[[11]],[[184]],[[13]],['low holistic'],['right'],['upright'],['U0181.bmp'],['male'],[[12]],['male'],[[1]],[[0.23198172]],CW
184,[[11]],[[185]],[[6]],['high holistic'],['fovea'],['upright'],['U0106.bmp'],['female'],[[0]],['female'],[[1]],[[0.19212786]],CW
185,[[11]],[[186]],[[8]],['high holistic'],['right'],['inverted'],['U0137.bmp'],['female'],[[10]],['female'],[[1]],[[0.27049969]],CW
186,[[11]],[[187]],[[19]],['high holistic'],['left'],['upright'],['U0361.bmp'],['female'],[[4]],['female'],[[1]],[[0.12545505]],CW
187,[[11]],[[188]],[[1]],['low holistic'],['left'],['upright'],['U0006.bmp'],['female'],[[6]],['female'],[[1]],[[0.16716592]],CW
188,[[11]],[[189]],[[9]],['low holistic'],['left'],['inverted'],['U0155.bmp'],['male'],[[8]],['female'],[[0]],[[0.20819742]],CW
189,[[11]],[[190]],[[17]],['low holistic'],['left'],['upright'],['U0346.bmp'],['female'],[[4]],['female'],[[1]],[[0.15279833]],CW
190,[[11]],[[191]],[[13]],['high holistic'],['right'],['upright'],['U0181.bmp'],['female'],[[6]],['female'],[[1]],[[0.04964121]],CW
191,[[11]],[[192]],[[7]],['low holistic'],['left'],['upright'],['U0107.bmp'],['female'],[[2]],['female'],[[1]],[[0.20973944]],CW
192,[[11]],[[193]],[[13]],['low holistic'],['fovea'],['upright'],['U0181.bmp'],['male'],[[0]],['male'],[[1]],[[0.19983793]],CW
193,[[11]],[[194]],[[20]],['low holistic'],['right'],['inverted'],['U0362.bmp'],['male'],[[12]],['male'],[[1]],[[0.20840693]],CW
194,[[11]],[[195]],[[13]],['low holistic'],['left'],['upright'],['U0181.bmp'],['male'],[[10]],['male'],[[1]],[[0.0951358]],CW
195,[[11]],[[196]],[[3]],['low holistic'],['right'],['inverted'],['U0020.bmp'],['female'],[[4]],['female'],[[1]],[[0.22837312]],CW
196,[[11]],[[197]],[[1]],['high holistic'],['right'],['inverted'],['U0006.bmp'],['female'],[[6]],['female'],[[1]],[[0.17888313]],CW
197,[[11]],[[198]],[[7]],['high holistic'],['right'],['upright'],['U0107.bmp'],['female'],[[2]],['female'],[[1]],[[0.20532165]],CW
198,[[11]],[[199]],[[14]],['low holistic'],['left'],['upright'],['U0228.bmp'],['male'],[[8]],['male'],[[1]],[[0.53142429]],CW
199,[[11]],[[200]],[[17]],['high holistic'],['left'],['upright'],['U0346.bmp'],['male'],[[10]],['male'],[[1]],[[0.49523307]],CW
200,[[11]],[[201]],[[9]],['low holistic'],['right'],['inverted'],['U0155.bmp'],['male'],[[12]],['female'],[[0]],[[0.32298764]],CW
201,[[11]],[[202]],[[20]],['low holistic'],['left'],['inverted'],['U0362.bmp'],['male'],[[8]],['male'],[[1]],[[0.18159986]],CW
202,[[11]],[[203]],[[14]],['high holistic'],['right'],['inverted'],['U0228.bmp'],['male'],[[2]],['male'],[[1]],[[0.33537909]],CW
203,[[11]],[[204]],[[14]],['high holistic'],['left'],['upright'],['U0228.bmp'],['male'],[[8]],['male'],[[1]],[[0.31409483]],CW
204,[[11]],[[205]],[[13]],['low holistic'],['left'],['upright'],['U0181.bmp'],['male'],[[2]],['male'],[[1]],[[0.22022134]],CW
205,[[11]],[[206]],[[14]],['high holistic'],['left'],['inverted'],['U0228.bmp'],['male'],[[2]],['male'],[[1]],[[0.1876626]],CW
206,[[11]],[[207]],[[4]],['low holistic'],['left'],['upright'],['U0061.bmp'],['female'],[[6]],['female'],[[1]],[[0.27504634]],CW
207,[[11]],[[208]],[[10]],['low holistic'],['left'],['inverted'],['U0159.bmp'],['female'],[[4]],['female'],[[1]],[[0.1763546]],CW
208,[[11]],[[209]],[[7]],['high holistic'],['left'],['upright'],['U0107.bmp'],['female'],[[10]],['male'],[[0]],[[0.41832124]],CW
209,[[11]],[[210]],[[13]],['low holistic'],['left'],['upright'],['U0181.bmp'],['male'],[[6]],['male'],[[1]],[[0.21643565]],CW
210,[[11]],[[211]],[[15]],['high holistic'],['fovea'],['inverted'],['U0312.bmp'],['male'],[[0]],['male'],[[1]],[[0.39296656]],CW
211,[[11]],[[212]],[[17]],['low holistic'],['left'],['inverted'],['U0346.bmp'],['female'],[[12]],['female'],[[1]],[[0.65643079]],CW
212,[[11]],[[213]],[[11]],['high holistic'],['right'],['upright'],['U0164.bmp'],['female'],[[2]],['female'],[[1]],[[0.27808565]],CW
213,[[11]],[[214]],[[17]],['low holistic'],['right'],['inverted'],['U0346.bmp'],['female'],[[10]],['female'],[[1]],[[0.32370582]],CW
214,[[11]],[[215]],[[10]],['high holistic'],['right'],['inverted'],['U0159.bmp'],['male'],[[6]],['female'],[[0]],[[0.2135992]],CW
215,[[11]],[[216]],[[10]],['low holistic'],['left'],['inverted'],['U0159.bmp'],['female'],[[2]],['female'],[[1]],[[0.20708183]],CW
216,[[11]],[[217]],[[9]],['high holistic'],['right'],['upright'],['U0155.bmp'],['female'],[[2]],['female'],[[1]],[[0.4216176]],CW
217,[[11]],[[218]],[[13]],['low holistic'],['left'],['inverted'],['U0181.bmp'],['male'],[[6]],['male'],[[1]],[[0.19572912]],CW
218,[[11]],[[219]],[[16]],['high holistic'],['left'],['inverted'],['U0335.bmp'],['female'],[[12]],['female'],[[1]],[[0.30936506]],CW
219,[[11]],[[220]],[[2]],['high holistic'],['left'],['upright'],['U0014.bmp'],['male'],[[2]],['male'],[[1]],[[0.35242638]],CW
220,[[11]],[[221]],[[15]],['low holistic'],['right'],['upright'],['U0312.bmp'],['male'],[[10]],['male'],[[1]],[[0.55493913]],CW
221,[[11]],[[222]],[[17]],['high holistic'],['right'],['upright'],['U0346.bmp'],['male'],[[4]],['male'],[[1]],[[0.41135174]],CW
222,[[11]],[[223]],[[8]],['high holistic'],['right'],['upright'],['U0137.bmp'],['female'],[[8]],['female'],[[1]],[[0.22670272]],CW
223,[[11]],[[224]],[[6]],['high holistic'],['left'],['upright'],['U0106.bmp'],['female'],[[2]],['female'],[[1]],[[0.2892937]],CW
224,[[11]],[[225]],[[15]],['low holistic'],['right'],['upright'],['U0312.bmp'],['male'],[[6]],['male'],[[1]],[[0.22351742]],CW
225,[[11]],[[226]],[[10]],['low holistic'],['right'],['inverted'],['U0159.bmp'],['female'],[[2]],['female'],[[1]],[[0.15732582]],CW
226,[[11]],[[227]],[[18]],['high holistic'],['left'],['inverted'],['U0359.bmp'],['male'],[[12]],['female'],[[0]],[[0.376255]],CW
227,[[11]],[[228]],[[17]],['high holistic'],['left'],['inverted'],['U0346.bmp'],['male'],[[6]],['male'],[[1]],[[0.28113762]],CW
228,[[11]],[[229]],[[3]],['low holistic'],['right'],['upright'],['U0020.bmp'],['female'],[[2]],['female'],[[1]],[[0.95656227]],CW
229,[[11]],[[230]],[[11]],['low holistic'],['right'],['upright'],['U0164.bmp'],['female'],[[6]],['female'],[[1]],[[0.26273342]],CW
230,[[11]],[[231]],[[3]],['low holistic'],['right'],['inverted'],['U0020.bmp'],['female'],[[8]],['female'],[[1]],[[0.2119998]],CW
231,[[11]],[[232]],[[8]],['high holistic'],['right'],['upright'],['U0137.bmp'],['female'],[[4]],['female'],[[1]],[[0.21088889]],CW
232,[[11]],[[233]],[[9]],['high holistic'],['left'],['inverted'],['U0155.bmp'],['female'],[[2]],['female'],[[1]],[[0.17141156]],CW
233,[[11]],[[234]],[[10]],['low holistic'],['right'],['inverted'],['U0159.bmp'],['female'],[[10]],['female'],[[1]],[[0.1561636]],CW
234,[[11]],[[235]],[[15]],['low holistic'],['left'],['inverted'],['U0312.bmp'],['male'],[[4]],['male'],[[1]],[[0.15718565]],CW
235,[[11]],[[236]],[[13]],['high holistic'],['left'],['upright'],['U0181.bmp'],['female'],[[2]],['male'],[[0]],[[0.35937448]],CW
236,[[11]],[[237]],[[16]],['low holistic'],['right'],['upright'],['U0335.bmp'],['female'],[[10]],['female'],[[1]],[[0.20096164]],CW
237,[[11]],[[238]],[[20]],['low holistic'],['left'],['inverted'],['U0362.bmp'],['male'],[[10]],['male'],[[1]],[[0.24845738]],CW
238,[[11]],[[239]],[[9]],['high holistic'],['right'],['upright'],['U0155.bmp'],['female'],[[6]],['female'],[[1]],[[1.31157098]],CW
239,[[11]],[[240]],[[2]],['low holistic'],['right'],['upright'],['U0014.bmp'],['male'],[[10]],['male'],[[1]],[[0.42835903]],CW
240,[[11]],[[241]],[[9]],['high holistic'],['fovea'],['upright'],['U0155.bmp'],['female'],[[0]],['male'],[[0]],[[0.36216945]],CW
241,[[11]],[[242]],[[19]],['low holistic'],['left'],['inverted'],['U0361.bmp'],['female'],[[2]],['female'],[[1]],[[0.362751]],CW
242,[[11]],[[243]],[[1]],['high holistic'],['left'],['upright'],['U0006.bmp'],['female'],[[12]],['female'],[[1]],[[0.54083012]],CW
243,[[11]],[[244]],[[18]],['high holistic'],['fovea'],['inverted'],['U0359.bmp'],['male'],[[0]],['male'],[[1]],[[0.57443714]],CW
244,[[11]],[[245]],[[14]],['low holistic'],['right'],['inverted'],['U0228.bmp'],['male'],[[12]],['female'],[[0]],[[0.58438967]],CW
245,[[11]],[[246]],[[8]],['high holistic'],['left'],['inverted'],['U0137.bmp'],['female'],[[6]],['female'],[[1]],[[0.40918534]],CW
246,[[11]],[[247]],[[5]],['high holistic'],['left'],['inverted'],['U0076.bmp'],['female'],[[10]],['male'],[[0]],[[0.35984821]],CW
247,[[11]],[[248]],[[11]],['low holistic'],['fovea'],['upright'],['U0164.bmp'],['female'],[[0]],['female'],[[1]],[[0.26546845]],CW
248,[[11]],[[249]],[[1]],['low holistic'],['left'],['upright'],['U0006.bmp'],['female'],[[8]],['female'],[[1]],[[0.41489119]],CW
249,[[11]],[[250]],[[10]],['low holistic'],['right'],['upright'],['U0159.bmp'],['female'],[[6]],['female'],[[1]],[[0.27991971]],CW
250,[[11]],[[251]],[[10]],['low holistic'],['left'],['inverted'],['U0159.bmp'],['female'],[[8]],['female'],[[1]],[[0.49259329]],CW
251,[[11]],[[252]],[[13]],['low holistic'],['left'],['inverted'],['U0181.bmp'],['male'],[[8]],['male'],[[1]],[[0.58423629]],CW
252,[[11]],[[253]],[[1]],['high holistic'],['right'],['upright'],['U0006.bmp'],['female'],[[8]],['female'],[[1]],[[0.47366855]],CW
253,[[11]],[[254]],[[15]],['low holistic'],['right'],['inverted'],['U0312.bmp'],['male'],[[2]],['male'],[[1]],[[0.41335352]],CW
254,[[11]],[[255]],[[16]],['high holistic'],['left'],['inverted'],['U0335.bmp'],['female'],[[6]],['female'],[[1]],[[0.33359799]],CW
255,[[11]],[[256]],[[5]],['low holistic'],['left'],['upright'],['U0076.bmp'],['male'],[[6]],['male'],[[1]],[[0.9908383]],CW
256,[[11]],[[257]],[[7]],['high holistic'],['left'],['upright'],['U0107.bmp'],['female'],[[6]],['female'],[[1]],[[0.71298094]],CW
257,[[11]],[[258]],[[13]],['high holistic'],['right'],['inverted'],['U0181.bmp'],['female'],[[6]],['female'],[[1]],[[0.29910299]],CW
258,[[11]],[[259]],[[10]],['low holistic'],['left'],['upright'],['U0159.bmp'],['female'],[[8]],['female'],[[1]],[[0.2068385]],CW
259,[[11]],[[260]],[[4]],['low holistic'],['left'],['upright'],['U0061.bmp'],['female'],[[8]],['female'],[[1]],[[0.70270328]],CW
260,[[11]],[[261]],[[4]],['high holistic'],['right'],['upright'],['U0061.bmp'],['female'],[[2]],['female'],[[1]],[[0.33988797]],CW
261,[[11]],[[262]],[[4]],['low holistic'],['right'],['upright'],['U0061.bmp'],['female'],[[8]],['female'],[[1]],[[0.13545954]],CW
262,[[11]],[[263]],[[16]],['high holistic'],['left'],['inverted'],['U0335.bmp'],['female'],[[4]],['female'],[[1]],[[0.08205548]],CW
263,[[11]],[[264]],[[1]],['low holistic'],['right'],['inverted'],['U0006.bmp'],['female'],[[4]],['female'],[[1]],[[0.00011468]],CW
264,[[11]],[[265]],[[16]],['low holistic'],['right'],['upright'],['U0335.bmp'],['female'],[[6]],['female'],[[1]],[[9.97418538e-05]],CW
265,[[11]],[[266]],[[5]],['high holistic'],['left'],['inverted'],['U0076.bmp'],['female'],[[8]],['male'],[[0]],[[0.33383465]],CW
266,[[11]],[[267]],[[3]],['low holistic'],['right'],['upright'],['U0020.bmp'],['female'],[[6]],['female'],[[1]],[[0.00016203]],CW
267,[[11]],[[268]],[[14]],['high holistic'],['left'],['inverted'],['U0228.bmp'],['male'],[[8]],['male'],[[1]],[[0.25565616]],CW
268,[[11]],[[269]],[[4]],['high holistic'],['left'],['upright'],['U0061.bmp'],['female'],[[2]],['female'],[[1]],[[0.1271073]],CW
269,[[11]],[[270]],[[1]],['low holistic'],['left'],['inverted'],['U0006.bmp'],['female'],[[6]],['female'],[[1]],[[0.20063271]],CW
270,[[11]],[[271]],[[16]],['high holistic'],['left'],['inverted'],['U0335.bmp'],['female'],[[2]],['female'],[[1]],[[0.15980708]],CW
271,[[11]],[[272]],[[16]],['low holistic'],['left'],['inverted'],['U0335.bmp'],['female'],[[6]],['female'],[[1]],[[0.10722505]],CW
272,[[11]],[[273]],[[20]],['high holistic'],['left'],['inverted'],['U0362.bmp'],['female'],[[4]],['male'],[[0]],[[0.63924861]],CW
273,[[11]],[[274]],[[15]],['low holistic'],['left'],['upright'],['U0312.bmp'],['male'],[[4]],['male'],[[1]],[[0.12558107]],CW
274,[[11]],[[275]],[[3]],['low holistic'],['right'],['upright'],['U0020.bmp'],['female'],[[4]],['female'],[[1]],[[9.81288031e-05]],CW
275,[[11]],[[276]],[[20]],['low holistic'],['right'],['upright'],['U0362.bmp'],['male'],[[4]],['male'],[[1]],[[0.10386519]],CW
276,[[11]],[[277]],[[9]],['high holistic'],['left'],['inverted'],['U0155.bmp'],['female'],[[4]],['female'],[[1]],[[0.61146939]],CW
277,[[11]],[[278]],[[5]],['high holistic'],['left'],['upright'],['U0076.bmp'],['female'],[[10]],['female'],[[1]],[[1.02742687]],CW
278,[[11]],[[279]],[[12]],['high holistic'],['right'],['inverted'],['U0178.bmp'],['male'],[[6]],['male'],[[1]],[[0.69917222]],CW
279,[[11]],[[280]],[[12]],['low holistic'],['left'],['inverted'],['U0178.bmp'],['female'],[[12]],['female'],[[1]],[[0.06290668]],CW
280,[[11]],[[281]],[[6]],['low holistic'],['right'],['upright'],['U0106.bmp'],['male'],[[4]],['male'],[[1]],[[0.12331669]],CW
281,[[11]],[[282]],[[7]],['low holistic'],['right'],['inverted'],['U0107.bmp'],['female'],[[8]],['female'],[[1]],[[0.00664575]],CW
282,[[11]],[[283]],[[10]],['high holistic'],['right'],['upright'],['U0159.bmp'],['male'],[[2]],['male'],[[1]],[[0.14174779]],CW
283,[[11]],[[284]],[[3]],['low holistic'],['right'],['inverted'],['U0020.bmp'],['female'],[[10]],['female'],[[1]],[[0.20130137]],CW
284,[[11]],[[285]],[[15]],['high holistic'],['right'],['inverted'],['U0312.bmp'],['male'],[[12]],['male'],[[1]],[[0.36049907]],CW
285,[[11]],[[286]],[[14]],['high holistic'],['left'],['inverted'],['U0228.bmp'],['male'],[[6]],['male'],[[1]],[[0.2903452]],CW
286,[[11]],[[287]],[[2]],['high holistic'],['right'],['upright'],['U0014.bmp'],['male'],[[10]],['female'],[[0]],[[0.40725575]],CW
287,[[11]],[[288]],[[20]],['low holistic'],['left'],['upright'],['U0362.bmp'],['male'],[[6]],['male'],[[1]],[[0.09439474]],CW
288,[[11]],[[289]],[[13]],['high holistic'],['right'],['inverted'],['U0181.bmp'],['female'],[[4]],['female'],[[1]],[[0.27329373]],CW
289,[[11]],[[290]],[[16]],['high holistic'],['right'],['inverted'],['U0335.bmp'],['female'],[[2]],['female'],[[1]],[[0.5512513]],CW
290,[[11]],[[291]],[[3]],['high holistic'],['left'],['inverted'],['U0020.bmp'],['male'],[[2]],['male'],[[1]],[[0.53067414]],CW
291,[[11]],[[292]],[[18]],['high holistic'],['left'],['inverted'],['U0359.bmp'],['male'],[[8]],['female'],[[0]],[[0.94807631]],CW
292,[[11]],[[293]],[[17]],['high holistic'],['left'],['upright'],['U0346.bmp'],['male'],[[8]],['male'],[[1]],[[0.14316096]],CW
293,[[11]],[[294]],[[7]],['high holistic'],['left'],['inverted'],['U0107.bmp'],['female'],[[8]],['female'],[[1]],[[0.31944079]],CW
294,[[11]],[[295]],[[10]],['low holistic'],['right'],['inverted'],['U0159.bmp'],['female'],[[6]],['female'],[[1]],[[0.15533774]],CW
295,[[11]],[[296]],[[11]],['high holistic'],['right'],['upright'],['U0164.bmp'],['female'],[[6]],['male'],[[0]],[[0.15862917]],CW
296,[[11]],[[297]],[[17]],['high holistic'],['right'],['upright'],['U0346.bmp'],['male'],[[4]],['male'],[[1]],[[0.12796631]],CW
297,[[11]],[[298]],[[9]],['low holistic'],['right'],['inverted'],['U0155.bmp'],['male'],[[8]],['male'],[[1]],[[0.51449562]],CW
298,[[11]],[[299]],[[17]],['high holistic'],['right'],['upright'],['U0346.bmp'],['male'],[[6]],['male'],[[1]],[[0.27781355]],CW
299,[[11]],[[300]],[[17]],['low holistic'],['right'],['inverted'],['U0346.bmp'],['female'],[[12]],['female'],[[1]],[[0.5795161]],CW
300,[[11]],[[301]],[[17]],['high holistic'],['left'],['upright'],['U0346.bmp'],['male'],[[8]],['male'],[[1]],[[1.20471974]],CW
301,[[11]],[[302]],[[4]],['low holistic'],['right'],['upright'],['U0061.bmp'],['female'],[[10]],['female'],[[1]],[[0.21849209]],CW
302,[[11]],[[303]],[[14]],['high holistic'],['right'],['upright'],['U0228.bmp'],['male'],[[2]],['male'],[[1]],[[0.21847538]],CW
303,[[11]],[[304]],[[3]],['low holistic'],['left'],['inverted'],['U0020.bmp'],['female'],[[12]],['female'],[[1]],[[0.20356074]],CW
304,[[11]],[[305]],[[17]],['high holistic'],['right'],['upright'],['U0346.bmp'],['male'],[[8]],['male'],[[1]],[[0.13715185]],CW
305,[[11]],[[306]],[[10]],['low holistic'],['fovea'],['inverted'],['U0159.bmp'],['female'],[[0]],['female'],[[1]],[[0.07619446]],CW
306,[[11]],[[307]],[[9]],['low holistic'],['left'],['upright'],['U0155.bmp'],['male'],[[4]],['female'],[[0]],[[0.68807363]],CW
307,[[11]],[[308]],[[17]],['high holistic'],['right'],['inverted'],['U0346.bmp'],['male'],[[12]],['male'],[[1]],[[0.86843737]],CW
308,[[11]],[[309]],[[14]],['high holistic'],['fovea'],['inverted'],['U0228.bmp'],['male'],[[0]],['male'],[[1]],[[0.20349526]],CW
309,[[11]],[[310]],[[12]],['low holistic'],['left'],['upright'],['U0178.bmp'],['female'],[[2]],['female'],[[1]],[[0.29995605]],CW
310,[[11]],[[311]],[[19]],['low holistic'],['right'],['upright'],['U0361.bmp'],['female'],[[8]],['female'],[[1]],[[0.27227407]],CW
311,[[11]],[[312]],[[3]],['low holistic'],['right'],['inverted'],['U0020.bmp'],['female'],[[8]],['female'],[[1]],[[0.23572593]],CW
312,[[11]],[[313]],[[8]],['low holistic'],['left'],['inverted'],['U0137.bmp'],['male'],[[8]],['female'],[[0]],[[0.69845295]],CW
313,[[11]],[[314]],[[3]],['high holistic'],['fovea'],['upright'],['U0020.bmp'],['male'],[[0]],['male'],[[1]],[[0.08715338]],CW
314,[[11]],[[315]],[[16]],['low holistic'],['fovea'],['inverted'],['U0335.bmp'],['female'],[[0]],['female'],[[1]],[[0.11419329]],CW
315,[[11]],[[316]],[[12]],['high holistic'],['fovea'],['upright'],['U0178.bmp'],['male'],[[0]],['male'],[[1]],[[0.04715506]],CW
316,[[11]],[[317]],[[7]],['low holistic'],['right'],['upright'],['U0107.bmp'],['female'],[[2]],['female'],[[1]],[[0.18068925]],CW
317,[[11]],[[318]],[[16]],['high holistic'],['left'],['inverted'],['U0335.bmp'],['female'],[[6]],['female'],[[1]],[[0.3983224]],CW
318,[[11]],[[319]],[[15]],['low holistic'],['left'],['upright'],['U0312.bmp'],['male'],[[4]],['male'],[[1]],[[0.22172824]],CW
319,[[11]],[[320]],[[16]],['high holistic'],['right'],['upright'],['U0335.bmp'],['female'],[[4]],['female'],[[1]],[[0.33154691]],CW
320,[[11]],[[321]],[[9]],['high holistic'],['right'],['upright'],['U0155.bmp'],['female'],[[8]],['female'],[[1]],[[0.37475347]],CW
321,[[11]],[[322]],[[4]],['low holistic'],['right'],['inverted'],['U0061.bmp'],['female'],[[4]],['female'],[[1]],[[0.45666849]],CW
322,[[11]],[[323]],[[13]],['low holistic'],['left'],['upright'],['U0181.bmp'],['male'],[[2]],['male'],[[1]],[[0.19029929]],CW
323,[[11]],[[324]],[[4]],['low holistic'],['left'],['upright'],['U0061.bmp'],['female'],[[6]],['female'],[[1]],[[0.16630498]],CW
324,[[11]],[[325]],[[4]],['low holistic'],['left'],['upright'],['U0061.bmp'],['female'],[[6]],['female'],[[1]],[[0.20800392]],CW
325,[[11]],[[326]],[[8]],['low holistic'],['left'],['inverted'],['U0137.bmp'],['male'],[[8]],['male'],[[1]],[[0.31846713]],CW
326,[[11]],[[327]],[[10]],['high holistic'],['right'],['upright'],['U0159.bmp'],['male'],[[10]],['male'],[[1]],[[0.29118127]],CW
327,[[11]],[[328]],[[9]],['high holistic'],['right'],['inverted'],['U0155.bmp'],['female'],[[2]],['female'],[[1]],[[0.28687511]],CW
328,[[11]],[[329]],[[9]],['low holistic'],['left'],['upright'],['U0155.bmp'],['male'],[[4]],['male'],[[1]],[[0.49234928]],CW
329,[[11]],[[330]],[[17]],['low holistic'],['left'],['inverted'],['U0346.bmp'],['female'],[[4]],['female'],[[1]],[[0.18487987]],CW
330,[[11]],[[331]],[[11]],['high holistic'],['right'],['inverted'],['U0164.bmp'],['female'],[[2]],['female'],[[1]],[[0.73619263]],CW
331,[[11]],[[332]],[[2]],['low holistic'],['right'],['upright'],['U0014.bmp'],['male'],[[2]],['male'],[[1]],[[0.41075841]],CW
332,[[11]],[[333]],[[3]],['low holistic'],['right'],['inverted'],['U0020.bmp'],['female'],[[2]],['female'],[[1]],[[0.13916631]],CW
333,[[11]],[[334]],[[8]],['low holistic'],['right'],['inverted'],['U0137.bmp'],['male'],[[10]],['male'],[[1]],[[1.01284112]],CW
334,[[11]],[[335]],[[18]],['low holistic'],['left'],['inverted'],['U0359.bmp'],['male'],[[2]],['male'],[[1]],[[0.89911643]],CW
335,[[11]],[[336]],[[3]],['high holistic'],['right'],['inverted'],['U0020.bmp'],['male'],[[4]],['female'],[[0]],[[0.34350319]],CW
336,[[11]],[[337]],[[6]],['low holistic'],['left'],['inverted'],['U0106.bmp'],['male'],[[6]],['male'],[[1]],[[0.38770592]],CW
337,[[11]],[[338]],[[4]],['high holistic'],['fovea'],['upright'],['U0061.bmp'],['female'],[[0]],['female'],[[1]],[[0.05875953]],CW
338,[[11]],[[339]],[[2]],['low holistic'],['left'],['inverted'],['U0014.bmp'],['male'],[[8]],['female'],[[0]],[[0.20150179]],CW
339,[[11]],[[340]],[[15]],['low holistic'],['fovea'],['upright'],['U0312.bmp'],['male'],[[0]],['male'],[[1]],[[0.298024]],CW
340,[[11]],[[341]],[[7]],['high holistic'],['left'],['inverted'],['U0107.bmp'],['female'],[[10]],['male'],[[0]],[[0.89427464]],CW
341,[[11]],[[342]],[[15]],['low holistic'],['right'],['inverted'],['U0312.bmp'],['male'],[[10]],['male'],[[1]],[[0.38567702]],CW
342,[[11]],[[343]],[[16]],['high holistic'],['left'],['inverted'],['U0335.bmp'],['female'],[[6]],['female'],[[1]],[[0.27337096]],CW
343,[[11]],[[344]],[[11]],['low holistic'],['right'],['upright'],['U0164.bmp'],['female'],[[10]],['female'],[[1]],[[0.51229126]],CW
344,[[11]],[[345]],[[2]],['high holistic'],['left'],['upright'],['U0014.bmp'],['male'],[[2]],['male'],[[1]],[[0.19376836]],CW
345,[[11]],[[346]],[[20]],['low holistic'],['right'],['inverted'],['U0362.bmp'],['male'],[[6]],['male'],[[1]],[[0.59640771]],CW
346,[[11]],[[347]],[[19]],['low holistic'],['left'],['upright'],['U0361.bmp'],['female'],[[4]],['female'],[[1]],[[0.33870581]],CW
347,[[11]],[[348]],[[14]],['low holistic'],['right'],['upright'],['U0228.bmp'],['male'],[[12]],['male'],[[1]],[[0.25309791]],CW
348,[[11]],[[349]],[[2]],['high holistic'],['fovea'],['inverted'],['U0014.bmp'],['male'],[[0]],['male'],[[1]],[[0.33945317]],CW
349,[[11]],[[350]],[[4]],['low holistic'],['right'],['upright'],['U0061.bmp'],['female'],[[4]],['female'],[[1]],[[0.21380824]],CW
350,[[11]],[[351]],[[7]],['high holistic'],['right'],['upright'],['U0107.bmp'],['female'],[[10]],['male'],[[0]],[[0.66236814]],CW
351,[[11]],[[352]],[[3]],['low holistic'],['left'],['upright'],['U0020.bmp'],['female'],[[4]],['female'],[[1]],[[0.16267524]],CW
352,[[11]],[[353]],[[2]],['high holistic'],['left'],['upright'],['U0014.bmp'],['male'],[[4]],['male'],[[1]],[[0.2691072]],CW
353,[[11]],[[354]],[[17]],['high holistic'],['right'],['inverted'],['U0346.bmp'],['male'],[[2]],['male'],[[1]],[[0.45807228]],CW
354,[[11]],[[355]],[[18]],['high holistic'],['right'],['upright'],['U0359.bmp'],['male'],[[8]],['female'],[[0]],[[0.87144938]],CW
355,[[11]],[[356]],[[9]],['high holistic'],['right'],['inverted'],['U0155.bmp'],['female'],[[10]],['female'],[[1]],[[0.9807317]],CW
356,[[11]],[[357]],[[17]],['low holistic'],['right'],['inverted'],['U0346.bmp'],['female'],[[2]],['female'],[[1]],[[0.19725881]],CW
357,[[11]],[[358]],[[4]],['high holistic'],['fovea'],['inverted'],['U0061.bmp'],['female'],[[0]],['female'],[[1]],[[0.2060112]],CW
358,[[11]],[[359]],[[16]],['high holistic'],['right'],['inverted'],['U0335.bmp'],['female'],[[8]],['female'],[[1]],[[0.2048125]],CW
359,[[11]],[[360]],[[9]],['high holistic'],['right'],['upright'],['U0155.bmp'],['female'],[[6]],['female'],[[1]],[[1.31548694]],CW
360,[[11]],[[361]],[[12]],['high holistic'],['left'],['upright'],['U0178.bmp'],['male'],[[10]],['male'],[[1]],[[0.25554228]],CW
361,[[11]],[[362]],[[16]],['high holistic'],['left'],['inverted'],['U0335.bmp'],['female'],[[4]],['female'],[[1]],[[0.76415673]],CW
362,[[11]],[[363]],[[4]],['low holistic'],['right'],['inverted'],['U0061.bmp'],['female'],[[6]],['female'],[[1]],[[0.59056859]],CW
363,[[11]],[[364]],[[11]],['high holistic'],['left'],['inverted'],['U0164.bmp'],['female'],[[6]],['female'],[[1]],[[2.02197638]],CW
364,[[11]],[[365]],[[16]],['high holistic'],['fovea'],['inverted'],['U0335.bmp'],['female'],[[0]],['female'],[[1]],[[0.31127916]],CW
365,[[11]],[[366]],[[6]],['high holistic'],['left'],['upright'],['U0106.bmp'],['female'],[[12]],['male'],[[0]],[[0.25094567]],CW
366,[[11]],[[367]],[[15]],['low holistic'],['right'],['inverted'],['U0312.bmp'],['male'],[[4]],['male'],[[1]],[[0.32043496]],CW
367,[[11]],[[368]],[[3]],['low holistic'],['left'],['upright'],['U0020.bmp'],['female'],[[2]],['female'],[[1]],[[0.1231128]],CW
368,[[11]],[[369]],[[17]],['low holistic'],['left'],['upright'],['U0346.bmp'],['female'],[[4]],['female'],[[1]],[[0.22297921]],CW
369,[[11]],[[370]],[[16]],['high holistic'],['right'],['upright'],['U0335.bmp'],['female'],[[12]],['female'],[[1]],[[0.26195089]],CW
370,[[11]],[[371]],[[1]],['low holistic'],['left'],['upright'],['U0006.bmp'],['female'],[[2]],['female'],[[1]],[[0.12329939]],CW
371,[[11]],[[372]],[[6]],['low holistic'],['right'],['inverted'],['U0106.bmp'],['male'],[[4]],['male'],[[1]],[[0.66947085]],CW
372,[[11]],[[373]],[[15]],['low holistic'],['right'],['inverted'],['U0312.bmp'],['male'],[[8]],['male'],[[1]],[[0.02573627]],CW
373,[[11]],[[374]],[[2]],['low holistic'],['left'],['inverted'],['U0014.bmp'],['male'],[[2]],['male'],[[1]],[[0.16868394]],CW
374,[[11]],[[375]],[[8]],['low holistic'],['right'],['upright'],['U0137.bmp'],['male'],[[2]],['male'],[[1]],[[0.21830327]],CW
375,[[11]],[[376]],[[2]],['high holistic'],['fovea'],['upright'],['U0014.bmp'],['male'],[[0]],['male'],[[1]],[[0.28263138]],CW
376,[[11]],[[377]],[[16]],['low holistic'],['right'],['upright'],['U0335.bmp'],['female'],[[12]],['female'],[[1]],[[0.27056071]],CW
377,[[11]],[[378]],[[20]],['high holistic'],['left'],['inverted'],['U0362.bmp'],['female'],[[12]],['male'],[[0]],[[0.38867117]],CW
378,[[11]],[[379]],[[16]],['low holistic'],['left'],['upright'],['U0335.bmp'],['female'],[[12]],['female'],[[1]],[[0.22757069]],CW
379,[[11]],[[380]],[[5]],['low holistic'],['fovea'],['inverted'],['U0076.bmp'],['male'],[[0]],['male'],[[1]],[[0.33871742]],CW
380,[[11]],[[381]],[[14]],['high holistic'],['left'],['inverted'],['U0228.bmp'],['male'],[[10]],['male'],[[1]],[[0.3639399]],CW
381,[[11]],[[382]],[[5]],['low holistic'],['left'],['inverted'],['U0076.bmp'],['male'],[[4]],['male'],[[1]],[[0.18278312]],CW
382,[[11]],[[383]],[[12]],['low holistic'],['right'],['upright'],['U0178.bmp'],['female'],[[4]],['female'],[[1]],[[0.14306599]],CW
383,[[11]],[[384]],[[10]],['high holistic'],['right'],['upright'],['U0159.bmp'],['male'],[[2]],['male'],[[1]],[[0.38489694]],CW
384,[[11]],[[385]],[[13]],['low holistic'],['left'],['inverted'],['U0181.bmp'],['male'],[[8]],['male'],[[1]],[[0.23190261]],CW
385,[[11]],[[386]],[[11]],['high holistic'],['right'],['upright'],['U0164.bmp'],['female'],[[4]],['female'],[[1]],[[0.28847194]],CW
386,[[11]],[[387]],[[1]],['high holistic'],['right'],['inverted'],['U0006.bmp'],['female'],[[6]],['female'],[[1]],[[0.20450383]],CW
387,[[11]],[[388]],[[7]],['high holistic'],['left'],['upright'],['U0107.bmp'],['female'],[[10]],['female'],[[1]],[[0.26792728]],CW
388,[[11]],[[389]],[[9]],['low holistic'],['fovea'],['inverted'],['U0155.bmp'],['male'],[[0]],['male'],[[1]],[[0.20876898]],CW
389,[[11]],[[390]],[[11]],['low holistic'],['right'],['upright'],['U0164.bmp'],['female'],[[2]],['female'],[[1]],[[0.15242863]],CW
390,[[11]],[[391]],[[2]],['high holistic'],['left'],['upright'],['U0014.bmp'],['male'],[[8]],['male'],[[1]],[[2.63981685]],CW
391,[[11]],[[392]],[[2]],['high holistic'],['left'],['inverted'],['U0014.bmp'],['male'],[[2]],['male'],[[1]],[[0.38348408]],CW
392,[[11]],[[393]],[[8]],['low holistic'],['left'],['inverted'],['U0137.bmp'],['male'],[[12]],['male'],[[1]],[[0.15965304]],CW
393,[[11]],[[394]],[[19]],['low holistic'],['left'],['upright'],['U0361.bmp'],['female'],[[10]],['female'],[[1]],[[0.24948201]],CW
394,[[11]],[[395]],[[7]],['low holistic'],['right'],['upright'],['U0107.bmp'],['female'],[[2]],['female'],[[1]],[[0.1903528]],CW
395,[[11]],[[396]],[[11]],['low holistic'],['right'],['upright'],['U0164.bmp'],['female'],[[12]],['female'],[[1]],[[0.21450034]],CW
396,[[11]],[[397]],[[17]],['low holistic'],['left'],['inverted'],['U0346.bmp'],['female'],[[8]],['female'],[[1]],[[0.19066687]],CW
397,[[11]],[[398]],[[20]],['high holistic'],['left'],['inverted'],['U0362.bmp'],['female'],[[12]],['female'],[[1]],[[1.43713428]],CW
398,[[11]],[[399]],[[7]],['high holistic'],['left'],['upright'],['U0107.bmp'],['female'],[[12]],['male'],[[0]],[[0.33970486]],CW
399,[[11]],[[400]],[[7]],['high holistic'],['right'],['upright'],['U0107.bmp'],['female'],[[4]],['female'],[[1]],[[0.19814094]],CW
400,[[11]],[[401]],[[20]],['high holistic'],['left'],['upright'],['U0362.bmp'],['female'],[[6]],['male'],[[0]],[[0.39736258]],CW
401,[[11]],[[402]],[[4]],['high holistic'],['left'],['upright'],['U0061.bmp'],['female'],[[6]],['female'],[[1]],[[0.05316269]],CW
402,[[11]],[[403]],[[17]],['high holistic'],['right'],['inverted'],['U0346.bmp'],['male'],[[10]],['male'],[[1]],[[0.29948715]],CW
403,[[11]],[[404]],[[1]],['low holistic'],['left'],['upright'],['U0006.bmp'],['female'],[[12]],['female'],[[1]],[[0.00015418]],CW
404,[[11]],[[405]],[[1]],['high holistic'],['right'],['upright'],['U0006.bmp'],['female'],[[4]],['female'],[[1]],[[0.23287448]],CW
405,[[11]],[[406]],[[5]],['high holistic'],['right'],['inverted'],['U0076.bmp'],['female'],[[2]],['female'],[[1]],[[0.62893188]],CW
406,[[11]],[[407]],[[15]],['low holistic'],['right'],['inverted'],['U0312.bmp'],['male'],[[12]],['male'],[[1]],[[0.37940758]],CW
407,[[11]],[[408]],[[6]],['high holistic'],['right'],['inverted'],['U0106.bmp'],['female'],[[4]],['female'],[[1]],[[0.16618027]],CW
408,[[11]],[[409]],[[8]],['low holistic'],['right'],['upright'],['U0137.bmp'],['male'],[[8]],['male'],[[1]],[[0.23761455]],CW
409,[[11]],[[410]],[[19]],['high holistic'],['right'],['inverted'],['U0361.bmp'],['female'],[[2]],['male'],[[0]],[[0.49909915]],CW
410,[[11]],[[411]],[[20]],['high holistic'],['fovea'],['upright'],['U0362.bmp'],['female'],[[0]],['female'],[[1]],[[0.24797859]],CW
411,[[11]],[[412]],[[10]],['high holistic'],['right'],['upright'],['U0159.bmp'],['male'],[[2]],['male'],[[1]],[[0.175236]],CW
412,[[11]],[[413]],[[2]],['high holistic'],['left'],['inverted'],['U0014.bmp'],['male'],[[4]],['male'],[[1]],[[0.55998728]],CW
413,[[11]],[[414]],[[18]],['low holistic'],['left'],['inverted'],['U0359.bmp'],['male'],[[6]],['male'],[[1]],[[0.13655366]],CW
414,[[11]],[[415]],[[20]],['low holistic'],['left'],['upright'],['U0362.bmp'],['male'],[[6]],['male'],[[1]],[[0.14877468]],CW
415,[[11]],[[416]],[[17]],['low holistic'],['left'],['inverted'],['U0346.bmp'],['female'],[[12]],['female'],[[1]],[[0.2856767]],CW
416,[[11]],[[417]],[[3]],['high holistic'],['right'],['upright'],['U0020.bmp'],['male'],[[10]],['female'],[[0]],[[0.30474855]],CW
417,[[11]],[[418]],[[8]],['high holistic'],['right'],['inverted'],['U0137.bmp'],['female'],[[4]],['female'],[[1]],[[0.36549994]],CW
418,[[11]],[[419]],[[12]],['high holistic'],['left'],['inverted'],['U0178.bmp'],['male'],[[4]],['male'],[[1]],[[0.41343608]],CW
419,[[11]],[[420]],[[9]],['low holistic'],['right'],['upright'],['U0155.bmp'],['male'],[[8]],['male'],[[1]],[[0.18181653]],CW
420,[[11]],[[421]],[[4]],['low holistic'],['left'],['inverted'],['U0061.bmp'],['female'],[[12]],['female'],[[1]],[[0.30058149]],CW
421,[[11]],[[422]],[[17]],['low holistic'],['left'],['upright'],['U0346.bmp'],['female'],[[12]],['female'],[[1]],[[0.19251064]],CW
422,[[11]],[[423]],[[1]],['low holistic'],['left'],['inverted'],['U0006.bmp'],['female'],[[12]],['female'],[[1]],[[0.37702829]],CW
423,[[11]],[[424]],[[17]],['high holistic'],['left'],['upright'],['U0346.bmp'],['male'],[[2]],['male'],[[1]],[[0.37794202]],CW
424,[[11]],[[425]],[[10]],['low holistic'],['fovea'],['inverted'],['U0159.bmp'],['female'],[[0]],['female'],[[1]],[[0.20987178]],CW
425,[[11]],[[426]],[[6]],['high holistic'],['right'],['upright'],['U0106.bmp'],['female'],[[6]],['male'],[[0]],[[0.43311923]],CW
426,[[11]],[[427]],[[9]],['low holistic'],['right'],['upright'],['U0155.bmp'],['male'],[[10]],['male'],[[1]],[[0.1761167]],CW
427,[[11]],[[428]],[[8]],['low holistic'],['left'],['inverted'],['U0137.bmp'],['male'],[[10]],['male'],[[1]],[[0.64819854]],CW
428,[[11]],[[429]],[[2]],['low holistic'],['right'],['upright'],['U0014.bmp'],['male'],[[8]],['male'],[[1]],[[0.23249075]],CW
429,[[11]],[[430]],[[14]],['high holistic'],['left'],['inverted'],['U0228.bmp'],['male'],[[2]],['male'],[[1]],[[0.19051786]],CW
430,[[11]],[[431]],[[5]],['high holistic'],['right'],['inverted'],['U0076.bmp'],['female'],[[4]],['female'],[[1]],[[0.35010059]],CW
431,[[11]],[[432]],[[10]],['high holistic'],['right'],['upright'],['U0159.bmp'],['male'],[[2]],['male'],[[1]],[[0.19066917]],CW
432,[[11]],[[433]],[[4]],['low holistic'],['right'],['inverted'],['U0061.bmp'],['female'],[[6]],['female'],[[1]],[[0.61580601]],CW
433,[[11]],[[434]],[[15]],['high holistic'],['right'],['inverted'],['U0312.bmp'],['male'],[[10]],['male'],[[1]],[[0.46979009]],CW
434,[[11]],[[435]],[[19]],['high holistic'],['left'],['upright'],['U0361.bmp'],['female'],[[10]],['male'],[[0]],[[0.73845287]],CW
435,[[11]],[[436]],[[15]],['low holistic'],['right'],['upright'],['U0312.bmp'],['male'],[[12]],['male'],[[1]],[[0.19857078]],CW
436,[[11]],[[437]],[[1]],['high holistic'],['left'],['upright'],['U0006.bmp'],['female'],[[12]],['female'],[[1]],[[0.29242409]],CW
437,[[11]],[[438]],[[14]],['high holistic'],['right'],['inverted'],['U0228.bmp'],['male'],[[8]],['male'],[[1]],[[0.288654]],CW
438,[[11]],[[439]],[[13]],['high holistic'],['right'],['upright'],['U0181.bmp'],['female'],[[10]],['female'],[[1]],[[0.27751259]],CW
439,[[11]],[[440]],[[20]],['high holistic'],['right'],['upright'],['U0362.bmp'],['female'],[[4]],['male'],[[0]],[[0.18656302]],CW
440,[[11]],[[441]],[[19]],['low holistic'],['right'],['upright'],['U0361.bmp'],['female'],[[4]],['female'],[[1]],[[0.16174256]],CW
441,[[11]],[[442]],[[11]],['low holistic'],['right'],['upright'],['U0164.bmp'],['female'],[[8]],['female'],[[1]],[[1.01943367]],CW
442,[[11]],[[443]],[[3]],['high holistic'],['fovea'],['upright'],['U0020.bmp'],['male'],[[0]],['male'],[[1]],[[0.23417688]],CW
443,[[11]],[[444]],[[13]],['high holistic'],['right'],['inverted'],['U0181.bmp'],['female'],[[6]],['female'],[[1]],[[0.62489012]],CW
444,[[11]],[[445]],[[10]],['high holistic'],['fovea'],['inverted'],['U0159.bmp'],['male'],[[0]],['male'],[[1]],[[0.28796411]],CW
445,[[11]],[[446]],[[11]],['high holistic'],['right'],['inverted'],['U0164.bmp'],['female'],[[4]],['female'],[[1]],[[0.32381674]],CW
446,[[11]],[[447]],[[14]],['high holistic'],['left'],['inverted'],['U0228.bmp'],['male'],[[10]],['male'],[[1]],[[0.0458504]],CW
447,[[11]],[[448]],[[2]],['high holistic'],['right'],['upright'],['U0014.bmp'],['male'],[[6]],['female'],[[0]],[[0.1006174]],CW
448,[[11]],[[449]],[[6]],['high holistic'],['right'],['upright'],['U0106.bmp'],['female'],[[4]],['female'],[[1]],[[0.17675229]],CW
449,[[11]],[[450]],[[6]],['high holistic'],['right'],['inverted'],['U0106.bmp'],['female'],[[10]],['female'],[[1]],[[0.24805554]],CW
450,[[11]],[[451]],[[11]],['high holistic'],['left'],['inverted'],['U0164.bmp'],['female'],[[4]],['female'],[[1]],[[0.27753687]],CW
451,[[11]],[[452]],[[1]],['low holistic'],['right'],['inverted'],['U0006.bmp'],['female'],[[2]],['female'],[[1]],[[0.23595922]],CW
452,[[11]],[[453]],[[6]],['high holistic'],['left'],['inverted'],['U0106.bmp'],['female'],[[12]],['male'],[[0]],[[0.2978714]],CW
453,[[11]],[[454]],[[16]],['low holistic'],['left'],['upright'],['U0335.bmp'],['female'],[[10]],['female'],[[1]],[[0.1656017]],CW
454,[[11]],[[455]],[[20]],['low holistic'],['right'],['upright'],['U0362.bmp'],['male'],[[6]],['male'],[[1]],[[0.14974426]],CW
455,[[11]],[[456]],[[19]],['high holistic'],['left'],['inverted'],['U0361.bmp'],['female'],[[4]],['female'],[[1]],[[0.57476769]],CW
456,[[11]],[[457]],[[20]],['high holistic'],['left'],['inverted'],['U0362.bmp'],['female'],[[2]],['female'],[[1]],[[0.68076074]],CW
457,[[11]],[[458]],[[18]],['high holistic'],['right'],['inverted'],['U0359.bmp'],['male'],[[10]],['female'],[[0]],[[0.73273775]],CW
458,[[11]],[[459]],[[4]],['low holistic'],['left'],['inverted'],['U0061.bmp'],['female'],[[4]],['female'],[[1]],[[0.26277909]],CW
459,[[11]],[[460]],[[20]],['high holistic'],['left'],['inverted'],['U0362.bmp'],['female'],[[12]],['male'],[[0]],[[0.29966868]],CW
460,[[11]],[[461]],[[17]],['low holistic'],['right'],['upright'],['U0346.bmp'],['female'],[[2]],['female'],[[1]],[[0.35170193]],CW
461,[[11]],[[462]],[[13]],['low holistic'],['left'],['inverted'],['U0181.bmp'],['male'],[[4]],['male'],[[1]],[[0.34502481]],CW
462,[[11]],[[463]],[[12]],['low holistic'],['left'],['inverted'],['U0178.bmp'],['female'],[[4]],['female'],[[1]],[[0.25150565]],CW
463,[[11]],[[464]],[[19]],['low holistic'],['left'],['inverted'],['U0361.bmp'],['female'],[[6]],['female'],[[1]],[[0.17690306]],CW
464,[[11]],[[465]],[[17]],['low holistic'],['right'],['inverted'],['U0346.bmp'],['female'],[[10]],['female'],[[1]],[[0.2898808]],CW
465,[[11]],[[466]],[[15]],['low holistic'],['fovea'],['inverted'],['U0312.bmp'],['male'],[[0]],['male'],[[1]],[[0.20584513]],CW
466,[[11]],[[467]],[[5]],['high holistic'],['right'],['inverted'],['U0076.bmp'],['female'],[[8]],['male'],[[0]],[[0.27016656]],CW
467,[[11]],[[468]],[[10]],['high holistic'],['right'],['upright'],['U0159.bmp'],['male'],[[12]],['male'],[[1]],[[0.24135615]],CW
468,[[11]],[[469]],[[3]],['low holistic'],['left'],['inverted'],['U0020.bmp'],['female'],[[2]],['female'],[[1]],[[0.16795559]],CW
469,[[11]],[[470]],[[4]],['low holistic'],['left'],['inverted'],['U0061.bmp'],['female'],[[12]],['female'],[[1]],[[0.46389868]],CW
470,[[11]],[[471]],[[10]],['low holistic'],['right'],['inverted'],['U0159.bmp'],['female'],[[4]],['female'],[[1]],[[0.1584616]],CW
471,[[11]],[[472]],[[19]],['low holistic'],['right'],['inverted'],['U0361.bmp'],['female'],[[6]],['female'],[[1]],[[0.24759941]],CW
472,[[11]],[[473]],[[13]],['high holistic'],['right'],['upright'],['U0181.bmp'],['female'],[[8]],['female'],[[1]],[[0.34164886]],CW
473,[[11]],[[474]],[[3]],['low holistic'],['right'],['upright'],['U0020.bmp'],['female'],[[2]],['female'],[[1]],[[0.23849946]],CW
474,[[11]],[[475]],[[3]],['low holistic'],['left'],['inverted'],['U0020.bmp'],['female'],[[2]],['female'],[[1]],[[0.22173335]],CW
475,[[11]],[[476]],[[8]],['low holistic'],['fovea'],['inverted'],['U0137.bmp'],['male'],[[0]],['male'],[[1]],[[0.21095403]],CW
476,[[11]],[[477]],[[3]],['low holistic'],['fovea'],['inverted'],['U0020.bmp'],['female'],[[0]],['female'],[[1]],[[0.23432246]],CW
477,[[11]],[[478]],[[10]],['high holistic'],['right'],['upright'],['U0159.bmp'],['male'],[[8]],['male'],[[1]],[[0.75262691]],CW
478,[[11]],[[479]],[[14]],['high holistic'],['right'],['upright'],['U0228.bmp'],['male'],[[4]],['male'],[[1]],[[0.19558281]],CW
479,[[11]],[[480]],[[20]],['high holistic'],['left'],['upright'],['U0362.bmp'],['female'],[[4]],['male'],[[0]],[[0.27371358]],CW
480,[[11]],[[481]],[[7]],['high holistic'],['left'],['inverted'],['U0107.bmp'],['female'],[[10]],['male'],[[0]],[[0.18530309]],CW
481,[[11]],[[482]],[[18]],['high holistic'],['left'],['upright'],['U0359.bmp'],['male'],[[12]],['female'],[[0]],[[0.27309945]],CW
482,[[11]],[[483]],[[9]],['low holistic'],['right'],['upright'],['U0155.bmp'],['male'],[[6]],['male'],[[1]],[[0.12406736]],CW
483,[[11]],[[484]],[[11]],['low holistic'],['right'],['upright'],['U0164.bmp'],['female'],[[12]],['female'],[[1]],[[0.18479237]],CW
484,[[11]],[[485]],[[9]],['high holistic'],['right'],['upright'],['U0155.bmp'],['female'],[[4]],['female'],[[1]],[[0.43244751]],CW
485,[[11]],[[486]],[[16]],['low holistic'],['fovea'],['upright'],['U0335.bmp'],['female'],[[0]],['female'],[[1]],[[0.2069513]],CW
486,[[11]],[[487]],[[14]],['low holistic'],['left'],['upright'],['U0228.bmp'],['male'],[[4]],['male'],[[1]],[[0.29290726]],CW
487,[[11]],[[488]],[[14]],['high holistic'],['right'],['upright'],['U0228.bmp'],['male'],[[10]],['male'],[[1]],[[0.21842305]],CW
488,[[11]],[[489]],[[16]],['high holistic'],['left'],['upright'],['U0335.bmp'],['female'],[[2]],['female'],[[1]],[[0.36754897]],CW
489,[[11]],[[490]],[[7]],['high holistic'],['right'],['inverted'],['U0107.bmp'],['female'],[[8]],['male'],[[0]],[[0.21707396]],CW
490,[[11]],[[491]],[[5]],['low holistic'],['left'],['upright'],['U0076.bmp'],['male'],[[12]],['male'],[[1]],[[0.15366593]],CW
491,[[11]],[[492]],[[18]],['high holistic'],['right'],['upright'],['U0359.bmp'],['male'],[[10]],['female'],[[0]],[[0.5056547]],CW
492,[[11]],[[493]],[[8]],['low holistic'],['left'],['upright'],['U0137.bmp'],['male'],[[12]],['male'],[[1]],[[0.16512723]],CW
493,[[11]],[[494]],[[20]],['high holistic'],['right'],['inverted'],['U0362.bmp'],['female'],[[10]],['female'],[[1]],[[0.78158567]],CW
494,[[11]],[[495]],[[20]],['low holistic'],['right'],['upright'],['U0362.bmp'],['male'],[[8]],['male'],[[1]],[[0.15811598]],CW
495,[[11]],[[496]],[[14]],['high holistic'],['right'],['inverted'],['U0228.bmp'],['male'],[[8]],['male'],[[1]],[[0.6638813]],CW
496,[[11]],[[497]],[[13]],['low holistic'],['left'],['upright'],['U0181.bmp'],['male'],[[10]],['male'],[[1]],[[0.12601511]],CW
497,[[11]],[[498]],[[14]],['low holistic'],['left'],['upright'],['U0228.bmp'],['male'],[[6]],['male'],[[1]],[[0.19962763]],CW
498,[[11]],[[499]],[[8]],['high holistic'],['left'],['upright'],['U0137.bmp'],['female'],[[6]],['female'],[[1]],[[0.25490376]],CW
499,[[11]],[[500]],[[2]],['high holistic'],['right'],['inverted'],['U0014.bmp'],['male'],[[10]],['male'],[[1]],[[0.64391779]],CW
500,[[11]],[[501]],[[15]],['low holistic'],['left'],['upright'],['U0312.bmp'],['male'],[[10]],['male'],[[1]],[[0.00011243]],CW
501,[[11]],[[502]],[[18]],['low holistic'],['right'],['upright'],['U0359.bmp'],['male'],[[12]],['female'],[[0]],[[0.33022356]],CW
502,[[11]],[[503]],[[16]],['high holistic'],['left'],['upright'],['U0335.bmp'],['female'],[[8]],['female'],[[1]],[[0.21408106]],CW
503,[[11]],[[504]],[[17]],['high holistic'],['fovea'],['upright'],['U0346.bmp'],['male'],[[0]],['male'],[[1]],[[0.05961368]],CW
504,[[11]],[[505]],[[8]],['high holistic'],['right'],['inverted'],['U0137.bmp'],['female'],[[4]],['female'],[[1]],[[0.15218201]],CW
505,[[11]],[[506]],[[12]],['high holistic'],['right'],['upright'],['U0178.bmp'],['male'],[[10]],['male'],[[1]],[[0.25148425]],CW
506,[[11]],[[507]],[[4]],['high holistic'],['right'],['upright'],['U0061.bmp'],['female'],[[8]],['female'],[[1]],[[0.10437224]],CW
507,[[11]],[[508]],[[4]],['high holistic'],['left'],['upright'],['U0061.bmp'],['female'],[[2]],['female'],[[1]],[[0.0595686]],CW
508,[[11]],[[509]],[[11]],['high holistic'],['left'],['upright'],['U0164.bmp'],['female'],[[8]],['male'],[[0]],[[0.05672295]],CW
509,[[11]],[[510]],[[5]],['high holistic'],['right'],['upright'],['U0076.bmp'],['female'],[[8]],['female'],[[1]],[[0.31804497]],CW
510,[[11]],[[511]],[[20]],['low holistic'],['right'],['inverted'],['U0362.bmp'],['male'],[[12]],['male'],[[1]],[[0.05783461]],CW
511,[[11]],[[512]],[[15]],['low holistic'],['right'],['upright'],['U0312.bmp'],['male'],[[2]],['male'],[[1]],[[0.143703]],CW
512,[[11]],[[513]],[[13]],['low holistic'],['left'],['upright'],['U0181.bmp'],['male'],[[10]],['male'],[[1]],[[0.29743025]],CW
513,[[11]],[[514]],[[12]],['high holistic'],['right'],['upright'],['U0178.bmp'],['male'],[[10]],['male'],[[1]],[[0.21187296]],CW
514,[[11]],[[515]],[[2]],['low holistic'],['left'],['upright'],['U0014.bmp'],['male'],[[8]],['male'],[[1]],[[0.14852709]],CW
515,[[11]],[[516]],[[15]],['low holistic'],['right'],['upright'],['U0312.bmp'],['male'],[[12]],['male'],[[1]],[[0.07046923]],CW
516,[[11]],[[517]],[[18]],['high holistic'],['right'],['upright'],['U0359.bmp'],['male'],[[10]],['female'],[[0]],[[0.2410863]],CW
517,[[11]],[[518]],[[7]],['high holistic'],['left'],['inverted'],['U0107.bmp'],['female'],[[12]],['male'],[[0]],[[0.02387145]],CW
518,[[11]],[[519]],[[8]],['high holistic'],['left'],['upright'],['U0137.bmp'],['female'],[[12]],['female'],[[1]],[[0.18382999]],CW
519,[[11]],[[520]],[[7]],['low holistic'],['left'],['inverted'],['U0107.bmp'],['female'],[[8]],['female'],[[1]],[[0.10322975]],CW
520,[[11]],[[521]],[[3]],['low holistic'],['left'],['upright'],['U0020.bmp'],['female'],[[8]],['female'],[[1]],[[1.05631135]],CW
521,[[11]],[[522]],[[10]],['low holistic'],['right'],['upright'],['U0159.bmp'],['female'],[[2]],['female'],[[1]],[[0.14063208]],CW
522,[[11]],[[523]],[[16]],['low holistic'],['left'],['upright'],['U0335.bmp'],['female'],[[4]],['female'],[[1]],[[0.39182542]],CW
523,[[11]],[[524]],[[12]],['low holistic'],['right'],['upright'],['U0178.bmp'],['female'],[[2]],['female'],[[1]],[[0.30358083]],CW
524,[[11]],[[525]],[[18]],['low holistic'],['left'],['upright'],['U0359.bmp'],['male'],[[12]],['male'],[[1]],[[0.44383729]],CW
525,[[11]],[[526]],[[15]],['high holistic'],['right'],['inverted'],['U0312.bmp'],['male'],[[12]],['male'],[[1]],[[0.19470728]],CW
526,[[11]],[[527]],[[15]],['high holistic'],['fovea'],['inverted'],['U0312.bmp'],['male'],[[0]],['male'],[[1]],[[0.1773253]],CW
527,[[11]],[[528]],[[11]],['high holistic'],['left'],['upright'],['U0164.bmp'],['female'],[[10]],['female'],[[1]],[[0.69118024]],CW
528,[[11]],[[529]],[[4]],['low holistic'],['right'],['inverted'],['U0061.bmp'],['female'],[[6]],['female'],[[1]],[[0.23098255]],CW
529,[[11]],[[530]],[[16]],['high holistic'],['left'],['upright'],['U0335.bmp'],['female'],[[12]],['female'],[[1]],[[0.23522819]],CW
530,[[11]],[[531]],[[5]],['high holistic'],['left'],['upright'],['U0076.bmp'],['female'],[[10]],['female'],[[1]],[[0.20185024]],CW
531,[[11]],[[532]],[[15]],['high holistic'],['left'],['upright'],['U0312.bmp'],['male'],[[4]],['male'],[[1]],[[0.14708445]],CW
532,[[11]],[[533]],[[18]],['low holistic'],['right'],['inverted'],['U0359.bmp'],['male'],[[6]],['male'],[[1]],[[0.14053387]],CW
533,[[11]],[[534]],[[18]],['low holistic'],['right'],['upright'],['U0359.bmp'],['male'],[[8]],['male'],[[1]],[[0.04722387]],CW
534,[[11]],[[535]],[[14]],['low holistic'],['left'],['inverted'],['U0228.bmp'],['male'],[[2]],['female'],[[0]],[[0.10935975]],CW
535,[[11]],[[536]],[[6]],['low holistic'],['left'],['upright'],['U0106.bmp'],['male'],[[10]],['male'],[[1]],[[0.59070844]],CW
536,[[11]],[[537]],[[15]],['high holistic'],['left'],['upright'],['U0312.bmp'],['male'],[[2]],['male'],[[1]],[[0.14324291]],CW
537,[[11]],[[538]],[[10]],['low holistic'],['right'],['upright'],['U0159.bmp'],['female'],[[8]],['female'],[[1]],[[0.13770817]],CW
538,[[11]],[[539]],[[3]],['high holistic'],['right'],['inverted'],['U0020.bmp'],['male'],[[10]],['female'],[[0]],[[0.47568818]],CW
539,[[11]],[[540]],[[4]],['high holistic'],['right'],['inverted'],['U0061.bmp'],['female'],[[4]],['female'],[[1]],[[0.28894567]],CW
540,[[11]],[[541]],[[14]],['high holistic'],['left'],['inverted'],['U0228.bmp'],['male'],[[8]],['male'],[[1]],[[0.21252428]],CW
541,[[11]],[[542]],[[4]],['low holistic'],['right'],['upright'],['U0061.bmp'],['female'],[[12]],['female'],[[1]],[[0.43525843]],CW
542,[[11]],[[543]],[[5]],['low holistic'],['left'],['inverted'],['U0076.bmp'],['male'],[[6]],['male'],[[1]],[[0.28826763]],CW
543,[[11]],[[544]],[[16]],['low holistic'],['right'],['upright'],['U0335.bmp'],['female'],[[8]],['female'],[[1]],[[0.03616971]],CW
544,[[11]],[[545]],[[11]],['low holistic'],['left'],['inverted'],['U0164.bmp'],['female'],[[6]],['female'],[[1]],[[0.17162995]],CW
545,[[11]],[[546]],[[13]],['high holistic'],['right'],['inverted'],['U0181.bmp'],['female'],[[12]],['female'],[[1]],[[0.21363739]],CW
546,[[11]],[[547]],[[4]],['low holistic'],['fovea'],['inverted'],['U0061.bmp'],['female'],[[0]],['female'],[[1]],[[0.13098597]],CW
547,[[11]],[[548]],[[13]],['high holistic'],['left'],['upright'],['U0181.bmp'],['female'],[[12]],['male'],[[0]],[[0.26295201]],CW
548,[[11]],[[549]],[[15]],['low holistic'],['right'],['inverted'],['U0312.bmp'],['male'],[[4]],['female'],[[0]],[[0.2423505]],CW
549,[[11]],[[550]],[[8]],['high holistic'],['right'],['inverted'],['U0137.bmp'],['female'],[[6]],['female'],[[1]],[[0.12942992]],CW
550,[[11]],[[551]],[[20]],['high holistic'],['left'],['inverted'],['U0362.bmp'],['female'],[[4]],['male'],[[0]],[[0.62775593]],CW
551,[[11]],[[552]],[[5]],['high holistic'],['left'],['upright'],['U0076.bmp'],['female'],[[10]],['female'],[[1]],[[0.46557901]],CW
552,[[11]],[[553]],[[19]],['low holistic'],['right'],['inverted'],['U0361.bmp'],['female'],[[4]],['female'],[[1]],[[0.16678341]],CW
553,[[11]],[[554]],[[8]],['low holistic'],['right'],['upright'],['U0137.bmp'],['male'],[[2]],['male'],[[1]],[[0.1673955]],CW
554,[[11]],[[555]],[[5]],['high holistic'],['left'],['upright'],['U0076.bmp'],['female'],[[4]],['female'],[[1]],[[0.20011439]],CW
555,[[11]],[[556]],[[4]],['low holistic'],['left'],['inverted'],['U0061.bmp'],['female'],[[8]],['female'],[[1]],[[0.09032404]],CW
556,[[11]],[[557]],[[9]],['low holistic'],['left'],['upright'],['U0155.bmp'],['male'],[[12]],['male'],[[1]],[[0.21248654]],CW
557,[[11]],[[558]],[[9]],['high holistic'],['fovea'],['upright'],['U0155.bmp'],['female'],[[0]],['male'],[[0]],[[0.26874306]],CW
558,[[11]],[[559]],[[2]],['low holistic'],['left'],['inverted'],['U0014.bmp'],['male'],[[10]],['male'],[[1]],[[0.21754751]],CW
559,[[11]],[[560]],[[9]],['high holistic'],['right'],['inverted'],['U0155.bmp'],['female'],[[4]],['female'],[[1]],[[0.17495626]],CW
560,[[11]],[[561]],[[3]],['low holistic'],['right'],['inverted'],['U0020.bmp'],['female'],[[2]],['female'],[[1]],[[0.1691245]],CW
561,[[11]],[[562]],[[18]],['high holistic'],['right'],['inverted'],['U0359.bmp'],['male'],[[10]],['male'],[[1]],[[0.36924006]],CW
562,[[11]],[[563]],[[8]],['low holistic'],['right'],['inverted'],['U0137.bmp'],['male'],[[2]],['male'],[[1]],[[0.06705104]],CW
563,[[11]],[[564]],[[3]],['low holistic'],['left'],['upright'],['U0020.bmp'],['female'],[[10]],['male'],[[0]],[[0.51943482]],CW
564,[[11]],[[565]],[[7]],['high holistic'],['left'],['inverted'],['U0107.bmp'],['female'],[[4]],['female'],[[1]],[[0.26631157]],CW
565,[[11]],[[566]],[[14]],['high holistic'],['left'],['upright'],['U0228.bmp'],['male'],[[8]],['male'],[[1]],[[0.1525672]],CW
566,[[11]],[[567]],[[18]],['high holistic'],['right'],['inverted'],['U0359.bmp'],['male'],[[8]],['male'],[[1]],[[0.55428569]],CW
567,[[11]],[[568]],[[18]],['low holistic'],['right'],['inverted'],['U0359.bmp'],['male'],[[2]],['male'],[[1]],[[0.15436703]],CW
568,[[11]],[[569]],[[4]],['low holistic'],['left'],['inverted'],['U0061.bmp'],['female'],[[4]],['female'],[[1]],[[0.14776003]],CW
569,[[11]],[[570]],[[20]],['high holistic'],['right'],['inverted'],['U0362.bmp'],['female'],[[2]],['male'],[[0]],[[0.35000126]],CW
570,[[11]],[[571]],[[7]],['low holistic'],['left'],['inverted'],['U0107.bmp'],['female'],[[4]],['female'],[[1]],[[0.1362088]],CW
571,[[11]],[[572]],[[14]],['high holistic'],['left'],['inverted'],['U0228.bmp'],['male'],[[8]],['male'],[[1]],[[0.2338057]],CW
572,[[11]],[[573]],[[13]],['high holistic'],['left'],['upright'],['U0181.bmp'],['female'],[[4]],['male'],[[0]],[[0.34355398]],CW
573,[[11]],[[574]],[[7]],['low holistic'],['left'],['inverted'],['U0107.bmp'],['female'],[[10]],['female'],[[1]],[[0.23296422]],CW
574,[[11]],[[575]],[[18]],['high holistic'],['left'],['upright'],['U0359.bmp'],['male'],[[8]],['male'],[[1]],[[0.22369548]],CW
575,[[11]],[[576]],[[3]],['high holistic'],['left'],['upright'],['U0020.bmp'],['male'],[[2]],['male'],[[1]],[[0.1667546]],CW
576,[[11]],[[577]],[[3]],['high holistic'],['right'],['upright'],['U0020.bmp'],['male'],[[12]],['male'],[[1]],[[0.44811354]],CW
577,[[11]],[[578]],[[4]],['low holistic'],['right'],['inverted'],['U0061.bmp'],['female'],[[4]],['female'],[[1]],[[0.1726301]],CW
578,[[11]],[[579]],[[10]],['high holistic'],['right'],['inverted'],['U0159.bmp'],['male'],[[2]],['male'],[[1]],[[0.11734051]],CW
579,[[11]],[[580]],[[2]],['low holistic'],['left'],['upright'],['U0014.bmp'],['male'],[[2]],['male'],[[1]],[[0.11234599]],CW
580,[[11]],[[581]],[[14]],['high holistic'],['right'],['upright'],['U0228.bmp'],['male'],[[6]],['male'],[[1]],[[0.16457596]],CW
581,[[11]],[[582]],[[16]],['high holistic'],['left'],['upright'],['U0335.bmp'],['female'],[[10]],['female'],[[1]],[[0.20621054]],CW
582,[[11]],[[583]],[[2]],['low holistic'],['right'],['inverted'],['U0014.bmp'],['male'],[[2]],['male'],[[1]],[[0.16336137]],CW
583,[[11]],[[584]],[[15]],['high holistic'],['right'],['inverted'],['U0312.bmp'],['male'],[[4]],['male'],[[1]],[[0.45468155]],CW
584,[[11]],[[585]],[[16]],['high holistic'],['left'],['upright'],['U0335.bmp'],['female'],[[12]],['female'],[[1]],[[0.37197507]],CW
585,[[11]],[[586]],[[11]],['high holistic'],['right'],['upright'],['U0164.bmp'],['female'],[[6]],['male'],[[0]],[[0.00042055]],CW
586,[[11]],[[587]],[[16]],['high holistic'],['left'],['inverted'],['U0335.bmp'],['female'],[[4]],['female'],[[1]],[[0.07521083]],CW
587,[[11]],[[588]],[[20]],['low holistic'],['right'],['upright'],['U0362.bmp'],['male'],[[8]],['male'],[[1]],[[0.00024591]],CW
588,[[11]],[[589]],[[5]],['low holistic'],['right'],['inverted'],['U0076.bmp'],['male'],[[8]],['male'],[[1]],[[0.11112928]],CW
589,[[11]],[[590]],[[9]],['high holistic'],['right'],['inverted'],['U0155.bmp'],['female'],[[8]],['female'],[[1]],[[0.14779864]],CW
590,[[11]],[[591]],[[8]],['high holistic'],['left'],['inverted'],['U0137.bmp'],['female'],[[10]],['male'],[[0]],[[0.03681138]],CW
591,[[11]],[[592]],[[14]],['low holistic'],['right'],['upright'],['U0228.bmp'],['male'],[[12]],['male'],[[1]],[[0.00224695]],CW
592,[[11]],[[593]],[[20]],['low holistic'],['right'],['inverted'],['U0362.bmp'],['male'],[[10]],['male'],[[1]],[[9.91094857e-05]],CW
593,[[11]],[[594]],[[15]],['low holistic'],['right'],['inverted'],['U0312.bmp'],['male'],[[8]],['male'],[[1]],[[0.00323707]],CW
594,[[11]],[[595]],[[13]],['high holistic'],['left'],['inverted'],['U0181.bmp'],['female'],[[10]],['female'],[[1]],[[0.01724418]],CW
595,[[11]],[[596]],[[1]],['low holistic'],['fovea'],['upright'],['U0006.bmp'],['female'],[[0]],['female'],[[1]],[[0.00043053]],CW
596,[[11]],[[597]],[[7]],['low holistic'],['right'],['inverted'],['U0107.bmp'],['female'],[[4]],['female'],[[1]],[[0.00020486]],CW
597,[[11]],[[598]],[[19]],['high holistic'],['left'],['inverted'],['U0361.bmp'],['female'],[[2]],['male'],[[0]],[[0.24998993]],CW
598,[[11]],[[599]],[[4]],['low holistic'],['fovea'],['inverted'],['U0061.bmp'],['female'],[[0]],['female'],[[1]],[[0.10977762]],CW
599,[[11]],[[600]],[[4]],['low holistic'],['right'],['upright'],['U0061.bmp'],['female'],[[12]],['female'],[[1]],[[0.53865661]],CW
600,[[11]],[[601]],[[19]],['low holistic'],['right'],['upright'],['U0361.bmp'],['female'],[[4]],['female'],[[1]],[[0.588847]],CW
601,[[11]],[[602]],[[20]],['low holistic'],['right'],['upright'],['U0362.bmp'],['male'],[[6]],['male'],[[1]],[[0.0985408]],CW
602,[[11]],[[603]],[[5]],['low holistic'],['fovea'],['inverted'],['U0076.bmp'],['male'],[[0]],['female'],[[0]],[[0.15112112]],CW
603,[[11]],[[604]],[[18]],['high holistic'],['left'],['upright'],['U0359.bmp'],['male'],[[10]],['female'],[[0]],[[0.99282952]],CW
604,[[11]],[[605]],[[11]],['high holistic'],['fovea'],['inverted'],['U0164.bmp'],['female'],[[0]],['male'],[[0]],[[0.8006965]],CW
605,[[11]],[[606]],[[19]],['low holistic'],['right'],['inverted'],['U0361.bmp'],['female'],[[12]],['female'],[[1]],[[0.43960386]],CW
606,[[11]],[[607]],[[20]],['high holistic'],['left'],['inverted'],['U0362.bmp'],['female'],[[8]],['male'],[[0]],[[0.31710014]],CW
607,[[11]],[[608]],[[8]],['low holistic'],['right'],['upright'],['U0137.bmp'],['male'],[[10]],['male'],[[1]],[[0.47133974]],CW
608,[[11]],[[609]],[[8]],['high holistic'],['right'],['upright'],['U0137.bmp'],['female'],[[4]],['female'],[[1]],[[0.27630377]],CW
609,[[11]],[[610]],[[16]],['high holistic'],['right'],['upright'],['U0335.bmp'],['female'],[[8]],['female'],[[1]],[[0.24826106]],CW
610,[[11]],[[611]],[[15]],['low holistic'],['right'],['upright'],['U0312.bmp'],['male'],[[6]],['male'],[[1]],[[0.1899286]],CW
611,[[11]],[[612]],[[2]],['low holistic'],['left'],['inverted'],['U0014.bmp'],['male'],[[2]],['male'],[[1]],[[2.26188417]],CW
612,[[11]],[[613]],[[7]],['high holistic'],['left'],['inverted'],['U0107.bmp'],['female'],[[8]],['female'],[[1]],[[0.90824732]],CW
613,[[11]],[[614]],[[2]],['high holistic'],['left'],['upright'],['U0014.bmp'],['male'],[[4]],['male'],[[1]],[[0.38418641]],CW
614,[[11]],[[615]],[[16]],['low holistic'],['left'],['inverted'],['U0335.bmp'],['female'],[[10]],['female'],[[1]],[[0.21456798]],CW
615,[[11]],[[616]],[[11]],['low holistic'],['left'],['upright'],['U0164.bmp'],['female'],[[8]],['female'],[[1]],[[0.1342623]],CW
616,[[11]],[[617]],[[5]],['low holistic'],['right'],['inverted'],['U0076.bmp'],['male'],[[4]],['male'],[[1]],[[1.03341961]],CW
617,[[11]],[[618]],[[5]],['high holistic'],['right'],['inverted'],['U0076.bmp'],['female'],[[8]],['male'],[[0]],[[0.25598898]],CW
618,[[11]],[[619]],[[16]],['high holistic'],['right'],['inverted'],['U0335.bmp'],['female'],[[10]],['female'],[[1]],[[0.22008301]],CW
619,[[11]],[[620]],[[17]],['high holistic'],['right'],['upright'],['U0346.bmp'],['male'],[[4]],['male'],[[1]],[[0.1317105]],CW
620,[[11]],[[621]],[[17]],['high holistic'],['left'],['upright'],['U0346.bmp'],['male'],[[2]],['male'],[[1]],[[0.15684161]],CW
621,[[11]],[[622]],[[13]],['high holistic'],['left'],['upright'],['U0181.bmp'],['female'],[[10]],['male'],[[0]],[[0.62342682]],CW
622,[[11]],[[623]],[[10]],['low holistic'],['left'],['upright'],['U0159.bmp'],['female'],[[12]],['female'],[[1]],[[0.20646092]],CW
623,[[11]],[[624]],[[10]],['high holistic'],['fovea'],['upright'],['U0159.bmp'],['male'],[[0]],['male'],[[1]],[[0.1897052]],CW
624,[[11]],[[625]],[[4]],['high holistic'],['right'],['upright'],['U0061.bmp'],['female'],[[6]],['female'],[[1]],[[0.18156687]],CW
625,[[11]],[[626]],[[10]],['low holistic'],['left'],['upright'],['U0159.bmp'],['female'],[[12]],['female'],[[1]],[[0.18934705]],CW
626,[[11]],[[627]],[[10]],['low holistic'],['left'],['upright'],['U0159.bmp'],['female'],[[10]],['female'],[[1]],[[0.03696693]],CW
627,[[11]],[[628]],[[9]],['high holistic'],['left'],['upright'],['U0155.bmp'],['female'],[[6]],['male'],[[0]],[[0.63665668]],CW
628,[[11]],[[629]],[[13]],['high holistic'],['left'],['inverted'],['U0181.bmp'],['female'],[[12]],['male'],[[0]],[[0.71324797]],CW
629,[[11]],[[630]],[[8]],['high holistic'],['left'],['upright'],['U0137.bmp'],['female'],[[6]],['female'],[[1]],[[0.39032131]],CW
630,[[11]],[[631]],[[1]],['low holistic'],['right'],['upright'],['U0006.bmp'],['female'],[[8]],['female'],[[1]],[[0.11661404]],CW
631,[[11]],[[632]],[[20]],['high holistic'],['right'],['upright'],['U0362.bmp'],['female'],[[12]],['male'],[[0]],[[0.79139582]],CW
632,[[11]],[[633]],[[12]],['low holistic'],['right'],['inverted'],['U0178.bmp'],['female'],[[2]],['female'],[[1]],[[0.16824446]],CW
633,[[11]],[[634]],[[9]],['low holistic'],['left'],['upright'],['U0155.bmp'],['male'],[[2]],['female'],[[0]],[[0.12921281]],CW
634,[[11]],[[635]],[[5]],['high holistic'],['right'],['inverted'],['U0076.bmp'],['female'],[[4]],['male'],[[0]],[[0.62029562]],CW
635,[[11]],[[636]],[[8]],['high holistic'],['left'],['inverted'],['U0137.bmp'],['female'],[[10]],['female'],[[1]],[[0.8830851]],CW
636,[[11]],[[637]],[[8]],['low holistic'],['fovea'],['upright'],['U0137.bmp'],['male'],[[0]],['male'],[[1]],[[0.19975207]],CW
637,[[11]],[[638]],[[16]],['low holistic'],['right'],['inverted'],['U0335.bmp'],['female'],[[12]],['female'],[[1]],[[0.76743838]],CW
638,[[11]],[[639]],[[5]],['high holistic'],['left'],['upright'],['U0076.bmp'],['female'],[[10]],['male'],[[0]],[[0.43972048]],CW
639,[[11]],[[640]],[[19]],['high holistic'],['left'],['inverted'],['U0361.bmp'],['female'],[[6]],['female'],[[1]],[[0.38097905]],CW
640,[[11]],[[641]],[[15]],['high holistic'],['left'],['inverted'],['U0312.bmp'],['male'],[[6]],['female'],[[0]],[[0.74965847]],CW
641,[[11]],[[642]],[[8]],['high holistic'],['left'],['upright'],['U0137.bmp'],['female'],[[2]],['male'],[[0]],[[0.14420319]],CW
642,[[11]],[[643]],[[15]],['low holistic'],['left'],['inverted'],['U0312.bmp'],['male'],[[12]],['male'],[[1]],[[1.11379642]],CW
643,[[11]],[[644]],[[5]],['low holistic'],['left'],['upright'],['U0076.bmp'],['male'],[[2]],['male'],[[1]],[[0.2054254]],CW
644,[[11]],[[645]],[[5]],['low holistic'],['left'],['upright'],['U0076.bmp'],['male'],[[10]],['male'],[[1]],[[0.05126971]],CW
645,[[11]],[[646]],[[20]],['low holistic'],['left'],['upright'],['U0362.bmp'],['male'],[[2]],['male'],[[1]],[[0.17865983]],CW
646,[[11]],[[647]],[[18]],['high holistic'],['left'],['upright'],['U0359.bmp'],['male'],[[12]],['female'],[[0]],[[0.04948947]],CW
647,[[11]],[[648]],[[7]],['low holistic'],['fovea'],['inverted'],['U0107.bmp'],['female'],[[0]],['female'],[[1]],[[0.04743915]],CW
648,[[11]],[[649]],[[5]],['low holistic'],['right'],['inverted'],['U0076.bmp'],['male'],[[6]],['male'],[[1]],[[0.58219422]],CW
649,[[11]],[[650]],[[19]],['low holistic'],['fovea'],['inverted'],['U0361.bmp'],['female'],[[0]],['female'],[[1]],[[0.14833436]],CW
650,[[11]],[[651]],[[11]],['low holistic'],['left'],['inverted'],['U0164.bmp'],['female'],[[8]],['female'],[[1]],[[1.10565919]],CW
651,[[11]],[[652]],[[18]],['high holistic'],['right'],['inverted'],['U0359.bmp'],['male'],[[2]],['male'],[[1]],[[0.45255908]],CW
652,[[11]],[[653]],[[6]],['low holistic'],['right'],['inverted'],['U0106.bmp'],['male'],[[2]],['male'],[[1]],[[0.1938743]],CW
653,[[11]],[[654]],[[5]],['high holistic'],['right'],['upright'],['U0076.bmp'],['female'],[[4]],['female'],[[1]],[[0.21961552]],CW
654,[[11]],[[655]],[[10]],['low holistic'],['right'],['upright'],['U0159.bmp'],['female'],[[2]],['female'],[[1]],[[0.05673946]],CW
655,[[11]],[[656]],[[7]],['low holistic'],['left'],['upright'],['U0107.bmp'],['female'],[[4]],['female'],[[1]],[[0.18171506]],CW
656,[[11]],[[657]],[[1]],['low holistic'],['left'],['inverted'],['U0006.bmp'],['female'],[[8]],['female'],[[1]],[[0.14213844]],CW
657,[[11]],[[658]],[[18]],['high holistic'],['fovea'],['upright'],['U0359.bmp'],['male'],[[0]],['male'],[[1]],[[0.17585249]],CW
658,[[11]],[[659]],[[11]],['low holistic'],['right'],['inverted'],['U0164.bmp'],['female'],[[6]],['female'],[[1]],[[0.12178112]],CW
659,[[11]],[[660]],[[17]],['low holistic'],['left'],['inverted'],['U0346.bmp'],['female'],[[12]],['female'],[[1]],[[1.02793851]],CW
660,[[11]],[[661]],[[7]],['low holistic'],['right'],['upright'],['U0107.bmp'],['female'],[[4]],['female'],[[1]],[[0.15474088]],CW
661,[[11]],[[662]],[[8]],['high holistic'],['right'],['upright'],['U0137.bmp'],['female'],[[2]],['female'],[[1]],[[0.22045947]],CW
662,[[11]],[[663]],[[12]],['low holistic'],['right'],['inverted'],['U0178.bmp'],['female'],[[10]],['female'],[[1]],[[0.16903884]],CW
663,[[11]],[[664]],[[5]],['high holistic'],['right'],['inverted'],['U0076.bmp'],['female'],[[12]],['male'],[[0]],[[0.19482425]],CW
664,[[11]],[[665]],[[5]],['low holistic'],['right'],['upright'],['U0076.bmp'],['male'],[[6]],['male'],[[1]],[[0.11585805]],CW
665,[[11]],[[666]],[[5]],['low holistic'],['left'],['inverted'],['U0076.bmp'],['male'],[[10]],['male'],[[1]],[[0.16616749]],CW
666,[[11]],[[667]],[[6]],['low holistic'],['left'],['inverted'],['U0106.bmp'],['male'],[[12]],['male'],[[1]],[[0.32853538]],CW
667,[[11]],[[668]],[[7]],['low holistic'],['fovea'],['upright'],['U0107.bmp'],['female'],[[0]],['female'],[[1]],[[0.15245143]],CW
668,[[11]],[[669]],[[15]],['high holistic'],['left'],['upright'],['U0312.bmp'],['male'],[[2]],['male'],[[1]],[[0.52465343]],CW
669,[[11]],[[670]],[[1]],['low holistic'],['left'],['upright'],['U0006.bmp'],['female'],[[8]],['female'],[[1]],[[0.19772282]],CW
670,[[11]],[[671]],[[1]],['high holistic'],['right'],['upright'],['U0006.bmp'],['female'],[[10]],['female'],[[1]],[[0.16563455]],CW
671,[[11]],[[672]],[[3]],['high holistic'],['left'],['upright'],['U0020.bmp'],['male'],[[2]],['male'],[[1]],[[0.27149818]],CW
672,[[11]],[[673]],[[15]],['high holistic'],['right'],['upright'],['U0312.bmp'],['male'],[[6]],['male'],[[1]],[[0.17975045]],CW
673,[[11]],[[674]],[[19]],['high holistic'],['left'],['inverted'],['U0361.bmp'],['female'],[[8]],['female'],[[1]],[[0.52370586]],CW
674,[[11]],[[675]],[[9]],['low holistic'],['right'],['inverted'],['U0155.bmp'],['male'],[[4]],['male'],[[1]],[[0.59213127]],CW
675,[[11]],[[676]],[[2]],['low holistic'],['right'],['upright'],['U0014.bmp'],['male'],[[2]],['male'],[[1]],[[0.22168595]],CW
676,[[11]],[[677]],[[8]],['high holistic'],['left'],['upright'],['U0137.bmp'],['female'],[[6]],['female'],[[1]],[[0.37391369]],CW
677,[[11]],[[678]],[[10]],['high holistic'],['left'],['upright'],['U0159.bmp'],['male'],[[8]],['male'],[[1]],[[0.38311076]],CW
678,[[11]],[[679]],[[8]],['high holistic'],['fovea'],['upright'],['U0137.bmp'],['female'],[[0]],['female'],[[1]],[[0.27742579]],CW
679,[[11]],[[680]],[[14]],['high holistic'],['left'],['upright'],['U0228.bmp'],['male'],[[6]],['male'],[[1]],[[0.24416053]],CW
680,[[11]],[[681]],[[3]],['high holistic'],['left'],['inverted'],['U0020.bmp'],['male'],[[6]],['male'],[[1]],[[0.77664458]],CW
681,[[11]],[[682]],[[7]],['low holistic'],['right'],['inverted'],['U0107.bmp'],['female'],[[6]],['female'],[[1]],[[0.2414922]],CW
682,[[11]],[[683]],[[16]],['low holistic'],['left'],['upright'],['U0335.bmp'],['female'],[[8]],['female'],[[1]],[[0.23870604]],CW
683,[[11]],[[684]],[[17]],['high holistic'],['left'],['inverted'],['U0346.bmp'],['male'],[[8]],['male'],[[1]],[[0.24666915]],CW
684,[[11]],[[685]],[[6]],['low holistic'],['fovea'],['inverted'],['U0106.bmp'],['male'],[[0]],['male'],[[1]],[[0.26789243]],CW
685,[[11]],[[686]],[[1]],['low holistic'],['right'],['inverted'],['U0006.bmp'],['female'],[[10]],['female'],[[1]],[[0.11936163]],CW
686,[[11]],[[687]],[[5]],['high holistic'],['left'],['upright'],['U0076.bmp'],['female'],[[10]],['female'],[[1]],[[0.30816593]],CW
687,[[11]],[[688]],[[19]],['low holistic'],['right'],['inverted'],['U0361.bmp'],['female'],[[6]],['female'],[[1]],[[0.26979397]],CW
688,[[11]],[[689]],[[11]],['low holistic'],['right'],['upright'],['U0164.bmp'],['female'],[[8]],['female'],[[1]],[[0.19565579]],CW
689,[[11]],[[690]],[[15]],['low holistic'],['left'],['inverted'],['U0312.bmp'],['male'],[[4]],['male'],[[1]],[[0.19402253]],CW
690,[[11]],[[691]],[[10]],['high holistic'],['left'],['upright'],['U0159.bmp'],['male'],[[8]],['male'],[[1]],[[0.21116699]],CW
691,[[11]],[[692]],[[3]],['low holistic'],['right'],['upright'],['U0020.bmp'],['female'],[[2]],['female'],[[1]],[[0.14567663]],CW
692,[[11]],[[693]],[[6]],['low holistic'],['left'],['inverted'],['U0106.bmp'],['male'],[[8]],['male'],[[1]],[[0.48409357]],CW
693,[[11]],[[694]],[[18]],['high holistic'],['right'],['inverted'],['U0359.bmp'],['male'],[[4]],['male'],[[1]],[[0.2243]],CW
694,[[11]],[[695]],[[18]],['high holistic'],['left'],['inverted'],['U0359.bmp'],['male'],[[12]],['male'],[[1]],[[0.34406494]],CW
695,[[11]],[[696]],[[5]],['low holistic'],['left'],['inverted'],['U0076.bmp'],['male'],[[4]],['male'],[[1]],[[0.14599461]],CW
696,[[11]],[[697]],[[6]],['low holistic'],['right'],['upright'],['U0106.bmp'],['male'],[[10]],['male'],[[1]],[[0.25989427]],CW
697,[[11]],[[698]],[[11]],['high holistic'],['right'],['upright'],['U0164.bmp'],['female'],[[2]],['female'],[[1]],[[0.12827942]],CW
698,[[11]],[[699]],[[11]],['high holistic'],['left'],['inverted'],['U0164.bmp'],['female'],[[4]],['female'],[[1]],[[0.02760665]],CW
699,[[11]],[[700]],[[1]],['high holistic'],['left'],['upright'],['U0006.bmp'],['female'],[[6]],['female'],[[1]],[[0.19488298]],CW
700,[[11]],[[701]],[[19]],['low holistic'],['left'],['inverted'],['U0361.bmp'],['female'],[[2]],['female'],[[1]],[[0.17785965]],CW
701,[[11]],[[702]],[[12]],['low holistic'],['left'],['inverted'],['U0178.bmp'],['female'],[[2]],['female'],[[1]],[[0.16966212]],CW
702,[[11]],[[703]],[[8]],['high holistic'],['right'],['upright'],['U0137.bmp'],['female'],[[2]],['female'],[[1]],[[0.05804619]],CW
703,[[11]],[[704]],[[6]],['low holistic'],['right'],['upright'],['U0106.bmp'],['male'],[[10]],['female'],[[0]],[[0.52866692]],CW
704,[[11]],[[705]],[[5]],['low holistic'],['left'],['inverted'],['U0076.bmp'],['male'],[[6]],['male'],[[1]],[[0.23440013]],CW
705,[[11]],[[706]],[[18]],['high holistic'],['right'],['upright'],['U0359.bmp'],['male'],[[6]],['male'],[[1]],[[0.11493007]],CW
706,[[11]],[[707]],[[7]],['high holistic'],['right'],['upright'],['U0107.bmp'],['female'],[[6]],['female'],[[1]],[[0.46081281]],CW
707,[[11]],[[708]],[[10]],['high holistic'],['left'],['inverted'],['U0159.bmp'],['male'],[[10]],['female'],[[0]],[[0.5694086]],CW
708,[[11]],[[709]],[[5]],['high holistic'],['left'],['upright'],['U0076.bmp'],['female'],[[8]],['female'],[[1]],[[0.10736546]],CW
709,[[11]],[[710]],[[18]],['high holistic'],['right'],['inverted'],['U0359.bmp'],['male'],[[8]],['male'],[[1]],[[0.24556639]],CW
710,[[11]],[[711]],[[9]],['low holistic'],['left'],['upright'],['U0155.bmp'],['male'],[[8]],['female'],[[0]],[[0.15595369]],CW
711,[[11]],[[712]],[[11]],['high holistic'],['left'],['upright'],['U0164.bmp'],['female'],[[6]],['female'],[[1]],[[0.18193717]],CW
712,[[11]],[[713]],[[14]],['low holistic'],['left'],['upright'],['U0228.bmp'],['male'],[[8]],['male'],[[1]],[[0.14168423]],CW
713,[[11]],[[714]],[[16]],['high holistic'],['left'],['upright'],['U0335.bmp'],['female'],[[12]],['female'],[[1]],[[0.21552556]],CW
714,[[11]],[[715]],[[2]],['low holistic'],['left'],['upright'],['U0014.bmp'],['male'],[[12]],['male'],[[1]],[[0.04809928]],CW
715,[[11]],[[716]],[[20]],['high holistic'],['left'],['upright'],['U0362.bmp'],['female'],[[2]],['female'],[[1]],[[0.81154838]],CW
716,[[11]],[[717]],[[11]],['high holistic'],['left'],['inverted'],['U0164.bmp'],['female'],[[4]],['female'],[[1]],[[0.20195619]],CW
717,[[11]],[[718]],[[10]],['high holistic'],['fovea'],['upright'],['U0159.bmp'],['male'],[[0]],['male'],[[1]],[[0.14641998]],CW
718,[[11]],[[719]],[[2]],['high holistic'],['left'],['inverted'],['U0014.bmp'],['male'],[[6]],['female'],[[0]],[[0.12450375]],CW
719,[[11]],[[720]],[[20]],['low holistic'],['right'],['upright'],['U0362.bmp'],['male'],[[12]],['male'],[[1]],[[0.22207996]],CW
720,[[11]],[[721]],[[16]],['low holistic'],['left'],['upright'],['U0335.bmp'],['female'],[[2]],['female'],[[1]],[[0.21440508]],CW
721,[[11]],[[722]],[[10]],['low holistic'],['left'],['inverted'],['U0159.bmp'],['female'],[[12]],['female'],[[1]],[[0.20535041]],CW
722,[[11]],[[723]],[[16]],['high holistic'],['left'],['inverted'],['U0335.bmp'],['female'],[[6]],['female'],[[1]],[[0.20406906]],CW
723,[[11]],[[724]],[[20]],['low holistic'],['right'],['inverted'],['U0362.bmp'],['male'],[[6]],['male'],[[1]],[[0.01166002]],CW
724,[[11]],[[725]],[[17]],['low holistic'],['right'],['inverted'],['U0346.bmp'],['female'],[[6]],['female'],[[1]],[[0.25058029]],CW
725,[[11]],[[726]],[[16]],['low holistic'],['left'],['inverted'],['U0335.bmp'],['female'],[[6]],['female'],[[1]],[[0.15159683]],CW
726,[[11]],[[727]],[[7]],['low holistic'],['left'],['inverted'],['U0107.bmp'],['female'],[[10]],['female'],[[1]],[[0.18711696]],CW
727,[[11]],[[728]],[[17]],['high holistic'],['right'],['inverted'],['U0346.bmp'],['male'],[[8]],['male'],[[1]],[[0.32976169]],CW
728,[[11]],[[729]],[[3]],['high holistic'],['left'],['inverted'],['U0020.bmp'],['male'],[[2]],['male'],[[1]],[[0.33427589]],CW
729,[[11]],[[730]],[[8]],['high holistic'],['fovea'],['upright'],['U0137.bmp'],['female'],[[0]],['female'],[[1]],[[0.17586989]],CW
730,[[11]],[[731]],[[17]],['low holistic'],['fovea'],['upright'],['U0346.bmp'],['female'],[[0]],['female'],[[1]],[[0.18380465]],CW
731,[[11]],[[732]],[[4]],['high holistic'],['fovea'],['inverted'],['U0061.bmp'],['female'],[[0]],['female'],[[1]],[[0.19987497]],CW
732,[[11]],[[733]],[[2]],['high holistic'],['right'],['inverted'],['U0014.bmp'],['male'],[[2]],['male'],[[1]],[[0.41658509]],CW
733,[[11]],[[734]],[[20]],['high holistic'],['left'],['inverted'],['U0362.bmp'],['female'],[[10]],['male'],[[0]],[[0.57432056]],CW
734,[[11]],[[735]],[[10]],['low holistic'],['left'],['upright'],['U0159.bmp'],['female'],[[6]],['female'],[[1]],[[0.07949589]],CW
735,[[11]],[[736]],[[9]],['high holistic'],['left'],['upright'],['U0155.bmp'],['female'],[[4]],['female'],[[1]],[[0.6196679]],CW
736,[[11]],[[737]],[[7]],['high holistic'],['right'],['inverted'],['U0107.bmp'],['female'],[[12]],['male'],[[0]],[[0.32199389]],CW
737,[[11]],[[738]],[[7]],['low holistic'],['fovea'],['upright'],['U0107.bmp'],['female'],[[0]],['female'],[[1]],[[0.18240907]],CW
738,[[11]],[[739]],[[2]],['low holistic'],['left'],['upright'],['U0014.bmp'],['male'],[[10]],['male'],[[1]],[[0.11825297]],CW
739,[[11]],[[740]],[[2]],['low holistic'],['left'],['inverted'],['U0014.bmp'],['male'],[[10]],['male'],[[1]],[[0.00046431]],CW
740,[[11]],[[741]],[[16]],['high holistic'],['left'],['inverted'],['U0335.bmp'],['female'],[[4]],['female'],[[1]],[[0.28906718]],CW
741,[[11]],[[742]],[[2]],['low holistic'],['right'],['inverted'],['U0014.bmp'],['male'],[[10]],['male'],[[1]],[[0.28411653]],CW
742,[[11]],[[743]],[[18]],['high holistic'],['right'],['inverted'],['U0359.bmp'],['male'],[[4]],['male'],[[1]],[[0.20943096]],CW
743,[[11]],[[744]],[[19]],['low holistic'],['right'],['upright'],['U0361.bmp'],['female'],[[8]],['female'],[[1]],[[0.21562848]],CW
744,[[11]],[[745]],[[7]],['low holistic'],['left'],['upright'],['U0107.bmp'],['female'],[[4]],['female'],[[1]],[[0.18284664]],CW
745,[[11]],[[746]],[[6]],['low holistic'],['right'],['upright'],['U0106.bmp'],['male'],[[10]],['female'],[[0]],[[0.33421526]],CW
746,[[11]],[[747]],[[20]],['high holistic'],['right'],['upright'],['U0362.bmp'],['female'],[[12]],['male'],[[0]],[[0.11261895]],CW
747,[[11]],[[748]],[[16]],['high holistic'],['left'],['upright'],['U0335.bmp'],['female'],[[2]],['female'],[[1]],[[0.16474617]],CW
748,[[11]],[[749]],[[8]],['low holistic'],['right'],['upright'],['U0137.bmp'],['male'],[[12]],['male'],[[1]],[[0.22992473]],CW
749,[[11]],[[750]],[[12]],['low holistic'],['right'],['inverted'],['U0178.bmp'],['female'],[[6]],['female'],[[1]],[[0.18722342]],CW
750,[[11]],[[751]],[[8]],['high holistic'],['left'],['upright'],['U0137.bmp'],['female'],[[8]],['female'],[[1]],[[0.30072876]],CW
751,[[11]],[[752]],[[19]],['low holistic'],['right'],['inverted'],['U0361.bmp'],['female'],[[8]],['female'],[[1]],[[0.13514997]],CW
752,[[11]],[[753]],[[6]],['high holistic'],['right'],['upright'],['U0106.bmp'],['female'],[[12]],['male'],[[0]],[[0.54580942]],CW
753,[[11]],[[754]],[[6]],['low holistic'],['left'],['upright'],['U0106.bmp'],['male'],[[6]],['male'],[[1]],[[0.2194821]],CW
754,[[11]],[[755]],[[1]],['high holistic'],['right'],['upright'],['U0006.bmp'],['female'],[[6]],['female'],[[1]],[[0.20071359]],CW
755,[[11]],[[756]],[[9]],['high holistic'],['fovea'],['inverted'],['U0155.bmp'],['female'],[[0]],['female'],[[1]],[[0.42533097]],CW
756,[[11]],[[757]],[[2]],['low holistic'],['right'],['inverted'],['U0014.bmp'],['male'],[[4]],['male'],[[1]],[[0.22336615]],CW
757,[[11]],[[758]],[[2]],['low holistic'],['fovea'],['upright'],['U0014.bmp'],['male'],[[0]],['male'],[[1]],[[0.00010822]],CW
758,[[11]],[[759]],[[7]],['low holistic'],['left'],['inverted'],['U0107.bmp'],['female'],[[8]],['female'],[[1]],[[0.09468593]],CW
759,[[11]],[[760]],[[19]],['high holistic'],['left'],['upright'],['U0361.bmp'],['female'],[[4]],['female'],[[1]],[[0.1533313]],CW
760,[[11]],[[761]],[[15]],['low holistic'],['right'],['inverted'],['U0312.bmp'],['male'],[[6]],['male'],[[1]],[[0.30011476]],CW
761,[[11]],[[762]],[[13]],['low holistic'],['right'],['inverted'],['U0181.bmp'],['male'],[[10]],['male'],[[1]],[[0.21584806]],CW
762,[[11]],[[763]],[[4]],['high holistic'],['right'],['inverted'],['U0061.bmp'],['female'],[[2]],['female'],[[1]],[[0.13422385]],CW
763,[[11]],[[764]],[[8]],['low holistic'],['left'],['inverted'],['U0137.bmp'],['male'],[[6]],['male'],[[1]],[[0.28704648]],CW
764,[[11]],[[765]],[[18]],['low holistic'],['right'],['inverted'],['U0359.bmp'],['male'],[[2]],['male'],[[1]],[[0.16471571]],CW
765,[[11]],[[766]],[[14]],['high holistic'],['left'],['inverted'],['U0228.bmp'],['male'],[[10]],['male'],[[1]],[[0.22879468]],CW
766,[[11]],[[767]],[[8]],['low holistic'],['left'],['inverted'],['U0137.bmp'],['male'],[[6]],['male'],[[1]],[[0.09157499]],CW
767,[[11]],[[768]],[[5]],['low holistic'],['left'],['upright'],['U0076.bmp'],['male'],[[8]],['male'],[[1]],[[0.12630737]],CW
768,[[11]],[[769]],[[15]],['high holistic'],['right'],['inverted'],['U0312.bmp'],['male'],[[6]],['female'],[[0]],[[0.21717031]],CW
769,[[11]],[[770]],[[18]],['low holistic'],['right'],['inverted'],['U0359.bmp'],['male'],[[8]],['male'],[[1]],[[0.19132871]],CW
770,[[11]],[[771]],[[9]],['low holistic'],['right'],['inverted'],['U0155.bmp'],['male'],[[2]],['male'],[[1]],[[0.16775177]],CW
771,[[11]],[[772]],[[13]],['high holistic'],['left'],['inverted'],['U0181.bmp'],['female'],[[10]],['female'],[[1]],[[0.20937674]],CW
772,[[11]],[[773]],[[8]],['high holistic'],['right'],['inverted'],['U0137.bmp'],['female'],[[4]],['female'],[[1]],[[0.30440121]],CW
