,SUBID,TRIAL,MOONEYID,MOONEYCATEGORY,LOC,COND,MOONEY_NAME,MOONEY_GENDER,ECCENTRICITY,RESPONSE,ACCURACY,RT,SUBINIT
0,[[22]],[[1]],[[16]],['low holistic'],['right'],['upright'],['U0335.bmp'],['female'],[[2]],['female'],[[1]],[[0.18641946]],DD
1,[[22]],[[2]],[[12]],['high holistic'],['right'],['upright'],['U0178.bmp'],['male'],[[4]],['male'],[[1]],[[0.34762596]],DD
2,[[22]],[[3]],[[19]],['high holistic'],['left'],['upright'],['U0361.bmp'],['female'],[[2]],['female'],[[1]],[[0.29456254]],DD
3,[[22]],[[4]],[[6]],['low holistic'],['right'],['upright'],['U0106.bmp'],['male'],[[8]],['male'],[[1]],[[0.48145858]],DD
4,[[22]],[[5]],[[14]],['high holistic'],['left'],['inverted'],['U0228.bmp'],['male'],[[6]],['male'],[[1]],[[0.18312319]],DD
5,[[22]],[[6]],[[15]],['high holistic'],['left'],['inverted'],['U0312.bmp'],['male'],[[4]],['male'],[[1]],[[0.67917947]],DD
6,[[22]],[[7]],[[6]],['low holistic'],['left'],['upright'],['U0106.bmp'],['male'],[[2]],['male'],[[1]],[[0.18044694]],DD
7,[[22]],[[8]],[[7]],['high holistic'],['right'],['upright'],['U0107.bmp'],['female'],[[12]],['male'],[[0]],[[0.14265406]],DD
8,[[22]],[[9]],[[4]],['low holistic'],['right'],['inverted'],['U0061.bmp'],['female'],[[2]],['female'],[[1]],[[0.04913179]],DD
9,[[22]],[[10]],[[16]],['low holistic'],['right'],['upright'],['U0335.bmp'],['female'],[[8]],['female'],[[1]],[[0.1006622]],DD
10,[[22]],[[11]],[[10]],['low holistic'],['left'],['inverted'],['U0159.bmp'],['female'],[[12]],['female'],[[1]],[[0.08329124]],DD
11,[[22]],[[12]],[[13]],['high holistic'],['left'],['inverted'],['U0181.bmp'],['female'],[[2]],['female'],[[1]],[[0.30958124]],DD
12,[[22]],[[13]],[[15]],['high holistic'],['right'],['inverted'],['U0312.bmp'],['male'],[[10]],['male'],[[1]],[[0.17941452]],DD
13,[[22]],[[14]],[[12]],['low holistic'],['left'],['inverted'],['U0178.bmp'],['female'],[[12]],['female'],[[1]],[[0.01172953]],DD
14,[[22]],[[15]],[[6]],['low holistic'],['right'],['upright'],['U0106.bmp'],['male'],[[8]],['female'],[[0]],[[0.20447989]],DD
15,[[22]],[[16]],[[12]],['low holistic'],['left'],['inverted'],['U0178.bmp'],['female'],[[8]],['female'],[[1]],[[0.14742132]],DD
16,[[22]],[[17]],[[13]],['low holistic'],['right'],['inverted'],['U0181.bmp'],['male'],[[12]],['male'],[[1]],[[0.19834901]],DD
17,[[22]],[[18]],[[10]],['high holistic'],['right'],['inverted'],['U0159.bmp'],['male'],[[6]],['female'],[[0]],[[0.1881857]],DD
18,[[22]],[[19]],[[10]],['low holistic'],['right'],['upright'],['U0159.bmp'],['female'],[[6]],['female'],[[1]],[[0.00011452]],DD
19,[[22]],[[20]],[[14]],['high holistic'],['left'],['upright'],['U0228.bmp'],['male'],[[8]],['male'],[[1]],[[0.06907393]],DD
20,[[22]],[[21]],[[17]],['high holistic'],['right'],['upright'],['U0346.bmp'],['male'],[[10]],['male'],[[1]],[[0.02649705]],DD
21,[[22]],[[22]],[[10]],['low holistic'],['left'],['inverted'],['U0159.bmp'],['female'],[[12]],['female'],[[1]],[[0.02570126]],DD
22,[[22]],[[23]],[[4]],['low holistic'],['right'],['inverted'],['U0061.bmp'],['female'],[[4]],['female'],[[1]],[[0.00021643]],DD
23,[[22]],[[24]],[[18]],['low holistic'],['left'],['inverted'],['U0359.bmp'],['male'],[[6]],['male'],[[1]],[[0.06473102]],DD
24,[[22]],[[25]],[[4]],['low holistic'],['left'],['inverted'],['U0061.bmp'],['female'],[[2]],['female'],[[1]],[[0.05615632]],DD
25,[[22]],[[26]],[[18]],['high holistic'],['left'],['inverted'],['U0359.bmp'],['male'],[[10]],['male'],[[1]],[[0.18041836]],DD
26,[[22]],[[27]],[[3]],['high holistic'],['left'],['upright'],['U0020.bmp'],['male'],[[2]],['male'],[[1]],[[0.05404525]],DD
27,[[22]],[[28]],[[16]],['low holistic'],['left'],['upright'],['U0335.bmp'],['female'],[[12]],['female'],[[1]],[[0.02049067]],DD
28,[[22]],[[29]],[[4]],['low holistic'],['right'],['upright'],['U0061.bmp'],['female'],[[10]],['female'],[[1]],[[0.00294853]],DD
29,[[22]],[[30]],[[3]],['low holistic'],['right'],['inverted'],['U0020.bmp'],['female'],[[2]],['male'],[[0]],[[0.18607212]],DD
30,[[22]],[[31]],[[7]],['low holistic'],['right'],['upright'],['U0107.bmp'],['female'],[[8]],['female'],[[1]],[[0.00012451]],DD
31,[[22]],[[32]],[[14]],['high holistic'],['right'],['upright'],['U0228.bmp'],['male'],[[10]],['female'],[[0]],[[0.18007187]],DD
32,[[22]],[[33]],[[6]],['high holistic'],['right'],['inverted'],['U0106.bmp'],['female'],[[10]],['female'],[[1]],[[0.74812958]],DD
33,[[22]],[[34]],[[11]],['high holistic'],['left'],['upright'],['U0164.bmp'],['female'],[[4]],['male'],[[0]],[[0.01563371]],DD
34,[[22]],[[35]],[[7]],['high holistic'],['left'],['upright'],['U0107.bmp'],['female'],[[6]],['female'],[[1]],[[0.32430843]],DD
35,[[22]],[[36]],[[5]],['low holistic'],['left'],['upright'],['U0076.bmp'],['male'],[[2]],['female'],[[0]],[[0.08994721]],DD
36,[[22]],[[37]],[[19]],['high holistic'],['right'],['upright'],['U0361.bmp'],['female'],[[10]],['male'],[[0]],[[1.22864099]],DD
37,[[22]],[[38]],[[11]],['low holistic'],['left'],['upright'],['U0164.bmp'],['female'],[[10]],['male'],[[0]],[[0.05944727]],DD
38,[[22]],[[39]],[[8]],['high holistic'],['left'],['upright'],['U0137.bmp'],['female'],[[2]],['female'],[[1]],[[0.10724219]],DD
39,[[22]],[[40]],[[16]],['high holistic'],['right'],['inverted'],['U0335.bmp'],['female'],[[8]],['male'],[[0]],[[0.73430289]],DD
40,[[22]],[[41]],[[11]],['high holistic'],['left'],['inverted'],['U0164.bmp'],['female'],[[8]],['male'],[[0]],[[0.00010185]],DD
41,[[22]],[[42]],[[20]],['high holistic'],['right'],['inverted'],['U0362.bmp'],['female'],[[8]],['female'],[[1]],[[0.04029355]],DD
42,[[22]],[[43]],[[6]],['low holistic'],['right'],['inverted'],['U0106.bmp'],['male'],[[4]],['male'],[[1]],[[0.00741897]],DD
43,[[22]],[[44]],[[18]],['high holistic'],['right'],['upright'],['U0359.bmp'],['male'],[[4]],['female'],[[0]],[[0.08617428]],DD
44,[[22]],[[45]],[[19]],['low holistic'],['right'],['upright'],['U0361.bmp'],['female'],[[8]],['female'],[[1]],[[0.02776498]],DD
45,[[22]],[[46]],[[18]],['high holistic'],['left'],['inverted'],['U0359.bmp'],['male'],[[6]],['female'],[[0]],[[0.01849374]],DD
46,[[22]],[[47]],[[6]],['low holistic'],['left'],['inverted'],['U0106.bmp'],['male'],[[8]],['male'],[[1]],[[0.10616232]],DD
47,[[22]],[[48]],[[9]],['high holistic'],['left'],['upright'],['U0155.bmp'],['female'],[[10]],['male'],[[0]],[[0.59581566]],DD
48,[[22]],[[49]],[[19]],['high holistic'],['right'],['inverted'],['U0361.bmp'],['female'],[[4]],['male'],[[0]],[[0.00046867]],DD
49,[[22]],[[50]],[[3]],['low holistic'],['fovea'],['inverted'],['U0020.bmp'],['female'],[[0]],['female'],[[1]],[[0.06089322]],DD
50,[[22]],[[51]],[[17]],['low holistic'],['left'],['upright'],['U0346.bmp'],['female'],[[8]],['female'],[[1]],[[0.09165159]],DD
51,[[22]],[[52]],[[15]],['low holistic'],['left'],['inverted'],['U0312.bmp'],['male'],[[4]],['male'],[[1]],[[0.38263171]],DD
52,[[22]],[[53]],[[12]],['high holistic'],['left'],['upright'],['U0178.bmp'],['male'],[[8]],['male'],[[1]],[[0.2728155]],DD
53,[[22]],[[54]],[[7]],['low holistic'],['right'],['upright'],['U0107.bmp'],['female'],[[10]],['female'],[[1]],[[0.23006198]],DD
54,[[22]],[[55]],[[12]],['high holistic'],['right'],['inverted'],['U0178.bmp'],['male'],[[12]],['female'],[[0]],[[1.42776972]],DD
55,[[22]],[[56]],[[8]],['low holistic'],['right'],['inverted'],['U0137.bmp'],['male'],[[12]],['male'],[[1]],[[0.00012068]],DD
56,[[22]],[[57]],[[8]],['high holistic'],['left'],['upright'],['U0137.bmp'],['female'],[[6]],['female'],[[1]],[[0.25102594]],DD
57,[[22]],[[58]],[[10]],['high holistic'],['right'],['inverted'],['U0159.bmp'],['male'],[[8]],['female'],[[0]],[[0.12067836]],DD
58,[[22]],[[59]],[[17]],['high holistic'],['right'],['inverted'],['U0346.bmp'],['male'],[[10]],['male'],[[1]],[[0.10100242]],DD
59,[[22]],[[60]],[[12]],['low holistic'],['right'],['upright'],['U0178.bmp'],['female'],[[6]],['female'],[[1]],[[0.12949631]],DD
60,[[22]],[[61]],[[6]],['low holistic'],['left'],['inverted'],['U0106.bmp'],['male'],[[8]],['male'],[[1]],[[0.20496959]],DD
61,[[22]],[[62]],[[9]],['low holistic'],['left'],['upright'],['U0155.bmp'],['male'],[[10]],['male'],[[1]],[[0.10892097]],DD
62,[[22]],[[63]],[[13]],['high holistic'],['fovea'],['upright'],['U0181.bmp'],['female'],[[0]],['female'],[[1]],[[0.13616263]],DD
63,[[22]],[[64]],[[15]],['low holistic'],['left'],['upright'],['U0312.bmp'],['male'],[[2]],['male'],[[1]],[[0.0976207]],DD
64,[[22]],[[65]],[[9]],['low holistic'],['right'],['upright'],['U0155.bmp'],['male'],[[6]],['male'],[[1]],[[0.1981811]],DD
65,[[22]],[[66]],[[18]],['high holistic'],['left'],['upright'],['U0359.bmp'],['male'],[[2]],['male'],[[1]],[[0.06285493]],DD
66,[[22]],[[67]],[[16]],['low holistic'],['right'],['upright'],['U0335.bmp'],['female'],[[4]],['female'],[[1]],[[0.00012455]],DD
67,[[22]],[[68]],[[8]],['high holistic'],['left'],['inverted'],['U0137.bmp'],['female'],[[6]],['male'],[[0]],[[0.01377641]],DD
68,[[22]],[[69]],[[19]],['high holistic'],['right'],['upright'],['U0361.bmp'],['female'],[[4]],['female'],[[1]],[[0.04348321]],DD
69,[[22]],[[70]],[[1]],['high holistic'],['left'],['upright'],['U0006.bmp'],['female'],[[4]],['female'],[[1]],[[0.08999453]],DD
70,[[22]],[[71]],[[7]],['low holistic'],['right'],['inverted'],['U0107.bmp'],['female'],[[4]],['female'],[[1]],[[0.11100301]],DD
71,[[22]],[[72]],[[15]],['high holistic'],['left'],['inverted'],['U0312.bmp'],['male'],[[8]],['male'],[[1]],[[0.42005165]],DD
72,[[22]],[[73]],[[19]],['high holistic'],['right'],['upright'],['U0361.bmp'],['female'],[[12]],['female'],[[1]],[[1.28178807]],DD
73,[[22]],[[74]],[[17]],['low holistic'],['right'],['upright'],['U0346.bmp'],['female'],[[12]],['male'],[[0]],[[1.10214444]],DD
74,[[22]],[[75]],[[18]],['high holistic'],['left'],['upright'],['U0359.bmp'],['male'],[[8]],['male'],[[1]],[[0.12985847]],DD
75,[[22]],[[76]],[[2]],['high holistic'],['right'],['inverted'],['U0014.bmp'],['male'],[[6]],['female'],[[0]],[[0.23697205]],DD
76,[[22]],[[77]],[[15]],['high holistic'],['right'],['inverted'],['U0312.bmp'],['male'],[[2]],['male'],[[1]],[[0.20446041]],DD
77,[[22]],[[78]],[[8]],['high holistic'],['left'],['upright'],['U0137.bmp'],['female'],[[8]],['male'],[[0]],[[9.91057605e-05]],DD
78,[[22]],[[79]],[[1]],['high holistic'],['right'],['inverted'],['U0006.bmp'],['female'],[[6]],['female'],[[1]],[[0.68399321]],DD
79,[[22]],[[80]],[[5]],['high holistic'],['left'],['upright'],['U0076.bmp'],['female'],[[12]],['female'],[[1]],[[0.92730234]],DD
80,[[22]],[[81]],[[19]],['low holistic'],['left'],['inverted'],['U0361.bmp'],['female'],[[4]],['female'],[[1]],[[0.05946366]],DD
81,[[22]],[[82]],[[7]],['low holistic'],['fovea'],['inverted'],['U0107.bmp'],['female'],[[0]],['female'],[[1]],[[0.00010681]],DD
82,[[22]],[[83]],[[18]],['high holistic'],['left'],['upright'],['U0359.bmp'],['male'],[[12]],['female'],[[0]],[[0.39321342]],DD
83,[[22]],[[84]],[[6]],['low holistic'],['left'],['inverted'],['U0106.bmp'],['male'],[[4]],['male'],[[1]],[[0.18622071]],DD
84,[[22]],[[85]],[[6]],['high holistic'],['left'],['upright'],['U0106.bmp'],['female'],[[4]],['female'],[[1]],[[0.06663641]],DD
85,[[22]],[[86]],[[14]],['low holistic'],['right'],['upright'],['U0228.bmp'],['male'],[[2]],['male'],[[1]],[[0.07830534]],DD
86,[[22]],[[87]],[[16]],['low holistic'],['left'],['upright'],['U0335.bmp'],['female'],[[4]],['female'],[[1]],[[0.00016276]],DD
87,[[22]],[[88]],[[1]],['high holistic'],['right'],['upright'],['U0006.bmp'],['female'],[[6]],['female'],[[1]],[[0.18795075]],DD
88,[[22]],[[89]],[[4]],['low holistic'],['right'],['upright'],['U0061.bmp'],['female'],[[2]],['female'],[[1]],[[0.13277867]],DD
89,[[22]],[[90]],[[9]],['low holistic'],['left'],['upright'],['U0155.bmp'],['male'],[[2]],['male'],[[1]],[[0.19293207]],DD
90,[[22]],[[91]],[[12]],['low holistic'],['left'],['upright'],['U0178.bmp'],['female'],[[10]],['female'],[[1]],[[0.2241037]],DD
91,[[22]],[[92]],[[2]],['low holistic'],['left'],['inverted'],['U0014.bmp'],['male'],[[10]],['female'],[[0]],[[0.07084116]],DD
92,[[22]],[[93]],[[6]],['high holistic'],['left'],['inverted'],['U0106.bmp'],['female'],[[4]],['female'],[[1]],[[0.13274442]],DD
93,[[22]],[[94]],[[15]],['high holistic'],['left'],['inverted'],['U0312.bmp'],['male'],[[4]],['female'],[[0]],[[0.62134502]],DD
94,[[22]],[[95]],[[20]],['high holistic'],['left'],['inverted'],['U0362.bmp'],['female'],[[10]],['female'],[[1]],[[0.02058146]],DD
95,[[22]],[[96]],[[5]],['high holistic'],['right'],['inverted'],['U0076.bmp'],['female'],[[4]],['female'],[[1]],[[0.31671198]],DD
96,[[22]],[[97]],[[15]],['high holistic'],['fovea'],['upright'],['U0312.bmp'],['male'],[[0]],['male'],[[1]],[[0.48038243]],DD
97,[[22]],[[98]],[[18]],['low holistic'],['right'],['upright'],['U0359.bmp'],['male'],[[4]],['male'],[[1]],[[0.95787688]],DD
98,[[22]],[[99]],[[9]],['low holistic'],['left'],['inverted'],['U0155.bmp'],['male'],[[12]],['male'],[[1]],[[0.59041655]],DD
99,[[22]],[[100]],[[5]],['low holistic'],['right'],['upright'],['U0076.bmp'],['male'],[[8]],['female'],[[0]],[[0.18325258]],DD
100,[[22]],[[101]],[[9]],['low holistic'],['right'],['inverted'],['U0155.bmp'],['male'],[[6]],['female'],[[0]],[[0.16060373]],DD
101,[[22]],[[102]],[[9]],['low holistic'],['left'],['upright'],['U0155.bmp'],['male'],[[4]],['male'],[[1]],[[0.23247648]],DD
102,[[22]],[[103]],[[9]],['low holistic'],['left'],['upright'],['U0155.bmp'],['male'],[[12]],['male'],[[1]],[[0.16067196]],DD
103,[[22]],[[104]],[[8]],['high holistic'],['left'],['upright'],['U0137.bmp'],['female'],[[2]],['female'],[[1]],[[0.14678391]],DD
104,[[22]],[[105]],[[9]],['low holistic'],['right'],['inverted'],['U0155.bmp'],['male'],[[12]],['male'],[[1]],[[0.12405173]],DD
105,[[22]],[[106]],[[15]],['high holistic'],['left'],['upright'],['U0312.bmp'],['male'],[[2]],['male'],[[1]],[[0.30171505]],DD
106,[[22]],[[107]],[[11]],['low holistic'],['left'],['inverted'],['U0164.bmp'],['female'],[[12]],['male'],[[0]],[[0.09024319]],DD
107,[[22]],[[108]],[[15]],['low holistic'],['left'],['inverted'],['U0312.bmp'],['male'],[[6]],['male'],[[1]],[[0.17604145]],DD
108,[[22]],[[109]],[[12]],['low holistic'],['right'],['inverted'],['U0178.bmp'],['female'],[[4]],['female'],[[1]],[[0.00013771]],DD
109,[[22]],[[110]],[[18]],['low holistic'],['fovea'],['inverted'],['U0359.bmp'],['male'],[[0]],['male'],[[1]],[[0.05500586]],DD
110,[[22]],[[111]],[[11]],['high holistic'],['left'],['upright'],['U0164.bmp'],['female'],[[6]],['female'],[[1]],[[0.46144119]],DD
111,[[22]],[[112]],[[7]],['high holistic'],['left'],['inverted'],['U0107.bmp'],['female'],[[8]],['male'],[[0]],[[0.65094871]],DD
112,[[22]],[[113]],[[16]],['high holistic'],['left'],['inverted'],['U0335.bmp'],['female'],[[12]],['male'],[[0]],[[0.38460748]],DD
113,[[22]],[[114]],[[15]],['high holistic'],['right'],['inverted'],['U0312.bmp'],['male'],[[6]],['female'],[[0]],[[0.09112664]],DD
114,[[22]],[[115]],[[1]],['low holistic'],['right'],['inverted'],['U0006.bmp'],['female'],[[4]],['female'],[[1]],[[0.1013901]],DD
115,[[22]],[[116]],[[10]],['high holistic'],['right'],['inverted'],['U0159.bmp'],['male'],[[6]],['female'],[[0]],[[0.0003344]],DD
116,[[22]],[[117]],[[4]],['low holistic'],['left'],['upright'],['U0061.bmp'],['female'],[[10]],['female'],[[1]],[[0.00032406]],DD
117,[[22]],[[118]],[[14]],['low holistic'],['left'],['inverted'],['U0228.bmp'],['male'],[[6]],['male'],[[1]],[[0.02611108]],DD
118,[[22]],[[119]],[[6]],['high holistic'],['right'],['upright'],['U0106.bmp'],['female'],[[12]],['female'],[[1]],[[0.08978846]],DD
119,[[22]],[[120]],[[11]],['high holistic'],['right'],['upright'],['U0164.bmp'],['female'],[[4]],['female'],[[1]],[[0.14178187]],DD
120,[[22]],[[121]],[[1]],['low holistic'],['left'],['inverted'],['U0006.bmp'],['female'],[[6]],['female'],[[1]],[[0.04096911]],DD
121,[[22]],[[122]],[[15]],['high holistic'],['right'],['upright'],['U0312.bmp'],['male'],[[6]],['male'],[[1]],[[0.1656538]],DD
122,[[22]],[[123]],[[17]],['low holistic'],['right'],['upright'],['U0346.bmp'],['female'],[[10]],['female'],[[1]],[[0.09493246]],DD
123,[[22]],[[124]],[[5]],['low holistic'],['right'],['inverted'],['U0076.bmp'],['male'],[[8]],['male'],[[1]],[[0.11509353]],DD
124,[[22]],[[125]],[[18]],['high holistic'],['left'],['inverted'],['U0359.bmp'],['male'],[[6]],['female'],[[0]],[[0.03069797]],DD
125,[[22]],[[126]],[[17]],['low holistic'],['right'],['inverted'],['U0346.bmp'],['female'],[[4]],['male'],[[0]],[[0.10124839]],DD
126,[[22]],[[127]],[[4]],['low holistic'],['right'],['inverted'],['U0061.bmp'],['female'],[[12]],['female'],[[1]],[[0.32918737]],DD
127,[[22]],[[128]],[[16]],['low holistic'],['left'],['inverted'],['U0335.bmp'],['female'],[[12]],['female'],[[1]],[[0.2053352]],DD
128,[[22]],[[129]],[[16]],['low holistic'],['right'],['inverted'],['U0335.bmp'],['female'],[[6]],['female'],[[1]],[[0.08509966]],DD
129,[[22]],[[130]],[[11]],['high holistic'],['right'],['inverted'],['U0164.bmp'],['female'],[[6]],['female'],[[1]],[[0.08878744]],DD
130,[[22]],[[131]],[[9]],['high holistic'],['right'],['upright'],['U0155.bmp'],['female'],[[12]],['female'],[[1]],[[0.30790021]],DD
131,[[22]],[[132]],[[19]],['low holistic'],['right'],['upright'],['U0361.bmp'],['female'],[[2]],['female'],[[1]],[[0.07272744]],DD
132,[[22]],[[133]],[[3]],['low holistic'],['right'],['upright'],['U0020.bmp'],['female'],[[10]],['female'],[[1]],[[0.09217458]],DD
133,[[22]],[[134]],[[19]],['low holistic'],['left'],['inverted'],['U0361.bmp'],['female'],[[2]],['female'],[[1]],[[0.00010711]],DD
134,[[22]],[[135]],[[7]],['high holistic'],['fovea'],['inverted'],['U0107.bmp'],['female'],[[0]],['female'],[[1]],[[0.00058958]],DD
135,[[22]],[[136]],[[18]],['high holistic'],['fovea'],['upright'],['U0359.bmp'],['male'],[[0]],['male'],[[1]],[[0.40101227]],DD
136,[[22]],[[137]],[[19]],['low holistic'],['right'],['inverted'],['U0361.bmp'],['female'],[[12]],['female'],[[1]],[[0.26441878]],DD
137,[[22]],[[138]],[[3]],['low holistic'],['right'],['inverted'],['U0020.bmp'],['female'],[[6]],['female'],[[1]],[[0.65573039]],DD
138,[[22]],[[139]],[[17]],['high holistic'],['right'],['upright'],['U0346.bmp'],['male'],[[10]],['male'],[[1]],[[0.1978154]],DD
139,[[22]],[[140]],[[2]],['high holistic'],['right'],['upright'],['U0014.bmp'],['male'],[[2]],['male'],[[1]],[[0.33211898]],DD
140,[[22]],[[141]],[[20]],['high holistic'],['left'],['inverted'],['U0362.bmp'],['female'],[[10]],['female'],[[1]],[[0.00010955]],DD
141,[[22]],[[142]],[[3]],['low holistic'],['fovea'],['upright'],['U0020.bmp'],['female'],[[0]],['female'],[[1]],[[9.88338143e-05]],DD
142,[[22]],[[143]],[[4]],['high holistic'],['right'],['upright'],['U0061.bmp'],['female'],[[4]],['female'],[[1]],[[0.07160409]],DD
143,[[22]],[[144]],[[15]],['high holistic'],['right'],['upright'],['U0312.bmp'],['male'],[[8]],['male'],[[1]],[[0.25308381]],DD
144,[[22]],[[145]],[[13]],['low holistic'],['left'],['inverted'],['U0181.bmp'],['male'],[[6]],['male'],[[1]],[[0.52923966]],DD
145,[[22]],[[146]],[[16]],['low holistic'],['left'],['inverted'],['U0335.bmp'],['female'],[[2]],['female'],[[1]],[[0.00011352]],DD
146,[[22]],[[147]],[[8]],['low holistic'],['fovea'],['upright'],['U0137.bmp'],['male'],[[0]],['male'],[[1]],[[0.00015317]],DD
147,[[22]],[[148]],[[3]],['high holistic'],['right'],['upright'],['U0020.bmp'],['male'],[[6]],['male'],[[1]],[[0.11737118]],DD
148,[[22]],[[149]],[[13]],['high holistic'],['left'],['upright'],['U0181.bmp'],['female'],[[6]],['female'],[[1]],[[0.03969327]],DD
149,[[22]],[[150]],[[6]],['high holistic'],['right'],['inverted'],['U0106.bmp'],['female'],[[6]],['female'],[[1]],[[0.15090961]],DD
150,[[22]],[[151]],[[8]],['low holistic'],['right'],['inverted'],['U0137.bmp'],['male'],[[6]],['female'],[[0]],[[0.06458667]],DD
151,[[22]],[[152]],[[20]],['low holistic'],['left'],['upright'],['U0362.bmp'],['male'],[[12]],['male'],[[1]],[[9.92156565e-05]],DD
152,[[22]],[[153]],[[4]],['high holistic'],['right'],['upright'],['U0061.bmp'],['female'],[[6]],['female'],[[1]],[[0.00010061]],DD
153,[[22]],[[154]],[[13]],['low holistic'],['left'],['inverted'],['U0181.bmp'],['male'],[[10]],['male'],[[1]],[[0.07721473]],DD
154,[[22]],[[155]],[[20]],['high holistic'],['right'],['upright'],['U0362.bmp'],['female'],[[12]],['male'],[[0]],[[0.32444009]],DD
155,[[22]],[[156]],[[17]],['high holistic'],['right'],['inverted'],['U0346.bmp'],['male'],[[8]],['female'],[[0]],[[0.37401976]],DD
156,[[22]],[[157]],[[6]],['high holistic'],['right'],['upright'],['U0106.bmp'],['female'],[[8]],['female'],[[1]],[[0.1362293]],DD
157,[[22]],[[158]],[[1]],['low holistic'],['fovea'],['upright'],['U0006.bmp'],['female'],[[0]],['female'],[[1]],[[0.00010017]],DD
158,[[22]],[[159]],[[13]],['low holistic'],['left'],['upright'],['U0181.bmp'],['male'],[[12]],['female'],[[0]],[[0.00010074]],DD
159,[[22]],[[160]],[[4]],['low holistic'],['left'],['inverted'],['U0061.bmp'],['female'],[[8]],['female'],[[1]],[[0.47493596]],DD
160,[[22]],[[161]],[[2]],['high holistic'],['right'],['inverted'],['U0014.bmp'],['male'],[[12]],['male'],[[1]],[[0.26353091]],DD
161,[[22]],[[162]],[[16]],['high holistic'],['left'],['inverted'],['U0335.bmp'],['female'],[[12]],['male'],[[0]],[[0.26904637]],DD
162,[[22]],[[163]],[[12]],['low holistic'],['right'],['inverted'],['U0178.bmp'],['female'],[[2]],['female'],[[1]],[[0.20046677]],DD
163,[[22]],[[164]],[[10]],['low holistic'],['right'],['upright'],['U0159.bmp'],['female'],[[4]],['female'],[[1]],[[0.03334843]],DD
164,[[22]],[[165]],[[8]],['low holistic'],['left'],['upright'],['U0137.bmp'],['male'],[[8]],['male'],[[1]],[[0.04837058]],DD
165,[[22]],[[166]],[[6]],['low holistic'],['right'],['inverted'],['U0106.bmp'],['male'],[[8]],['female'],[[0]],[[0.17477121]],DD
166,[[22]],[[167]],[[12]],['high holistic'],['right'],['upright'],['U0178.bmp'],['male'],[[4]],['female'],[[0]],[[0.00031554]],DD
167,[[22]],[[168]],[[14]],['high holistic'],['right'],['inverted'],['U0228.bmp'],['male'],[[4]],['female'],[[0]],[[0.00010671]],DD
168,[[22]],[[169]],[[18]],['high holistic'],['right'],['inverted'],['U0359.bmp'],['male'],[[10]],['male'],[[1]],[[0.17536662]],DD
169,[[22]],[[170]],[[6]],['high holistic'],['left'],['inverted'],['U0106.bmp'],['female'],[[2]],['female'],[[1]],[[0.40771533]],DD
170,[[22]],[[171]],[[9]],['low holistic'],['left'],['upright'],['U0155.bmp'],['male'],[[12]],['male'],[[1]],[[0.37484299]],DD
171,[[22]],[[172]],[[8]],['high holistic'],['right'],['upright'],['U0137.bmp'],['female'],[[6]],['female'],[[1]],[[0.22366714]],DD
172,[[22]],[[173]],[[6]],['high holistic'],['left'],['inverted'],['U0106.bmp'],['female'],[[4]],['female'],[[1]],[[0.328861]],DD
173,[[22]],[[174]],[[18]],['high holistic'],['right'],['inverted'],['U0359.bmp'],['male'],[[4]],['male'],[[1]],[[1.05867457]],DD
174,[[22]],[[175]],[[9]],['low holistic'],['fovea'],['inverted'],['U0155.bmp'],['male'],[[0]],['male'],[[1]],[[0.4792171]],DD
175,[[22]],[[176]],[[5]],['low holistic'],['left'],['upright'],['U0076.bmp'],['male'],[[4]],['male'],[[1]],[[0.11734336]],DD
176,[[22]],[[177]],[[8]],['high holistic'],['fovea'],['inverted'],['U0137.bmp'],['female'],[[0]],['female'],[[1]],[[0.08827367]],DD
177,[[22]],[[178]],[[14]],['low holistic'],['left'],['upright'],['U0228.bmp'],['male'],[[10]],['male'],[[1]],[[0.06758334]],DD
178,[[22]],[[179]],[[1]],['low holistic'],['fovea'],['inverted'],['U0006.bmp'],['female'],[[0]],['female'],[[1]],[[0.05807774]],DD
179,[[22]],[[180]],[[18]],['low holistic'],['left'],['upright'],['U0359.bmp'],['male'],[[4]],['male'],[[1]],[[0.18456765]],DD
180,[[22]],[[181]],[[12]],['low holistic'],['right'],['inverted'],['U0178.bmp'],['female'],[[10]],['female'],[[1]],[[0.00012456]],DD
181,[[22]],[[182]],[[15]],['high holistic'],['right'],['inverted'],['U0312.bmp'],['male'],[[8]],['male'],[[1]],[[0.25597367]],DD
182,[[22]],[[183]],[[7]],['high holistic'],['left'],['inverted'],['U0107.bmp'],['female'],[[6]],['male'],[[0]],[[0.16759831]],DD
183,[[22]],[[184]],[[19]],['low holistic'],['right'],['upright'],['U0361.bmp'],['female'],[[4]],['female'],[[1]],[[0.01429675]],DD
184,[[22]],[[185]],[[7]],['low holistic'],['left'],['upright'],['U0107.bmp'],['female'],[[12]],['female'],[[1]],[[0.11915383]],DD
185,[[22]],[[186]],[[14]],['low holistic'],['left'],['inverted'],['U0228.bmp'],['male'],[[8]],['female'],[[0]],[[0.00018019]],DD
186,[[22]],[[187]],[[6]],['high holistic'],['left'],['inverted'],['U0106.bmp'],['female'],[[8]],['female'],[[1]],[[0.35312373]],DD
187,[[22]],[[188]],[[14]],['low holistic'],['left'],['inverted'],['U0228.bmp'],['male'],[[12]],['male'],[[1]],[[0.13874912]],DD
188,[[22]],[[189]],[[9]],['high holistic'],['right'],['inverted'],['U0155.bmp'],['female'],[[2]],['female'],[[1]],[[0.26925017]],DD
189,[[22]],[[190]],[[16]],['low holistic'],['left'],['inverted'],['U0335.bmp'],['female'],[[4]],['female'],[[1]],[[0.15459992]],DD
190,[[22]],[[191]],[[1]],['high holistic'],['right'],['upright'],['U0006.bmp'],['female'],[[2]],['female'],[[1]],[[0.08640089]],DD
191,[[22]],[[192]],[[16]],['low holistic'],['right'],['upright'],['U0335.bmp'],['female'],[[6]],['female'],[[1]],[[0.09846815]],DD
192,[[22]],[[193]],[[4]],['low holistic'],['fovea'],['upright'],['U0061.bmp'],['female'],[[0]],['female'],[[1]],[[0.02234123]],DD
193,[[22]],[[194]],[[2]],['high holistic'],['left'],['upright'],['U0014.bmp'],['male'],[[6]],['male'],[[1]],[[0.20521862]],DD
194,[[22]],[[195]],[[15]],['low holistic'],['right'],['upright'],['U0312.bmp'],['male'],[[12]],['male'],[[1]],[[0.33235583]],DD
195,[[22]],[[196]],[[15]],['high holistic'],['right'],['inverted'],['U0312.bmp'],['male'],[[6]],['male'],[[1]],[[0.23984128]],DD
196,[[22]],[[197]],[[17]],['high holistic'],['right'],['upright'],['U0346.bmp'],['male'],[[6]],['male'],[[1]],[[0.01315523]],DD
197,[[22]],[[198]],[[10]],['high holistic'],['left'],['inverted'],['U0159.bmp'],['male'],[[4]],['male'],[[1]],[[0.15713144]],DD
198,[[22]],[[199]],[[11]],['high holistic'],['left'],['inverted'],['U0164.bmp'],['female'],[[6]],['male'],[[0]],[[0.15081098]],DD
199,[[22]],[[200]],[[4]],['low holistic'],['left'],['upright'],['U0061.bmp'],['female'],[[8]],['female'],[[1]],[[0.02450383]],DD
200,[[22]],[[201]],[[16]],['high holistic'],['right'],['inverted'],['U0335.bmp'],['female'],[[6]],['male'],[[0]],[[0.2085972]],DD
201,[[22]],[[202]],[[1]],['low holistic'],['left'],['inverted'],['U0006.bmp'],['female'],[[2]],['female'],[[1]],[[0.01643119]],DD
202,[[22]],[[203]],[[17]],['high holistic'],['left'],['inverted'],['U0346.bmp'],['male'],[[2]],['male'],[[1]],[[0.30353041]],DD
203,[[22]],[[204]],[[15]],['high holistic'],['left'],['inverted'],['U0312.bmp'],['male'],[[4]],['female'],[[0]],[[0.15379387]],DD
204,[[22]],[[205]],[[16]],['high holistic'],['left'],['inverted'],['U0335.bmp'],['female'],[[12]],['female'],[[1]],[[0.17124832]],DD
205,[[22]],[[206]],[[5]],['high holistic'],['left'],['upright'],['U0076.bmp'],['female'],[[12]],['female'],[[1]],[[0.06955566]],DD
206,[[22]],[[207]],[[13]],['low holistic'],['left'],['upright'],['U0181.bmp'],['male'],[[12]],['male'],[[1]],[[0.15536912]],DD
207,[[22]],[[208]],[[11]],['high holistic'],['fovea'],['upright'],['U0164.bmp'],['female'],[[0]],['female'],[[1]],[[0.09969636]],DD
208,[[22]],[[209]],[[8]],['low holistic'],['left'],['upright'],['U0137.bmp'],['male'],[[10]],['male'],[[1]],[[0.06589883]],DD
209,[[22]],[[210]],[[20]],['high holistic'],['right'],['inverted'],['U0362.bmp'],['female'],[[6]],['female'],[[1]],[[0.23758291]],DD
210,[[22]],[[211]],[[19]],['low holistic'],['right'],['upright'],['U0361.bmp'],['female'],[[2]],['female'],[[1]],[[0.14866169]],DD
211,[[22]],[[212]],[[14]],['low holistic'],['left'],['upright'],['U0228.bmp'],['male'],[[2]],['male'],[[1]],[[0.14220771]],DD
212,[[22]],[[213]],[[20]],['low holistic'],['right'],['inverted'],['U0362.bmp'],['male'],[[8]],['female'],[[0]],[[0.24925875]],DD
213,[[22]],[[214]],[[20]],['high holistic'],['left'],['inverted'],['U0362.bmp'],['female'],[[10]],['male'],[[0]],[[0.32673891]],DD
214,[[22]],[[215]],[[2]],['low holistic'],['left'],['inverted'],['U0014.bmp'],['male'],[[4]],['female'],[[0]],[[0.34691447]],DD
215,[[22]],[[216]],[[19]],['low holistic'],['left'],['inverted'],['U0361.bmp'],['female'],[[4]],['female'],[[1]],[[0.32408]],DD
216,[[22]],[[217]],[[1]],['high holistic'],['left'],['inverted'],['U0006.bmp'],['female'],[[10]],['male'],[[0]],[[0.19064672]],DD
217,[[22]],[[218]],[[14]],['low holistic'],['left'],['inverted'],['U0228.bmp'],['male'],[[6]],['male'],[[1]],[[0.29502636]],DD
218,[[22]],[[219]],[[2]],['low holistic'],['right'],['inverted'],['U0014.bmp'],['male'],[[6]],['female'],[[0]],[[0.20377343]],DD
219,[[22]],[[220]],[[17]],['high holistic'],['right'],['inverted'],['U0346.bmp'],['male'],[[12]],['male'],[[1]],[[0.17226099]],DD
220,[[22]],[[221]],[[16]],['low holistic'],['left'],['upright'],['U0335.bmp'],['female'],[[6]],['female'],[[1]],[[0.17182374]],DD
221,[[22]],[[222]],[[4]],['low holistic'],['left'],['inverted'],['U0061.bmp'],['female'],[[6]],['female'],[[1]],[[0.50125107]],DD
222,[[22]],[[223]],[[11]],['low holistic'],['right'],['upright'],['U0164.bmp'],['female'],[[4]],['female'],[[1]],[[0.17745311]],DD
223,[[22]],[[224]],[[11]],['high holistic'],['left'],['inverted'],['U0164.bmp'],['female'],[[10]],['female'],[[1]],[[0.20299528]],DD
224,[[22]],[[225]],[[15]],['high holistic'],['left'],['upright'],['U0312.bmp'],['male'],[[10]],['female'],[[0]],[[0.25020086]],DD
225,[[22]],[[226]],[[4]],['low holistic'],['right'],['upright'],['U0061.bmp'],['female'],[[12]],['female'],[[1]],[[0.07904528]],DD
226,[[22]],[[227]],[[18]],['high holistic'],['left'],['upright'],['U0359.bmp'],['male'],[[10]],['male'],[[1]],[[0.12469998]],DD
227,[[22]],[[228]],[[1]],['low holistic'],['left'],['upright'],['U0006.bmp'],['female'],[[12]],['female'],[[1]],[[0.19253753]],DD
228,[[22]],[[229]],[[4]],['high holistic'],['fovea'],['upright'],['U0061.bmp'],['female'],[[0]],['female'],[[1]],[[0.22357683]],DD
229,[[22]],[[230]],[[6]],['low holistic'],['left'],['inverted'],['U0106.bmp'],['male'],[[6]],['male'],[[1]],[[0.2698613]],DD
230,[[22]],[[231]],[[17]],['low holistic'],['right'],['upright'],['U0346.bmp'],['female'],[[4]],['female'],[[1]],[[0.14038107]],DD
231,[[22]],[[232]],[[2]],['low holistic'],['right'],['inverted'],['U0014.bmp'],['male'],[[8]],['male'],[[1]],[[0.28755091]],DD
232,[[22]],[[233]],[[8]],['high holistic'],['right'],['upright'],['U0137.bmp'],['female'],[[6]],['female'],[[1]],[[0.13821108]],DD
233,[[22]],[[234]],[[9]],['low holistic'],['right'],['upright'],['U0155.bmp'],['male'],[[10]],['female'],[[0]],[[0.23785903]],DD
234,[[22]],[[235]],[[17]],['low holistic'],['right'],['upright'],['U0346.bmp'],['female'],[[4]],['female'],[[1]],[[0.97885661]],DD
235,[[22]],[[236]],[[3]],['low holistic'],['right'],['upright'],['U0020.bmp'],['female'],[[10]],['female'],[[1]],[[0.07694673]],DD
236,[[22]],[[237]],[[9]],['low holistic'],['left'],['inverted'],['U0155.bmp'],['male'],[[4]],['male'],[[1]],[[0.04048472]],DD
237,[[22]],[[238]],[[14]],['high holistic'],['left'],['inverted'],['U0228.bmp'],['male'],[[6]],['male'],[[1]],[[0.12782131]],DD
238,[[22]],[[239]],[[13]],['high holistic'],['right'],['upright'],['U0181.bmp'],['female'],[[2]],['female'],[[1]],[[0.15420612]],DD
239,[[22]],[[240]],[[12]],['high holistic'],['left'],['upright'],['U0178.bmp'],['male'],[[12]],['male'],[[1]],[[0.26752388]],DD
240,[[22]],[[241]],[[11]],['low holistic'],['right'],['upright'],['U0164.bmp'],['female'],[[12]],['female'],[[1]],[[0.08978284]],DD
241,[[22]],[[242]],[[8]],['high holistic'],['right'],['upright'],['U0137.bmp'],['female'],[[4]],['female'],[[1]],[[0.07812896]],DD
242,[[22]],[[243]],[[8]],['high holistic'],['right'],['inverted'],['U0137.bmp'],['female'],[[12]],['female'],[[1]],[[0.00011462]],DD
243,[[22]],[[244]],[[8]],['low holistic'],['left'],['upright'],['U0137.bmp'],['male'],[[6]],['male'],[[1]],[[0.00010154]],DD
244,[[22]],[[245]],[[12]],['high holistic'],['right'],['upright'],['U0178.bmp'],['male'],[[10]],['female'],[[0]],[[0.17979718]],DD
245,[[22]],[[246]],[[11]],['high holistic'],['left'],['upright'],['U0164.bmp'],['female'],[[4]],['female'],[[1]],[[0.13075886]],DD
246,[[22]],[[247]],[[2]],['high holistic'],['left'],['upright'],['U0014.bmp'],['male'],[[12]],['male'],[[1]],[[1.63973813]],DD
247,[[22]],[[248]],[[13]],['low holistic'],['right'],['inverted'],['U0181.bmp'],['male'],[[2]],['female'],[[0]],[[0.06105972]],DD
248,[[22]],[[249]],[[9]],['high holistic'],['left'],['upright'],['U0155.bmp'],['female'],[[6]],['male'],[[0]],[[0.32974671]],DD
249,[[22]],[[250]],[[15]],['high holistic'],['right'],['inverted'],['U0312.bmp'],['male'],[[12]],['female'],[[0]],[[0.00010041]],DD
250,[[22]],[[251]],[[9]],['low holistic'],['right'],['upright'],['U0155.bmp'],['male'],[[10]],['male'],[[1]],[[0.03806832]],DD
251,[[22]],[[252]],[[18]],['low holistic'],['left'],['upright'],['U0359.bmp'],['male'],[[4]],['female'],[[0]],[[0.13283633]],DD
252,[[22]],[[253]],[[1]],['low holistic'],['left'],['upright'],['U0006.bmp'],['female'],[[12]],['female'],[[1]],[[0.25550525]],DD
253,[[22]],[[254]],[[20]],['low holistic'],['right'],['inverted'],['U0362.bmp'],['male'],[[12]],['male'],[[1]],[[0.17958406]],DD
254,[[22]],[[255]],[[12]],['low holistic'],['right'],['inverted'],['U0178.bmp'],['female'],[[8]],['female'],[[1]],[[0.11747129]],DD
255,[[22]],[[256]],[[14]],['high holistic'],['right'],['inverted'],['U0228.bmp'],['male'],[[10]],['male'],[[1]],[[0.56040207]],DD
256,[[22]],[[257]],[[17]],['low holistic'],['left'],['upright'],['U0346.bmp'],['female'],[[10]],['female'],[[1]],[[0.168706]],DD
257,[[22]],[[258]],[[1]],['low holistic'],['left'],['upright'],['U0006.bmp'],['female'],[[6]],['female'],[[1]],[[0.12360163]],DD
258,[[22]],[[259]],[[3]],['high holistic'],['right'],['inverted'],['U0020.bmp'],['male'],[[10]],['male'],[[1]],[[0.31028466]],DD
259,[[22]],[[260]],[[1]],['low holistic'],['right'],['inverted'],['U0006.bmp'],['female'],[[12]],['female'],[[1]],[[0.05764741]],DD
260,[[22]],[[261]],[[12]],['high holistic'],['left'],['upright'],['U0178.bmp'],['male'],[[10]],['male'],[[1]],[[0.70672313]],DD
261,[[22]],[[262]],[[8]],['high holistic'],['right'],['upright'],['U0137.bmp'],['female'],[[2]],['female'],[[1]],[[0.07794507]],DD
262,[[22]],[[263]],[[19]],['low holistic'],['right'],['inverted'],['U0361.bmp'],['female'],[[4]],['female'],[[1]],[[0.0001067]],DD
263,[[22]],[[264]],[[15]],['low holistic'],['left'],['upright'],['U0312.bmp'],['male'],[[8]],['male'],[[1]],[[0.0282785]],DD
264,[[22]],[[265]],[[4]],['low holistic'],['left'],['inverted'],['U0061.bmp'],['female'],[[10]],['female'],[[1]],[[0.15325179]],DD
265,[[22]],[[266]],[[13]],['low holistic'],['left'],['upright'],['U0181.bmp'],['male'],[[6]],['male'],[[1]],[[0.00010873]],DD
266,[[22]],[[267]],[[11]],['low holistic'],['left'],['upright'],['U0164.bmp'],['female'],[[6]],['female'],[[1]],[[0.15522523]],DD
267,[[22]],[[268]],[[12]],['low holistic'],['left'],['inverted'],['U0178.bmp'],['female'],[[2]],['female'],[[1]],[[0.30104555]],DD
268,[[22]],[[269]],[[19]],['low holistic'],['right'],['upright'],['U0361.bmp'],['female'],[[12]],['female'],[[1]],[[0.09811779]],DD
269,[[22]],[[270]],[[1]],['high holistic'],['left'],['upright'],['U0006.bmp'],['female'],[[10]],['female'],[[1]],[[0.00010011]],DD
270,[[22]],[[271]],[[1]],['high holistic'],['fovea'],['upright'],['U0006.bmp'],['female'],[[0]],['female'],[[1]],[[2.23708251]],DD
271,[[22]],[[272]],[[9]],['low holistic'],['right'],['inverted'],['U0155.bmp'],['male'],[[10]],['male'],[[1]],[[0.50071894]],DD
272,[[22]],[[273]],[[20]],['high holistic'],['right'],['inverted'],['U0362.bmp'],['female'],[[6]],['male'],[[0]],[[17.86285917]],DD
273,[[22]],[[274]],[[13]],['high holistic'],['left'],['upright'],['U0181.bmp'],['female'],[[8]],['female'],[[1]],[[0.28394988]],DD
274,[[22]],[[275]],[[15]],['high holistic'],['left'],['inverted'],['U0312.bmp'],['male'],[[4]],['male'],[[1]],[[0.1469341]],DD
275,[[22]],[[276]],[[9]],['low holistic'],['fovea'],['upright'],['U0155.bmp'],['male'],[[0]],['male'],[[1]],[[0.00015944]],DD
276,[[22]],[[277]],[[19]],['high holistic'],['right'],['inverted'],['U0361.bmp'],['female'],[[8]],['male'],[[0]],[[0.24242065]],DD
277,[[22]],[[278]],[[16]],['high holistic'],['right'],['upright'],['U0335.bmp'],['female'],[[12]],['male'],[[0]],[[0.05005255]],DD
278,[[22]],[[279]],[[8]],['low holistic'],['left'],['inverted'],['U0137.bmp'],['male'],[[10]],['male'],[[1]],[[0.00010032]],DD
279,[[22]],[[280]],[[13]],['low holistic'],['left'],['upright'],['U0181.bmp'],['male'],[[4]],['male'],[[1]],[[0.00869606]],DD
280,[[22]],[[281]],[[4]],['high holistic'],['fovea'],['inverted'],['U0061.bmp'],['female'],[[0]],['male'],[[0]],[[0.83261594]],DD
281,[[22]],[[282]],[[3]],['low holistic'],['fovea'],['inverted'],['U0020.bmp'],['female'],[[0]],['female'],[[1]],[[0.03963647]],DD
282,[[22]],[[283]],[[13]],['high holistic'],['fovea'],['inverted'],['U0181.bmp'],['female'],[[0]],['female'],[[1]],[[0.03717136]],DD
283,[[22]],[[284]],[[10]],['high holistic'],['fovea'],['upright'],['U0159.bmp'],['male'],[[0]],['male'],[[1]],[[0.00010016]],DD
284,[[22]],[[285]],[[6]],['high holistic'],['left'],['upright'],['U0106.bmp'],['female'],[[10]],['female'],[[1]],[[0.07617028]],DD
285,[[22]],[[286]],[[5]],['high holistic'],['fovea'],['inverted'],['U0076.bmp'],['female'],[[0]],['female'],[[1]],[[0.06346786]],DD
286,[[22]],[[287]],[[11]],['low holistic'],['left'],['upright'],['U0164.bmp'],['female'],[[4]],['female'],[[1]],[[0.00010675]],DD
287,[[22]],[[288]],[[15]],['high holistic'],['right'],['upright'],['U0312.bmp'],['male'],[[6]],['male'],[[1]],[[0.04449293]],DD
288,[[22]],[[289]],[[11]],['high holistic'],['left'],['inverted'],['U0164.bmp'],['female'],[[6]],['female'],[[1]],[[0.00433962]],DD
289,[[22]],[[290]],[[8]],['low holistic'],['right'],['inverted'],['U0137.bmp'],['male'],[[6]],['female'],[[0]],[[0.00014077]],DD
290,[[22]],[[291]],[[13]],['high holistic'],['right'],['inverted'],['U0181.bmp'],['female'],[[10]],['female'],[[1]],[[0.00065307]],DD
291,[[22]],[[292]],[[13]],['high holistic'],['right'],['upright'],['U0181.bmp'],['female'],[[10]],['female'],[[1]],[[0.11558806]],DD
292,[[22]],[[293]],[[2]],['low holistic'],['right'],['inverted'],['U0014.bmp'],['male'],[[10]],['male'],[[1]],[[0.58315909]],DD
293,[[22]],[[294]],[[6]],['low holistic'],['left'],['inverted'],['U0106.bmp'],['male'],[[10]],['female'],[[0]],[[0.00762374]],DD
294,[[22]],[[295]],[[5]],['low holistic'],['right'],['inverted'],['U0076.bmp'],['male'],[[12]],['male'],[[1]],[[0.28752531]],DD
295,[[22]],[[296]],[[9]],['low holistic'],['right'],['inverted'],['U0155.bmp'],['male'],[[12]],['male'],[[1]],[[0.14075358]],DD
296,[[22]],[[297]],[[19]],['low holistic'],['right'],['upright'],['U0361.bmp'],['female'],[[4]],['female'],[[1]],[[0.00732865]],DD
297,[[22]],[[298]],[[7]],['high holistic'],['right'],['inverted'],['U0107.bmp'],['female'],[[12]],['female'],[[1]],[[0.44642528]],DD
298,[[22]],[[299]],[[6]],['high holistic'],['right'],['inverted'],['U0106.bmp'],['female'],[[12]],['female'],[[1]],[[0.00053379]],DD
299,[[22]],[[300]],[[12]],['high holistic'],['fovea'],['upright'],['U0178.bmp'],['male'],[[0]],['male'],[[1]],[[0.01109112]],DD
300,[[22]],[[301]],[[4]],['high holistic'],['left'],['inverted'],['U0061.bmp'],['female'],[[12]],['female'],[[1]],[[0.14844404]],DD
301,[[22]],[[302]],[[3]],['high holistic'],['right'],['inverted'],['U0020.bmp'],['male'],[[2]],['male'],[[1]],[[0.00010667]],DD
302,[[22]],[[303]],[[15]],['high holistic'],['left'],['inverted'],['U0312.bmp'],['male'],[[2]],['male'],[[1]],[[1.55879717]],DD
303,[[22]],[[304]],[[8]],['low holistic'],['left'],['inverted'],['U0137.bmp'],['male'],[[10]],['female'],[[0]],[[0.01538171]],DD
304,[[22]],[[305]],[[13]],['low holistic'],['right'],['upright'],['U0181.bmp'],['male'],[[6]],['male'],[[1]],[[4.52751482]],DD
305,[[22]],[[306]],[[8]],['low holistic'],['right'],['inverted'],['U0137.bmp'],['male'],[[10]],['male'],[[1]],[[1.03530128]],DD
306,[[22]],[[307]],[[11]],['high holistic'],['left'],['inverted'],['U0164.bmp'],['female'],[[12]],['female'],[[1]],[[0.1614718]],DD
307,[[22]],[[308]],[[8]],['low holistic'],['left'],['inverted'],['U0137.bmp'],['male'],[[4]],['male'],[[1]],[[0.01941665]],DD
308,[[22]],[[309]],[[1]],['high holistic'],['left'],['inverted'],['U0006.bmp'],['female'],[[12]],['female'],[[1]],[[0.01117948]],DD
309,[[22]],[[310]],[[6]],['low holistic'],['left'],['inverted'],['U0106.bmp'],['male'],[[12]],['male'],[[1]],[[0.23222463]],DD
310,[[22]],[[311]],[[4]],['high holistic'],['left'],['upright'],['U0061.bmp'],['female'],[[10]],['female'],[[1]],[[0.09638987]],DD
311,[[22]],[[312]],[[11]],['low holistic'],['fovea'],['upright'],['U0164.bmp'],['female'],[[0]],['female'],[[1]],[[0.00010023]],DD
312,[[22]],[[313]],[[3]],['low holistic'],['left'],['inverted'],['U0020.bmp'],['female'],[[2]],['female'],[[1]],[[0.00029496]],DD
313,[[22]],[[314]],[[7]],['high holistic'],['right'],['inverted'],['U0107.bmp'],['female'],[[2]],['female'],[[1]],[[0.00010679]],DD
314,[[22]],[[315]],[[6]],['high holistic'],['left'],['upright'],['U0106.bmp'],['female'],[[8]],['female'],[[1]],[[0.00488721]],DD
315,[[22]],[[316]],[[9]],['low holistic'],['fovea'],['upright'],['U0155.bmp'],['male'],[[0]],['male'],[[1]],[[0.00014881]],DD
316,[[22]],[[317]],[[12]],['low holistic'],['left'],['upright'],['U0178.bmp'],['female'],[[6]],['female'],[[1]],[[0.00012819]],DD
317,[[22]],[[318]],[[20]],['high holistic'],['left'],['inverted'],['U0362.bmp'],['female'],[[10]],['female'],[[1]],[[0.25189205]],DD
318,[[22]],[[319]],[[2]],['low holistic'],['left'],['upright'],['U0014.bmp'],['male'],[[8]],['male'],[[1]],[[0.05106522]],DD
319,[[22]],[[320]],[[3]],['low holistic'],['left'],['inverted'],['U0020.bmp'],['female'],[[2]],['female'],[[1]],[[0.03131102]],DD
320,[[22]],[[321]],[[13]],['high holistic'],['right'],['upright'],['U0181.bmp'],['female'],[[4]],['female'],[[1]],[[0.00010958]],DD
321,[[22]],[[322]],[[3]],['low holistic'],['left'],['upright'],['U0020.bmp'],['female'],[[6]],['female'],[[1]],[[0.00010012]],DD
322,[[22]],[[323]],[[8]],['low holistic'],['left'],['upright'],['U0137.bmp'],['male'],[[2]],['male'],[[1]],[[0.05608827]],DD
323,[[22]],[[324]],[[19]],['low holistic'],['right'],['upright'],['U0361.bmp'],['female'],[[8]],['female'],[[1]],[[0.00010646]],DD
324,[[22]],[[325]],[[20]],['high holistic'],['left'],['upright'],['U0362.bmp'],['female'],[[12]],['male'],[[0]],[[0.00021276]],DD
325,[[22]],[[326]],[[14]],['low holistic'],['right'],['upright'],['U0228.bmp'],['male'],[[8]],['male'],[[1]],[[0.00014518]],DD
326,[[22]],[[327]],[[7]],['high holistic'],['fovea'],['upright'],['U0107.bmp'],['female'],[[0]],['female'],[[1]],[[0.06042776]],DD
327,[[22]],[[328]],[[13]],['high holistic'],['right'],['upright'],['U0181.bmp'],['female'],[[6]],['female'],[[1]],[[0.06789767]],DD
328,[[22]],[[329]],[[6]],['low holistic'],['right'],['inverted'],['U0106.bmp'],['male'],[[12]],['male'],[[1]],[[0.0553461]],DD
329,[[22]],[[330]],[[18]],['high holistic'],['right'],['upright'],['U0359.bmp'],['male'],[[2]],['male'],[[1]],[[1.91634843]],DD
330,[[22]],[[331]],[[6]],['low holistic'],['right'],['inverted'],['U0106.bmp'],['male'],[[6]],['male'],[[1]],[[0.06485281]],DD
331,[[22]],[[332]],[[10]],['low holistic'],['left'],['upright'],['U0159.bmp'],['female'],[[2]],['female'],[[1]],[[0.02312903]],DD
332,[[22]],[[333]],[[10]],['low holistic'],['left'],['upright'],['U0159.bmp'],['female'],[[2]],['female'],[[1]],[[0.00010038]],DD
333,[[22]],[[334]],[[15]],['high holistic'],['left'],['inverted'],['U0312.bmp'],['male'],[[6]],['female'],[[0]],[[0.0001]],DD
334,[[22]],[[335]],[[9]],['high holistic'],['right'],['upright'],['U0155.bmp'],['female'],[[6]],['female'],[[1]],[[0.09254347]],DD
335,[[22]],[[336]],[[15]],['low holistic'],['fovea'],['upright'],['U0312.bmp'],['male'],[[0]],['male'],[[1]],[[0.00018013]],DD
336,[[22]],[[337]],[[13]],['high holistic'],['left'],['inverted'],['U0181.bmp'],['female'],[[10]],['female'],[[1]],[[0.04890697]],DD
337,[[22]],[[338]],[[13]],['high holistic'],['left'],['inverted'],['U0181.bmp'],['female'],[[6]],['female'],[[1]],[[0.0237367]],DD
338,[[22]],[[339]],[[4]],['high holistic'],['right'],['inverted'],['U0061.bmp'],['female'],[[10]],['male'],[[0]],[[0.00010952]],DD
339,[[22]],[[340]],[[6]],['high holistic'],['right'],['inverted'],['U0106.bmp'],['female'],[[12]],['female'],[[1]],[[0.12763186]],DD
340,[[22]],[[341]],[[17]],['high holistic'],['left'],['inverted'],['U0346.bmp'],['male'],[[6]],['male'],[[1]],[[0.02502715]],DD
341,[[22]],[[342]],[[4]],['high holistic'],['fovea'],['inverted'],['U0061.bmp'],['female'],[[0]],['male'],[[0]],[[0.03204104]],DD
342,[[22]],[[343]],[[4]],['low holistic'],['left'],['inverted'],['U0061.bmp'],['female'],[[4]],['female'],[[1]],[[0.0001729]],DD
343,[[22]],[[344]],[[19]],['low holistic'],['left'],['inverted'],['U0361.bmp'],['female'],[[12]],['female'],[[1]],[[9.97278839e-05]],DD
344,[[22]],[[345]],[[11]],['high holistic'],['left'],['inverted'],['U0164.bmp'],['female'],[[12]],['male'],[[0]],[[0.16019915]],DD
345,[[22]],[[346]],[[10]],['low holistic'],['right'],['inverted'],['U0159.bmp'],['female'],[[4]],['female'],[[1]],[[0.04032266]],DD
346,[[22]],[[347]],[[11]],['low holistic'],['right'],['upright'],['U0164.bmp'],['female'],[[10]],['female'],[[1]],[[0.06249525]],DD
347,[[22]],[[348]],[[18]],['low holistic'],['right'],['upright'],['U0359.bmp'],['male'],[[12]],['female'],[[0]],[[0.00010004]],DD
348,[[22]],[[349]],[[9]],['low holistic'],['left'],['upright'],['U0155.bmp'],['male'],[[4]],['female'],[[0]],[[0.00046491]],DD
349,[[22]],[[350]],[[18]],['low holistic'],['left'],['inverted'],['U0359.bmp'],['male'],[[4]],['female'],[[0]],[[0.18841241]],DD
350,[[22]],[[351]],[[11]],['high holistic'],['fovea'],['upright'],['U0164.bmp'],['female'],[[0]],['female'],[[1]],[[0.39505292]],DD
351,[[22]],[[352]],[[7]],['high holistic'],['right'],['upright'],['U0107.bmp'],['female'],[[6]],['female'],[[1]],[[0.22802682]],DD
352,[[22]],[[353]],[[3]],['high holistic'],['left'],['upright'],['U0020.bmp'],['male'],[[6]],['female'],[[0]],[[0.04294969]],DD
353,[[22]],[[354]],[[11]],['low holistic'],['right'],['inverted'],['U0164.bmp'],['female'],[[8]],['female'],[[1]],[[0.00038079]],DD
354,[[22]],[[355]],[[3]],['low holistic'],['left'],['inverted'],['U0020.bmp'],['female'],[[2]],['female'],[[1]],[[2.06585846]],DD
355,[[22]],[[356]],[[19]],['high holistic'],['left'],['inverted'],['U0361.bmp'],['female'],[[4]],['male'],[[0]],[[0.38266638]],DD
356,[[22]],[[357]],[[3]],['low holistic'],['left'],['upright'],['U0020.bmp'],['female'],[[8]],['female'],[[1]],[[0.11219861]],DD
357,[[22]],[[358]],[[17]],['high holistic'],['left'],['upright'],['U0346.bmp'],['male'],[[12]],['male'],[[1]],[[0.07641085]],DD
358,[[22]],[[359]],[[14]],['high holistic'],['right'],['upright'],['U0228.bmp'],['male'],[[12]],['female'],[[0]],[[0.08074672]],DD
359,[[22]],[[360]],[[7]],['high holistic'],['left'],['inverted'],['U0107.bmp'],['female'],[[12]],['male'],[[0]],[[0.3802487]],DD
360,[[22]],[[361]],[[1]],['low holistic'],['left'],['upright'],['U0006.bmp'],['female'],[[6]],['female'],[[1]],[[0.14137508]],DD
361,[[22]],[[362]],[[16]],['low holistic'],['left'],['inverted'],['U0335.bmp'],['female'],[[8]],['female'],[[1]],[[0.08763684]],DD
362,[[22]],[[363]],[[10]],['high holistic'],['fovea'],['upright'],['U0159.bmp'],['male'],[[0]],['male'],[[1]],[[0.07650411]],DD
363,[[22]],[[364]],[[7]],['high holistic'],['right'],['inverted'],['U0107.bmp'],['female'],[[4]],['female'],[[1]],[[0.27414598]],DD
364,[[22]],[[365]],[[4]],['high holistic'],['right'],['upright'],['U0061.bmp'],['female'],[[12]],['male'],[[0]],[[0.14930263]],DD
365,[[22]],[[366]],[[5]],['high holistic'],['left'],['inverted'],['U0076.bmp'],['female'],[[2]],['female'],[[1]],[[0.68891972]],DD
366,[[22]],[[367]],[[3]],['low holistic'],['right'],['inverted'],['U0020.bmp'],['female'],[[12]],['female'],[[1]],[[0.22015138]],DD
367,[[22]],[[368]],[[7]],['low holistic'],['right'],['inverted'],['U0107.bmp'],['female'],[[6]],['female'],[[1]],[[0.1868729]],DD
368,[[22]],[[369]],[[11]],['low holistic'],['left'],['inverted'],['U0164.bmp'],['female'],[[8]],['female'],[[1]],[[0.1076709]],DD
369,[[22]],[[370]],[[19]],['high holistic'],['left'],['inverted'],['U0361.bmp'],['female'],[[2]],['male'],[[0]],[[0.13484806]],DD
370,[[22]],[[371]],[[8]],['high holistic'],['right'],['upright'],['U0137.bmp'],['female'],[[8]],['female'],[[1]],[[0.05661217]],DD
371,[[22]],[[372]],[[3]],['high holistic'],['left'],['upright'],['U0020.bmp'],['male'],[[4]],['male'],[[1]],[[0.16864832]],DD
372,[[22]],[[373]],[[3]],['low holistic'],['left'],['upright'],['U0020.bmp'],['female'],[[10]],['female'],[[1]],[[0.11127159]],DD
373,[[22]],[[374]],[[3]],['low holistic'],['left'],['inverted'],['U0020.bmp'],['female'],[[12]],['female'],[[1]],[[0.31756558]],DD
374,[[22]],[[375]],[[16]],['high holistic'],['left'],['upright'],['U0335.bmp'],['female'],[[4]],['female'],[[1]],[[0.15942552]],DD
375,[[22]],[[376]],[[14]],['high holistic'],['left'],['inverted'],['U0228.bmp'],['male'],[[4]],['female'],[[0]],[[0.51389539]],DD
376,[[22]],[[377]],[[8]],['low holistic'],['right'],['inverted'],['U0137.bmp'],['male'],[[6]],['male'],[[1]],[[0.25341493]],DD
377,[[22]],[[378]],[[10]],['high holistic'],['fovea'],['upright'],['U0159.bmp'],['male'],[[0]],['male'],[[1]],[[0.10592287]],DD
378,[[22]],[[379]],[[9]],['high holistic'],['left'],['inverted'],['U0155.bmp'],['female'],[[10]],['female'],[[1]],[[0.19896691]],DD
379,[[22]],[[380]],[[17]],['high holistic'],['left'],['upright'],['U0346.bmp'],['male'],[[2]],['male'],[[1]],[[0.18285983]],DD
380,[[22]],[[381]],[[9]],['low holistic'],['left'],['upright'],['U0155.bmp'],['male'],[[2]],['male'],[[1]],[[0.00011166]],DD
381,[[22]],[[382]],[[8]],['low holistic'],['right'],['inverted'],['U0137.bmp'],['male'],[[8]],['male'],[[1]],[[0.22377683]],DD
382,[[22]],[[383]],[[15]],['high holistic'],['right'],['inverted'],['U0312.bmp'],['male'],[[6]],['male'],[[1]],[[0.82954629]],DD
383,[[22]],[[384]],[[17]],['high holistic'],['right'],['inverted'],['U0346.bmp'],['male'],[[10]],['male'],[[1]],[[0.09314577]],DD
384,[[22]],[[385]],[[7]],['high holistic'],['left'],['inverted'],['U0107.bmp'],['female'],[[2]],['male'],[[0]],[[0.09730157]],DD
385,[[22]],[[386]],[[18]],['high holistic'],['left'],['upright'],['U0359.bmp'],['male'],[[8]],['male'],[[1]],[[0.07788612]],DD
386,[[22]],[[387]],[[16]],['low holistic'],['right'],['inverted'],['U0335.bmp'],['female'],[[12]],['female'],[[1]],[[0.21947596]],DD
387,[[22]],[[388]],[[1]],['low holistic'],['left'],['inverted'],['U0006.bmp'],['female'],[[6]],['female'],[[1]],[[0.04103781]],DD
388,[[22]],[[389]],[[16]],['low holistic'],['right'],['inverted'],['U0335.bmp'],['female'],[[4]],['female'],[[1]],[[0.06367727]],DD
389,[[22]],[[390]],[[7]],['high holistic'],['left'],['inverted'],['U0107.bmp'],['female'],[[2]],['male'],[[0]],[[0.18916917]],DD
390,[[22]],[[391]],[[18]],['low holistic'],['right'],['upright'],['U0359.bmp'],['male'],[[2]],['male'],[[1]],[[0.93957425]],DD
391,[[22]],[[392]],[[4]],['low holistic'],['right'],['upright'],['U0061.bmp'],['female'],[[10]],['female'],[[1]],[[0.13980382]],DD
392,[[22]],[[393]],[[7]],['low holistic'],['left'],['upright'],['U0107.bmp'],['female'],[[10]],['female'],[[1]],[[0.00038525]],DD
393,[[22]],[[394]],[[20]],['high holistic'],['right'],['upright'],['U0362.bmp'],['female'],[[12]],['female'],[[1]],[[0.03790507]],DD
394,[[22]],[[395]],[[16]],['low holistic'],['left'],['upright'],['U0335.bmp'],['female'],[[2]],['female'],[[1]],[[9.88095999e-05]],DD
395,[[22]],[[396]],[[10]],['low holistic'],['right'],['inverted'],['U0159.bmp'],['female'],[[6]],['female'],[[1]],[[0.00011384]],DD
396,[[22]],[[397]],[[13]],['high holistic'],['right'],['inverted'],['U0181.bmp'],['female'],[[4]],['female'],[[1]],[[0.0002765]],DD
397,[[22]],[[398]],[[8]],['low holistic'],['right'],['upright'],['U0137.bmp'],['male'],[[2]],['male'],[[1]],[[1.78816555]],DD
398,[[22]],[[399]],[[7]],['high holistic'],['left'],['inverted'],['U0107.bmp'],['female'],[[8]],['female'],[[1]],[[0.04447567]],DD
399,[[22]],[[400]],[[3]],['low holistic'],['left'],['upright'],['U0020.bmp'],['female'],[[8]],['female'],[[1]],[[0.02621112]],DD
400,[[22]],[[401]],[[4]],['low holistic'],['left'],['upright'],['U0061.bmp'],['female'],[[8]],['female'],[[1]],[[0.28124724]],DD
401,[[22]],[[402]],[[1]],['low holistic'],['fovea'],['upright'],['U0006.bmp'],['female'],[[0]],['female'],[[1]],[[1.52522895]],DD
402,[[22]],[[403]],[[8]],['low holistic'],['left'],['upright'],['U0137.bmp'],['male'],[[12]],['male'],[[1]],[[0.16112469]],DD
403,[[22]],[[404]],[[16]],['high holistic'],['right'],['inverted'],['U0335.bmp'],['female'],[[6]],['female'],[[1]],[[0.1790763]],DD
404,[[22]],[[405]],[[9]],['high holistic'],['right'],['upright'],['U0155.bmp'],['female'],[[2]],['female'],[[1]],[[0.00010022]],DD
405,[[22]],[[406]],[[20]],['high holistic'],['fovea'],['inverted'],['U0362.bmp'],['female'],[[0]],['female'],[[1]],[[0.00010027]],DD
406,[[22]],[[407]],[[5]],['high holistic'],['right'],['upright'],['U0076.bmp'],['female'],[[6]],['female'],[[1]],[[0.00024954]],DD
407,[[22]],[[408]],[[17]],['low holistic'],['right'],['inverted'],['U0346.bmp'],['female'],[[12]],['female'],[[1]],[[0.11551433]],DD
408,[[22]],[[409]],[[20]],['high holistic'],['left'],['upright'],['U0362.bmp'],['female'],[[6]],['female'],[[1]],[[9.88058746e-05]],DD
409,[[22]],[[410]],[[4]],['low holistic'],['fovea'],['upright'],['U0061.bmp'],['female'],[[0]],['male'],[[0]],[[1.63767234]],DD
410,[[22]],[[411]],[[19]],['low holistic'],['left'],['inverted'],['U0361.bmp'],['female'],[[12]],['female'],[[1]],[[0.11618123]],DD
411,[[22]],[[412]],[[7]],['low holistic'],['right'],['upright'],['U0107.bmp'],['female'],[[4]],['female'],[[1]],[[0.00041102]],DD
412,[[22]],[[413]],[[20]],['low holistic'],['left'],['upright'],['U0362.bmp'],['male'],[[8]],['male'],[[1]],[[2.99175051]],DD
413,[[22]],[[414]],[[20]],['low holistic'],['left'],['upright'],['U0362.bmp'],['male'],[[2]],['male'],[[1]],[[0.34506797]],DD
414,[[22]],[[415]],[[5]],['low holistic'],['left'],['inverted'],['U0076.bmp'],['male'],[[12]],['male'],[[1]],[[0.20974255]],DD
415,[[22]],[[416]],[[4]],['low holistic'],['left'],['inverted'],['U0061.bmp'],['female'],[[4]],['female'],[[1]],[[0.00163734]],DD
416,[[22]],[[417]],[[11]],['low holistic'],['right'],['upright'],['U0164.bmp'],['female'],[[4]],['female'],[[1]],[[0.0001005]],DD
417,[[22]],[[418]],[[19]],['low holistic'],['left'],['upright'],['U0361.bmp'],['female'],[[4]],['female'],[[1]],[[0.00015411]],DD
418,[[22]],[[419]],[[1]],['high holistic'],['right'],['inverted'],['U0006.bmp'],['female'],[[10]],['male'],[[0]],[[0.4819491]],DD
419,[[22]],[[420]],[[10]],['high holistic'],['right'],['inverted'],['U0159.bmp'],['male'],[[2]],['female'],[[0]],[[0.32680818]],DD
420,[[22]],[[421]],[[8]],['low holistic'],['right'],['upright'],['U0137.bmp'],['male'],[[12]],['male'],[[1]],[[0.18507958]],DD
421,[[22]],[[422]],[[4]],['low holistic'],['right'],['inverted'],['U0061.bmp'],['female'],[[2]],['female'],[[1]],[[0.00010337]],DD
422,[[22]],[[423]],[[7]],['low holistic'],['fovea'],['upright'],['U0107.bmp'],['female'],[[0]],['female'],[[1]],[[0.01702584]],DD
423,[[22]],[[424]],[[18]],['low holistic'],['left'],['upright'],['U0359.bmp'],['male'],[[8]],['male'],[[1]],[[0.11267265]],DD
424,[[22]],[[425]],[[11]],['high holistic'],['right'],['inverted'],['U0164.bmp'],['female'],[[12]],['female'],[[1]],[[0.45816836]],DD
425,[[22]],[[426]],[[2]],['low holistic'],['right'],['inverted'],['U0014.bmp'],['male'],[[12]],['male'],[[1]],[[0.22591646]],DD
426,[[22]],[[427]],[[18]],['high holistic'],['left'],['upright'],['U0359.bmp'],['male'],[[8]],['male'],[[1]],[[0.22493917]],DD
427,[[22]],[[428]],[[12]],['low holistic'],['right'],['upright'],['U0178.bmp'],['female'],[[2]],['female'],[[1]],[[0.03698089]],DD
428,[[22]],[[429]],[[8]],['low holistic'],['right'],['inverted'],['U0137.bmp'],['male'],[[12]],['female'],[[0]],[[0.10221698]],DD
429,[[22]],[[430]],[[1]],['low holistic'],['right'],['upright'],['U0006.bmp'],['female'],[[4]],['female'],[[1]],[[0.00991907]],DD
430,[[22]],[[431]],[[3]],['low holistic'],['left'],['upright'],['U0020.bmp'],['female'],[[4]],['female'],[[1]],[[0.00014252]],DD
431,[[22]],[[432]],[[8]],['high holistic'],['left'],['inverted'],['U0137.bmp'],['female'],[[8]],['female'],[[1]],[[0.00010716]],DD
432,[[22]],[[433]],[[6]],['high holistic'],['right'],['upright'],['U0106.bmp'],['female'],[[12]],['female'],[[1]],[[0.00010742]],DD
433,[[22]],[[434]],[[11]],['high holistic'],['left'],['upright'],['U0164.bmp'],['female'],[[12]],['female'],[[1]],[[0.04898051]],DD
434,[[22]],[[435]],[[17]],['high holistic'],['right'],['inverted'],['U0346.bmp'],['male'],[[6]],['male'],[[1]],[[0.14186208]],DD
435,[[22]],[[436]],[[12]],['low holistic'],['left'],['inverted'],['U0178.bmp'],['female'],[[2]],['female'],[[1]],[[0.1839713]],DD
436,[[22]],[[437]],[[11]],['low holistic'],['left'],['upright'],['U0164.bmp'],['female'],[[12]],['female'],[[1]],[[0.23144368]],DD
437,[[22]],[[438]],[[17]],['low holistic'],['right'],['inverted'],['U0346.bmp'],['female'],[[8]],['female'],[[1]],[[0.55163228]],DD
438,[[22]],[[439]],[[11]],['low holistic'],['left'],['inverted'],['U0164.bmp'],['female'],[[10]],['female'],[[1]],[[0.22608114]],DD
439,[[22]],[[440]],[[1]],['low holistic'],['left'],['inverted'],['U0006.bmp'],['female'],[[8]],['female'],[[1]],[[0.00794368]],DD
440,[[22]],[[441]],[[8]],['low holistic'],['right'],['inverted'],['U0137.bmp'],['male'],[[6]],['female'],[[0]],[[0.07131825]],DD
441,[[22]],[[442]],[[14]],['low holistic'],['left'],['inverted'],['U0228.bmp'],['male'],[[4]],['male'],[[1]],[[0.20379755]],DD
442,[[22]],[[443]],[[16]],['low holistic'],['right'],['upright'],['U0335.bmp'],['female'],[[8]],['female'],[[1]],[[0.0680931]],DD
443,[[22]],[[444]],[[4]],['high holistic'],['right'],['inverted'],['U0061.bmp'],['female'],[[2]],['male'],[[0]],[[0.38568708]],DD
444,[[22]],[[445]],[[10]],['low holistic'],['fovea'],['upright'],['U0159.bmp'],['female'],[[0]],['female'],[[1]],[[0.14645011]],DD
445,[[22]],[[446]],[[9]],['high holistic'],['right'],['inverted'],['U0155.bmp'],['female'],[[6]],['male'],[[0]],[[0.75594058]],DD
446,[[22]],[[447]],[[8]],['low holistic'],['fovea'],['upright'],['U0137.bmp'],['male'],[[0]],['male'],[[1]],[[0.20496353]],DD
447,[[22]],[[448]],[[20]],['low holistic'],['right'],['upright'],['U0362.bmp'],['male'],[[12]],['male'],[[1]],[[0.41218642]],DD
448,[[22]],[[449]],[[15]],['low holistic'],['fovea'],['inverted'],['U0312.bmp'],['male'],[[0]],['male'],[[1]],[[0.24416345]],DD
449,[[22]],[[450]],[[8]],['low holistic'],['left'],['upright'],['U0137.bmp'],['male'],[[6]],['male'],[[1]],[[0.16273302]],DD
450,[[22]],[[451]],[[12]],['high holistic'],['right'],['upright'],['U0178.bmp'],['male'],[[2]],['female'],[[0]],[[0.23618619]],DD
451,[[22]],[[452]],[[7]],['low holistic'],['left'],['inverted'],['U0107.bmp'],['female'],[[10]],['female'],[[1]],[[0.25009623]],DD
452,[[22]],[[453]],[[14]],['high holistic'],['left'],['upright'],['U0228.bmp'],['male'],[[6]],['male'],[[1]],[[0.19085084]],DD
453,[[22]],[[454]],[[11]],['low holistic'],['left'],['inverted'],['U0164.bmp'],['female'],[[6]],['female'],[[1]],[[0.27277139]],DD
454,[[22]],[[455]],[[9]],['low holistic'],['left'],['inverted'],['U0155.bmp'],['male'],[[12]],['male'],[[1]],[[0.27631828]],DD
455,[[22]],[[456]],[[2]],['low holistic'],['right'],['upright'],['U0014.bmp'],['male'],[[4]],['male'],[[1]],[[0.33869421]],DD
456,[[22]],[[457]],[[19]],['high holistic'],['right'],['upright'],['U0361.bmp'],['female'],[[4]],['female'],[[1]],[[0.31559324]],DD
457,[[22]],[[458]],[[10]],['low holistic'],['right'],['inverted'],['U0159.bmp'],['female'],[[2]],['female'],[[1]],[[0.6001907]],DD
458,[[22]],[[459]],[[2]],['low holistic'],['right'],['inverted'],['U0014.bmp'],['male'],[[10]],['male'],[[1]],[[0.65563052]],DD
459,[[22]],[[460]],[[3]],['high holistic'],['left'],['inverted'],['U0020.bmp'],['male'],[[2]],['female'],[[0]],[[0.37921597]],DD
460,[[22]],[[461]],[[19]],['low holistic'],['right'],['inverted'],['U0361.bmp'],['female'],[[6]],['male'],[[0]],[[0.2209534]],DD
461,[[22]],[[462]],[[10]],['high holistic'],['left'],['inverted'],['U0159.bmp'],['male'],[[8]],['male'],[[1]],[[0.66859305]],DD
462,[[22]],[[463]],[[10]],['high holistic'],['right'],['upright'],['U0159.bmp'],['male'],[[10]],['male'],[[1]],[[0.32104904]],DD
463,[[22]],[[464]],[[13]],['high holistic'],['fovea'],['inverted'],['U0181.bmp'],['female'],[[0]],['female'],[[1]],[[0.35528518]],DD
464,[[22]],[[465]],[[6]],['high holistic'],['left'],['inverted'],['U0106.bmp'],['female'],[[6]],['female'],[[1]],[[0.24593634]],DD
465,[[22]],[[466]],[[10]],['high holistic'],['left'],['upright'],['U0159.bmp'],['male'],[[12]],['female'],[[0]],[[0.25877497]],DD
466,[[22]],[[467]],[[15]],['high holistic'],['left'],['inverted'],['U0312.bmp'],['male'],[[6]],['male'],[[1]],[[2.16862206]],DD
467,[[22]],[[468]],[[18]],['high holistic'],['right'],['upright'],['U0359.bmp'],['male'],[[10]],['male'],[[1]],[[0.05708666]],DD
468,[[22]],[[469]],[[15]],['low holistic'],['right'],['upright'],['U0312.bmp'],['male'],[[12]],['male'],[[1]],[[0.16574281]],DD
469,[[22]],[[470]],[[7]],['low holistic'],['right'],['inverted'],['U0107.bmp'],['female'],[[12]],['female'],[[1]],[[0.08827071]],DD
470,[[22]],[[471]],[[4]],['low holistic'],['left'],['inverted'],['U0061.bmp'],['female'],[[10]],['female'],[[1]],[[0.09153273]],DD
471,[[22]],[[472]],[[10]],['high holistic'],['right'],['upright'],['U0159.bmp'],['male'],[[8]],['male'],[[1]],[[0.31143304]],DD
472,[[22]],[[473]],[[12]],['low holistic'],['left'],['upright'],['U0178.bmp'],['female'],[[8]],['female'],[[1]],[[0.25951514]],DD
473,[[22]],[[474]],[[14]],['low holistic'],['right'],['inverted'],['U0228.bmp'],['male'],[[2]],['male'],[[1]],[[0.32867901]],DD
474,[[22]],[[475]],[[4]],['low holistic'],['left'],['inverted'],['U0061.bmp'],['female'],[[8]],['male'],[[0]],[[0.39497685]],DD
475,[[22]],[[476]],[[8]],['low holistic'],['right'],['inverted'],['U0137.bmp'],['male'],[[10]],['male'],[[1]],[[0.34666127]],DD
476,[[22]],[[477]],[[14]],['high holistic'],['left'],['upright'],['U0228.bmp'],['male'],[[2]],['male'],[[1]],[[0.34158901]],DD
477,[[22]],[[478]],[[5]],['low holistic'],['left'],['upright'],['U0076.bmp'],['male'],[[12]],['male'],[[1]],[[0.10298196]],DD
478,[[22]],[[479]],[[11]],['low holistic'],['right'],['upright'],['U0164.bmp'],['female'],[[4]],['female'],[[1]],[[0.00011344]],DD
479,[[22]],[[480]],[[9]],['low holistic'],['left'],['upright'],['U0155.bmp'],['male'],[[2]],['male'],[[1]],[[0.01051318]],DD
480,[[22]],[[481]],[[10]],['high holistic'],['left'],['inverted'],['U0159.bmp'],['male'],[[8]],['male'],[[1]],[[0.47388047]],DD
481,[[22]],[[482]],[[18]],['high holistic'],['left'],['inverted'],['U0359.bmp'],['male'],[[12]],['male'],[[1]],[[0.20606605]],DD
482,[[22]],[[483]],[[20]],['high holistic'],['right'],['upright'],['U0362.bmp'],['female'],[[6]],['female'],[[1]],[[0.00010082]],DD
483,[[22]],[[484]],[[13]],['low holistic'],['left'],['upright'],['U0181.bmp'],['male'],[[8]],['male'],[[1]],[[0.00014106]],DD
484,[[22]],[[485]],[[20]],['high holistic'],['right'],['upright'],['U0362.bmp'],['female'],[[10]],['female'],[[1]],[[9.88952816e-05]],DD
485,[[22]],[[486]],[[20]],['high holistic'],['right'],['upright'],['U0362.bmp'],['female'],[[4]],['female'],[[1]],[[0.00010019]],DD
486,[[22]],[[487]],[[7]],['low holistic'],['right'],['upright'],['U0107.bmp'],['female'],[[8]],['female'],[[1]],[[0.0920842]],DD
487,[[22]],[[488]],[[9]],['high holistic'],['left'],['upright'],['U0155.bmp'],['female'],[[10]],['male'],[[0]],[[0.12813056]],DD
488,[[22]],[[489]],[[11]],['high holistic'],['left'],['inverted'],['U0164.bmp'],['female'],[[8]],['male'],[[0]],[[0.0510835]],DD
489,[[22]],[[490]],[[19]],['high holistic'],['left'],['inverted'],['U0361.bmp'],['female'],[[4]],['male'],[[0]],[[0.03999286]],DD
490,[[22]],[[491]],[[18]],['high holistic'],['right'],['inverted'],['U0359.bmp'],['male'],[[4]],['male'],[[1]],[[0.18359775]],DD
491,[[22]],[[492]],[[7]],['low holistic'],['left'],['upright'],['U0107.bmp'],['female'],[[4]],['female'],[[1]],[[0.00013423]],DD
492,[[22]],[[493]],[[5]],['low holistic'],['right'],['inverted'],['U0076.bmp'],['male'],[[10]],['male'],[[1]],[[0.310396]],DD
493,[[22]],[[494]],[[10]],['low holistic'],['right'],['inverted'],['U0159.bmp'],['female'],[[12]],['female'],[[1]],[[0.01873759]],DD
494,[[22]],[[495]],[[9]],['high holistic'],['left'],['upright'],['U0155.bmp'],['female'],[[6]],['male'],[[0]],[[0.18438245]],DD
495,[[22]],[[496]],[[18]],['high holistic'],['right'],['inverted'],['U0359.bmp'],['male'],[[2]],['male'],[[1]],[[0.29854769]],DD
496,[[22]],[[497]],[[5]],['low holistic'],['left'],['inverted'],['U0076.bmp'],['male'],[[8]],['male'],[[1]],[[0.12557763]],DD
497,[[22]],[[498]],[[18]],['low holistic'],['left'],['inverted'],['U0359.bmp'],['male'],[[12]],['male'],[[1]],[[0.03264094]],DD
498,[[22]],[[499]],[[16]],['high holistic'],['right'],['inverted'],['U0335.bmp'],['female'],[[8]],['male'],[[0]],[[0.42968201]],DD
499,[[22]],[[500]],[[19]],['high holistic'],['right'],['inverted'],['U0361.bmp'],['female'],[[12]],['male'],[[0]],[[0.30158762]],DD
500,[[22]],[[501]],[[19]],['low holistic'],['right'],['inverted'],['U0361.bmp'],['female'],[[8]],['female'],[[1]],[[0.23419717]],DD
501,[[22]],[[502]],[[17]],['high holistic'],['right'],['upright'],['U0346.bmp'],['male'],[[8]],['male'],[[1]],[[0.15880246]],DD
502,[[22]],[[503]],[[10]],['high holistic'],['left'],['inverted'],['U0159.bmp'],['male'],[[8]],['male'],[[1]],[[0.12878972]],DD
503,[[22]],[[504]],[[15]],['low holistic'],['right'],['upright'],['U0312.bmp'],['male'],[[4]],['male'],[[1]],[[0.30624908]],DD
504,[[22]],[[505]],[[4]],['low holistic'],['left'],['upright'],['U0061.bmp'],['female'],[[6]],['female'],[[1]],[[0.05351667]],DD
505,[[22]],[[506]],[[4]],['low holistic'],['fovea'],['inverted'],['U0061.bmp'],['female'],[[0]],['female'],[[1]],[[0.00015313]],DD
506,[[22]],[[507]],[[9]],['low holistic'],['left'],['upright'],['U0155.bmp'],['male'],[[8]],['male'],[[1]],[[0.10803751]],DD
507,[[22]],[[508]],[[11]],['high holistic'],['left'],['upright'],['U0164.bmp'],['female'],[[12]],['male'],[[0]],[[0.15097776]],DD
508,[[22]],[[509]],[[9]],['low holistic'],['left'],['inverted'],['U0155.bmp'],['male'],[[10]],['female'],[[0]],[[0.1539351]],DD
509,[[22]],[[510]],[[5]],['high holistic'],['left'],['inverted'],['U0076.bmp'],['female'],[[12]],['male'],[[0]],[[0.02779584]],DD
510,[[22]],[[511]],[[18]],['low holistic'],['left'],['inverted'],['U0359.bmp'],['male'],[[2]],['female'],[[0]],[[0.00013807]],DD
511,[[22]],[[512]],[[7]],['high holistic'],['right'],['inverted'],['U0107.bmp'],['female'],[[10]],['female'],[[1]],[[1.53670735]],DD
512,[[22]],[[513]],[[19]],['low holistic'],['right'],['upright'],['U0361.bmp'],['female'],[[6]],['female'],[[1]],[[0.76368296]],DD
513,[[22]],[[514]],[[11]],['high holistic'],['left'],['upright'],['U0164.bmp'],['female'],[[12]],['female'],[[1]],[[0.427456]],DD
514,[[22]],[[515]],[[19]],['low holistic'],['left'],['upright'],['U0361.bmp'],['female'],[[8]],['female'],[[1]],[[0.50599287]],DD
515,[[22]],[[516]],[[5]],['high holistic'],['left'],['upright'],['U0076.bmp'],['female'],[[8]],['female'],[[1]],[[0.09450534]],DD
516,[[22]],[[517]],[[7]],['low holistic'],['left'],['upright'],['U0107.bmp'],['female'],[[12]],['female'],[[1]],[[0.00155811]],DD
517,[[22]],[[518]],[[4]],['high holistic'],['left'],['inverted'],['U0061.bmp'],['female'],[[4]],['male'],[[0]],[[0.2491286]],DD
518,[[22]],[[519]],[[11]],['low holistic'],['right'],['inverted'],['U0164.bmp'],['female'],[[10]],['female'],[[1]],[[0.12795454]],DD
519,[[22]],[[520]],[[19]],['low holistic'],['left'],['upright'],['U0361.bmp'],['female'],[[4]],['female'],[[1]],[[0.02643775]],DD
520,[[22]],[[521]],[[13]],['high holistic'],['right'],['upright'],['U0181.bmp'],['female'],[[4]],['female'],[[1]],[[0.27957442]],DD
521,[[22]],[[522]],[[13]],['low holistic'],['right'],['upright'],['U0181.bmp'],['male'],[[8]],['male'],[[1]],[[0.00011307]],DD
522,[[22]],[[523]],[[11]],['low holistic'],['right'],['upright'],['U0164.bmp'],['female'],[[10]],['female'],[[1]],[[0.02641722]],DD
523,[[22]],[[524]],[[11]],['low holistic'],['left'],['inverted'],['U0164.bmp'],['female'],[[10]],['female'],[[1]],[[0.00023019]],DD
524,[[22]],[[525]],[[15]],['low holistic'],['left'],['inverted'],['U0312.bmp'],['male'],[[10]],['male'],[[1]],[[0.12219582]],DD
525,[[22]],[[526]],[[16]],['low holistic'],['left'],['inverted'],['U0335.bmp'],['female'],[[10]],['female'],[[1]],[[0.17218457]],DD
526,[[22]],[[527]],[[10]],['high holistic'],['right'],['upright'],['U0159.bmp'],['male'],[[8]],['male'],[[1]],[[0.21264237]],DD
527,[[22]],[[528]],[[20]],['low holistic'],['right'],['inverted'],['U0362.bmp'],['male'],[[12]],['male'],[[1]],[[0.20296315]],DD
528,[[22]],[[529]],[[13]],['low holistic'],['fovea'],['upright'],['U0181.bmp'],['male'],[[0]],['male'],[[1]],[[9.86736268e-05]],DD
529,[[22]],[[530]],[[5]],['low holistic'],['right'],['inverted'],['U0076.bmp'],['male'],[[8]],['male'],[[1]],[[0.09942393]],DD
530,[[22]],[[531]],[[15]],['low holistic'],['right'],['upright'],['U0312.bmp'],['male'],[[8]],['male'],[[1]],[[0.11201574]],DD
531,[[22]],[[532]],[[13]],['high holistic'],['left'],['upright'],['U0181.bmp'],['female'],[[8]],['male'],[[0]],[[0.05013019]],DD
532,[[22]],[[533]],[[14]],['low holistic'],['left'],['inverted'],['U0228.bmp'],['male'],[[2]],['male'],[[1]],[[0.11999609]],DD
533,[[22]],[[534]],[[5]],['high holistic'],['right'],['inverted'],['U0076.bmp'],['female'],[[10]],['female'],[[1]],[[0.3457658]],DD
534,[[22]],[[535]],[[11]],['high holistic'],['left'],['upright'],['U0164.bmp'],['female'],[[10]],['female'],[[1]],[[0.18151992]],DD
535,[[22]],[[536]],[[17]],['low holistic'],['right'],['inverted'],['U0346.bmp'],['female'],[[4]],['female'],[[1]],[[0.07337716]],DD
536,[[22]],[[537]],[[12]],['high holistic'],['left'],['inverted'],['U0178.bmp'],['male'],[[2]],['male'],[[1]],[[0.16889357]],DD
537,[[22]],[[538]],[[20]],['high holistic'],['left'],['upright'],['U0362.bmp'],['female'],[[2]],['female'],[[1]],[[0.21042372]],DD
538,[[22]],[[539]],[[2]],['low holistic'],['right'],['upright'],['U0014.bmp'],['male'],[[2]],['male'],[[1]],[[0.28910117]],DD
539,[[22]],[[540]],[[10]],['high holistic'],['right'],['upright'],['U0159.bmp'],['male'],[[6]],['male'],[[1]],[[0.27030671]],DD
540,[[22]],[[541]],[[4]],['low holistic'],['left'],['inverted'],['U0061.bmp'],['female'],[[4]],['female'],[[1]],[[0.00339037]],DD
541,[[22]],[[542]],[[9]],['high holistic'],['left'],['upright'],['U0155.bmp'],['female'],[[2]],['male'],[[0]],[[0.17940624]],DD
542,[[22]],[[543]],[[12]],['low holistic'],['right'],['inverted'],['U0178.bmp'],['female'],[[4]],['female'],[[1]],[[0.14764911]],DD
543,[[22]],[[544]],[[20]],['low holistic'],['left'],['upright'],['U0362.bmp'],['male'],[[12]],['male'],[[1]],[[0.16562981]],DD
544,[[22]],[[545]],[[6]],['high holistic'],['left'],['upright'],['U0106.bmp'],['female'],[[2]],['female'],[[1]],[[0.12661363]],DD
545,[[22]],[[546]],[[15]],['high holistic'],['fovea'],['upright'],['U0312.bmp'],['male'],[[0]],['male'],[[1]],[[0.17694094]],DD
546,[[22]],[[547]],[[11]],['high holistic'],['right'],['inverted'],['U0164.bmp'],['female'],[[2]],['male'],[[0]],[[0.36819311]],DD
547,[[22]],[[548]],[[15]],['low holistic'],['right'],['inverted'],['U0312.bmp'],['male'],[[2]],['male'],[[1]],[[0.15380898]],DD
548,[[22]],[[549]],[[6]],['high holistic'],['right'],['upright'],['U0106.bmp'],['female'],[[12]],['female'],[[1]],[[0.08404219]],DD
549,[[22]],[[550]],[[17]],['low holistic'],['right'],['inverted'],['U0346.bmp'],['female'],[[6]],['male'],[[0]],[[0.05520542]],DD
550,[[22]],[[551]],[[6]],['low holistic'],['left'],['inverted'],['U0106.bmp'],['male'],[[2]],['male'],[[1]],[[0.01266295]],DD
551,[[22]],[[552]],[[1]],['high holistic'],['left'],['inverted'],['U0006.bmp'],['female'],[[2]],['male'],[[0]],[[0.05973359]],DD
552,[[22]],[[553]],[[14]],['high holistic'],['right'],['upright'],['U0228.bmp'],['male'],[[12]],['female'],[[0]],[[0.06533709]],DD
553,[[22]],[[554]],[[2]],['low holistic'],['left'],['inverted'],['U0014.bmp'],['male'],[[6]],['male'],[[1]],[[0.5186942]],DD
554,[[22]],[[555]],[[8]],['high holistic'],['left'],['upright'],['U0137.bmp'],['female'],[[6]],['female'],[[1]],[[0.31533371]],DD
555,[[22]],[[556]],[[2]],['high holistic'],['left'],['inverted'],['U0014.bmp'],['male'],[[4]],['male'],[[1]],[[0.23633272]],DD
556,[[22]],[[557]],[[2]],['high holistic'],['left'],['upright'],['U0014.bmp'],['male'],[[8]],['male'],[[1]],[[0.06030637]],DD
557,[[22]],[[558]],[[9]],['high holistic'],['right'],['inverted'],['U0155.bmp'],['female'],[[4]],['male'],[[0]],[[0.41720733]],DD
558,[[22]],[[559]],[[18]],['high holistic'],['left'],['inverted'],['U0359.bmp'],['male'],[[4]],['male'],[[1]],[[0.19846416]],DD
559,[[22]],[[560]],[[6]],['high holistic'],['right'],['upright'],['U0106.bmp'],['female'],[[8]],['female'],[[1]],[[0.14424271]],DD
560,[[22]],[[561]],[[9]],['high holistic'],['right'],['inverted'],['U0155.bmp'],['female'],[[2]],['male'],[[0]],[[0.21571236]],DD
561,[[22]],[[562]],[[3]],['low holistic'],['right'],['inverted'],['U0020.bmp'],['female'],[[2]],['female'],[[1]],[[0.18336296]],DD
562,[[22]],[[563]],[[20]],['high holistic'],['right'],['inverted'],['U0362.bmp'],['female'],[[2]],['female'],[[1]],[[0.55140937]],DD
563,[[22]],[[564]],[[20]],['high holistic'],['left'],['inverted'],['U0362.bmp'],['female'],[[8]],['female'],[[1]],[[0.0670065]],DD
564,[[22]],[[565]],[[15]],['high holistic'],['left'],['inverted'],['U0312.bmp'],['male'],[[2]],['male'],[[1]],[[0.29572883]],DD
565,[[22]],[[566]],[[2]],['low holistic'],['right'],['upright'],['U0014.bmp'],['male'],[[10]],['male'],[[1]],[[0.17158951]],DD
566,[[22]],[[567]],[[16]],['low holistic'],['left'],['upright'],['U0335.bmp'],['female'],[[10]],['female'],[[1]],[[0.14064104]],DD
567,[[22]],[[568]],[[2]],['high holistic'],['right'],['upright'],['U0014.bmp'],['male'],[[12]],['male'],[[1]],[[0.18119407]],DD
568,[[22]],[[569]],[[9]],['high holistic'],['right'],['upright'],['U0155.bmp'],['female'],[[8]],['female'],[[1]],[[0.59856698]],DD
569,[[22]],[[570]],[[16]],['high holistic'],['right'],['inverted'],['U0335.bmp'],['female'],[[2]],['female'],[[1]],[[0.25431762]],DD
570,[[22]],[[571]],[[15]],['low holistic'],['right'],['upright'],['U0312.bmp'],['male'],[[12]],['male'],[[1]],[[0.07668614]],DD
571,[[22]],[[572]],[[8]],['high holistic'],['left'],['inverted'],['U0137.bmp'],['female'],[[10]],['female'],[[1]],[[0.30485047]],DD
572,[[22]],[[573]],[[2]],['low holistic'],['left'],['inverted'],['U0014.bmp'],['male'],[[4]],['male'],[[1]],[[0.49833461]],DD
573,[[22]],[[574]],[[3]],['high holistic'],['right'],['upright'],['U0020.bmp'],['male'],[[6]],['female'],[[0]],[[0.25473186]],DD
574,[[22]],[[575]],[[19]],['high holistic'],['left'],['upright'],['U0361.bmp'],['female'],[[10]],['female'],[[1]],[[0.62906919]],DD
575,[[22]],[[576]],[[5]],['low holistic'],['left'],['inverted'],['U0076.bmp'],['male'],[[10]],['male'],[[1]],[[0.20986406]],DD
576,[[22]],[[577]],[[16]],['low holistic'],['left'],['upright'],['U0335.bmp'],['female'],[[12]],['female'],[[1]],[[0.39450118]],DD
577,[[22]],[[578]],[[3]],['high holistic'],['left'],['upright'],['U0020.bmp'],['male'],[[2]],['male'],[[1]],[[0.65063865]],DD
578,[[22]],[[579]],[[19]],['low holistic'],['left'],['upright'],['U0361.bmp'],['female'],[[12]],['female'],[[1]],[[0.10444842]],DD
579,[[22]],[[580]],[[12]],['low holistic'],['left'],['upright'],['U0178.bmp'],['female'],[[2]],['male'],[[0]],[[0.44472208]],DD
580,[[22]],[[581]],[[8]],['high holistic'],['right'],['upright'],['U0137.bmp'],['female'],[[8]],['female'],[[1]],[[0.66635506]],DD
581,[[22]],[[582]],[[5]],['low holistic'],['left'],['inverted'],['U0076.bmp'],['male'],[[4]],['male'],[[1]],[[0.83783811]],DD
582,[[22]],[[583]],[[20]],['low holistic'],['right'],['upright'],['U0362.bmp'],['male'],[[6]],['male'],[[1]],[[0.1266828]],DD
583,[[22]],[[584]],[[14]],['high holistic'],['right'],['upright'],['U0228.bmp'],['male'],[[8]],['male'],[[1]],[[0.86227136]],DD
584,[[22]],[[585]],[[2]],['low holistic'],['right'],['upright'],['U0014.bmp'],['male'],[[8]],['male'],[[1]],[[0.21904513]],DD
585,[[22]],[[586]],[[13]],['low holistic'],['right'],['inverted'],['U0181.bmp'],['male'],[[2]],['male'],[[1]],[[0.38791211]],DD
586,[[22]],[[587]],[[9]],['low holistic'],['right'],['inverted'],['U0155.bmp'],['male'],[[10]],['male'],[[1]],[[0.36406304]],DD
587,[[22]],[[588]],[[12]],['high holistic'],['right'],['upright'],['U0178.bmp'],['male'],[[2]],['male'],[[1]],[[0.16575365]],DD
588,[[22]],[[589]],[[10]],['low holistic'],['left'],['upright'],['U0159.bmp'],['female'],[[12]],['female'],[[1]],[[0.00010671]],DD
589,[[22]],[[590]],[[3]],['low holistic'],['left'],['inverted'],['U0020.bmp'],['female'],[[8]],['female'],[[1]],[[0.18006503]],DD
590,[[22]],[[591]],[[5]],['high holistic'],['left'],['upright'],['U0076.bmp'],['female'],[[4]],['female'],[[1]],[[0.2940607]],DD
591,[[22]],[[592]],[[3]],['high holistic'],['fovea'],['upright'],['U0020.bmp'],['male'],[[0]],['male'],[[1]],[[0.05016185]],DD
592,[[22]],[[593]],[[12]],['low holistic'],['fovea'],['upright'],['U0178.bmp'],['female'],[[0]],['female'],[[1]],[[0.02224458]],DD
593,[[22]],[[594]],[[14]],['low holistic'],['left'],['upright'],['U0228.bmp'],['male'],[[4]],['male'],[[1]],[[0.02054421]],DD
594,[[22]],[[595]],[[16]],['low holistic'],['left'],['upright'],['U0335.bmp'],['female'],[[4]],['female'],[[1]],[[0.04389816]],DD
595,[[22]],[[596]],[[15]],['low holistic'],['left'],['inverted'],['U0312.bmp'],['male'],[[12]],['female'],[[0]],[[0.28316445]],DD
596,[[22]],[[597]],[[13]],['high holistic'],['left'],['upright'],['U0181.bmp'],['female'],[[4]],['female'],[[1]],[[0.06335496]],DD
597,[[22]],[[598]],[[19]],['low holistic'],['right'],['upright'],['U0361.bmp'],['female'],[[10]],['female'],[[1]],[[0.08321231]],DD
598,[[22]],[[599]],[[3]],['high holistic'],['right'],['upright'],['U0020.bmp'],['male'],[[10]],['female'],[[0]],[[0.20808993]],DD
599,[[22]],[[600]],[[20]],['low holistic'],['right'],['inverted'],['U0362.bmp'],['male'],[[10]],['male'],[[1]],[[0.15101579]],DD
600,[[22]],[[601]],[[19]],['low holistic'],['right'],['upright'],['U0361.bmp'],['female'],[[10]],['male'],[[0]],[[0.00102556]],DD
601,[[22]],[[602]],[[14]],['high holistic'],['left'],['upright'],['U0228.bmp'],['male'],[[8]],['male'],[[1]],[[0.82408343]],DD
602,[[22]],[[603]],[[17]],['high holistic'],['right'],['inverted'],['U0346.bmp'],['male'],[[6]],['male'],[[1]],[[0.19171451]],DD
603,[[22]],[[604]],[[8]],['high holistic'],['left'],['inverted'],['U0137.bmp'],['female'],[[12]],['female'],[[1]],[[0.18334602]],DD
604,[[22]],[[605]],[[12]],['high holistic'],['left'],['inverted'],['U0178.bmp'],['male'],[[6]],['male'],[[1]],[[0.07090993]],DD
605,[[22]],[[606]],[[19]],['high holistic'],['right'],['inverted'],['U0361.bmp'],['female'],[[6]],['female'],[[1]],[[0.09319013]],DD
606,[[22]],[[607]],[[16]],['high holistic'],['left'],['inverted'],['U0335.bmp'],['female'],[[8]],['female'],[[1]],[[0.27198641]],DD
607,[[22]],[[608]],[[12]],['low holistic'],['left'],['upright'],['U0178.bmp'],['female'],[[8]],['female'],[[1]],[[0.42947865]],DD
608,[[22]],[[609]],[[5]],['high holistic'],['right'],['inverted'],['U0076.bmp'],['female'],[[10]],['female'],[[1]],[[0.12443236]],DD
609,[[22]],[[610]],[[4]],['low holistic'],['right'],['inverted'],['U0061.bmp'],['female'],[[10]],['female'],[[1]],[[0.10921588]],DD
610,[[22]],[[611]],[[5]],['high holistic'],['left'],['inverted'],['U0076.bmp'],['female'],[[4]],['female'],[[1]],[[9.87313688e-05]],DD
611,[[22]],[[612]],[[3]],['low holistic'],['left'],['inverted'],['U0020.bmp'],['female'],[[12]],['female'],[[1]],[[0.00010439]],DD
612,[[22]],[[613]],[[7]],['high holistic'],['left'],['upright'],['U0107.bmp'],['female'],[[12]],['female'],[[1]],[[0.3358107]],DD
613,[[22]],[[614]],[[10]],['high holistic'],['right'],['upright'],['U0159.bmp'],['male'],[[10]],['male'],[[1]],[[0.27491974]],DD
614,[[22]],[[615]],[[17]],['high holistic'],['left'],['upright'],['U0346.bmp'],['male'],[[6]],['male'],[[1]],[[0.01479531]],DD
615,[[22]],[[616]],[[11]],['low holistic'],['right'],['inverted'],['U0164.bmp'],['female'],[[4]],['female'],[[1]],[[0.15877866]],DD
616,[[22]],[[617]],[[14]],['low holistic'],['right'],['upright'],['U0228.bmp'],['male'],[[12]],['male'],[[1]],[[0.16799572]],DD
617,[[22]],[[618]],[[12]],['low holistic'],['right'],['inverted'],['U0178.bmp'],['female'],[[10]],['female'],[[1]],[[0.22452074]],DD
618,[[22]],[[619]],[[1]],['high holistic'],['left'],['inverted'],['U0006.bmp'],['female'],[[12]],['male'],[[0]],[[0.24623135]],DD
619,[[22]],[[620]],[[17]],['low holistic'],['right'],['inverted'],['U0346.bmp'],['female'],[[4]],['female'],[[1]],[[0.00414879]],DD
620,[[22]],[[621]],[[2]],['low holistic'],['left'],['upright'],['U0014.bmp'],['male'],[[6]],['male'],[[1]],[[0.18742926]],DD
621,[[22]],[[622]],[[11]],['low holistic'],['right'],['inverted'],['U0164.bmp'],['female'],[[6]],['male'],[[0]],[[0.18078085]],DD
622,[[22]],[[623]],[[6]],['low holistic'],['left'],['inverted'],['U0106.bmp'],['male'],[[6]],['male'],[[1]],[[1.0293748]],DD
623,[[22]],[[624]],[[11]],['low holistic'],['right'],['upright'],['U0164.bmp'],['female'],[[12]],['female'],[[1]],[[0.20200944]],DD
624,[[22]],[[625]],[[4]],['high holistic'],['right'],['inverted'],['U0061.bmp'],['female'],[[12]],['male'],[[0]],[[0.14640809]],DD
625,[[22]],[[626]],[[3]],['low holistic'],['right'],['upright'],['U0020.bmp'],['female'],[[6]],['female'],[[1]],[[0.12356105]],DD
626,[[22]],[[627]],[[16]],['high holistic'],['right'],['inverted'],['U0335.bmp'],['female'],[[10]],['male'],[[0]],[[0.81518084]],DD
627,[[22]],[[628]],[[19]],['low holistic'],['left'],['inverted'],['U0361.bmp'],['female'],[[2]],['female'],[[1]],[[0.2700622]],DD
628,[[22]],[[629]],[[18]],['high holistic'],['left'],['upright'],['U0359.bmp'],['male'],[[2]],['male'],[[1]],[[0.45020268]],DD
629,[[22]],[[630]],[[8]],['low holistic'],['left'],['upright'],['U0137.bmp'],['male'],[[12]],['male'],[[1]],[[0.13667502]],DD
630,[[22]],[[631]],[[19]],['high holistic'],['right'],['upright'],['U0361.bmp'],['female'],[[2]],['female'],[[1]],[[0.13063969]],DD
631,[[22]],[[632]],[[13]],['low holistic'],['right'],['inverted'],['U0181.bmp'],['male'],[[2]],['male'],[[1]],[[0.11648523]],DD
632,[[22]],[[633]],[[8]],['low holistic'],['left'],['upright'],['U0137.bmp'],['male'],[[8]],['female'],[[0]],[[0.0732382]],DD
633,[[22]],[[634]],[[20]],['low holistic'],['left'],['upright'],['U0362.bmp'],['male'],[[12]],['male'],[[1]],[[0.53247754]],DD
634,[[22]],[[635]],[[8]],['low holistic'],['left'],['upright'],['U0137.bmp'],['male'],[[4]],['male'],[[1]],[[0.00014498]],DD
635,[[22]],[[636]],[[6]],['low holistic'],['right'],['upright'],['U0106.bmp'],['male'],[[10]],['male'],[[1]],[[0.28833931]],DD
636,[[22]],[[637]],[[3]],['high holistic'],['left'],['inverted'],['U0020.bmp'],['male'],[[6]],['male'],[[1]],[[0.45243944]],DD
637,[[22]],[[638]],[[3]],['high holistic'],['right'],['upright'],['U0020.bmp'],['male'],[[4]],['male'],[[1]],[[0.14619463]],DD
638,[[22]],[[639]],[[1]],['low holistic'],['left'],['inverted'],['U0006.bmp'],['female'],[[2]],['female'],[[1]],[[0.16410702]],DD
639,[[22]],[[640]],[[9]],['low holistic'],['left'],['upright'],['U0155.bmp'],['male'],[[4]],['male'],[[1]],[[0.43658277]],DD
640,[[22]],[[641]],[[14]],['low holistic'],['left'],['upright'],['U0228.bmp'],['male'],[[8]],['male'],[[1]],[[0.12248758]],DD
641,[[22]],[[642]],[[6]],['low holistic'],['left'],['upright'],['U0106.bmp'],['male'],[[8]],['male'],[[1]],[[0.07702674]],DD
642,[[22]],[[643]],[[18]],['low holistic'],['right'],['inverted'],['U0359.bmp'],['male'],[[10]],['male'],[[1]],[[0.37686294]],DD
643,[[22]],[[644]],[[13]],['high holistic'],['right'],['inverted'],['U0181.bmp'],['female'],[[4]],['female'],[[1]],[[0.25980996]],DD
644,[[22]],[[645]],[[19]],['high holistic'],['left'],['inverted'],['U0361.bmp'],['female'],[[2]],['male'],[[0]],[[0.07076404]],DD
645,[[22]],[[646]],[[7]],['high holistic'],['right'],['inverted'],['U0107.bmp'],['female'],[[12]],['male'],[[0]],[[0.50786635]],DD
646,[[22]],[[647]],[[12]],['low holistic'],['right'],['upright'],['U0178.bmp'],['female'],[[10]],['female'],[[1]],[[0.16799897]],DD
647,[[22]],[[648]],[[6]],['low holistic'],['left'],['inverted'],['U0106.bmp'],['male'],[[12]],['male'],[[1]],[[0.15304551]],DD
648,[[22]],[[649]],[[2]],['high holistic'],['left'],['upright'],['U0014.bmp'],['male'],[[6]],['male'],[[1]],[[0.09800364]],DD
649,[[22]],[[650]],[[14]],['low holistic'],['right'],['inverted'],['U0228.bmp'],['male'],[[4]],['male'],[[1]],[[0.17326801]],DD
650,[[22]],[[651]],[[13]],['low holistic'],['left'],['upright'],['U0181.bmp'],['male'],[[2]],['male'],[[1]],[[0.41983423]],DD
651,[[22]],[[652]],[[9]],['low holistic'],['right'],['inverted'],['U0155.bmp'],['male'],[[12]],['male'],[[1]],[[0.29022081]],DD
652,[[22]],[[653]],[[10]],['low holistic'],['left'],['upright'],['U0159.bmp'],['female'],[[6]],['female'],[[1]],[[0.00010015]],DD
653,[[22]],[[654]],[[9]],['low holistic'],['left'],['upright'],['U0155.bmp'],['male'],[[8]],['male'],[[1]],[[0.0002552]],DD
654,[[22]],[[655]],[[8]],['high holistic'],['left'],['upright'],['U0137.bmp'],['female'],[[4]],['female'],[[1]],[[0.06864321]],DD
655,[[22]],[[656]],[[3]],['low holistic'],['right'],['upright'],['U0020.bmp'],['female'],[[8]],['female'],[[1]],[[0.27516847]],DD
656,[[22]],[[657]],[[12]],['low holistic'],['left'],['inverted'],['U0178.bmp'],['female'],[[6]],['male'],[[0]],[[0.17659761]],DD
657,[[22]],[[658]],[[8]],['high holistic'],['right'],['upright'],['U0137.bmp'],['female'],[[4]],['female'],[[1]],[[0.01427053]],DD
658,[[22]],[[659]],[[20]],['high holistic'],['left'],['upright'],['U0362.bmp'],['female'],[[8]],['female'],[[1]],[[0.28754854]],DD
659,[[22]],[[660]],[[8]],['low holistic'],['left'],['upright'],['U0137.bmp'],['male'],[[6]],['male'],[[1]],[[0.04285201]],DD
660,[[22]],[[661]],[[13]],['low holistic'],['right'],['inverted'],['U0181.bmp'],['male'],[[12]],['female'],[[0]],[[0.13765463]],DD
661,[[22]],[[662]],[[2]],['high holistic'],['left'],['upright'],['U0014.bmp'],['male'],[[8]],['male'],[[1]],[[0.19569744]],DD
662,[[22]],[[663]],[[15]],['low holistic'],['right'],['upright'],['U0312.bmp'],['male'],[[4]],['male'],[[1]],[[0.1956649]],DD
663,[[22]],[[664]],[[9]],['low holistic'],['left'],['upright'],['U0155.bmp'],['male'],[[2]],['male'],[[1]],[[0.08965929]],DD
664,[[22]],[[665]],[[4]],['high holistic'],['left'],['upright'],['U0061.bmp'],['female'],[[2]],['female'],[[1]],[[0.12717306]],DD
665,[[22]],[[666]],[[19]],['high holistic'],['left'],['inverted'],['U0361.bmp'],['female'],[[10]],['female'],[[1]],[[0.41654065]],DD
666,[[22]],[[667]],[[4]],['high holistic'],['right'],['upright'],['U0061.bmp'],['female'],[[2]],['female'],[[1]],[[0.0964655]],DD
667,[[22]],[[668]],[[19]],['high holistic'],['right'],['upright'],['U0361.bmp'],['female'],[[8]],['female'],[[1]],[[0.03710339]],DD
668,[[22]],[[669]],[[3]],['low holistic'],['right'],['upright'],['U0020.bmp'],['female'],[[12]],['female'],[[1]],[[9.8939985e-05]],DD
669,[[22]],[[670]],[[15]],['low holistic'],['right'],['inverted'],['U0312.bmp'],['male'],[[8]],['male'],[[1]],[[0.18597184]],DD
670,[[22]],[[671]],[[7]],['high holistic'],['right'],['upright'],['U0107.bmp'],['female'],[[2]],['female'],[[1]],[[0.14733722]],DD
671,[[22]],[[672]],[[8]],['high holistic'],['right'],['inverted'],['U0137.bmp'],['female'],[[10]],['female'],[[1]],[[0.12425834]],DD
672,[[22]],[[673]],[[7]],['low holistic'],['left'],['upright'],['U0107.bmp'],['female'],[[10]],['female'],[[1]],[[0.02262198]],DD
673,[[22]],[[674]],[[15]],['high holistic'],['left'],['inverted'],['U0312.bmp'],['male'],[[8]],['male'],[[1]],[[0.42029226]],DD
674,[[22]],[[675]],[[4]],['high holistic'],['right'],['inverted'],['U0061.bmp'],['female'],[[2]],['female'],[[1]],[[0.18031719]],DD
675,[[22]],[[676]],[[3]],['low holistic'],['right'],['inverted'],['U0020.bmp'],['female'],[[4]],['female'],[[1]],[[0.019526]],DD
676,[[22]],[[677]],[[20]],['high holistic'],['right'],['inverted'],['U0362.bmp'],['female'],[[8]],['female'],[[1]],[[0.13020653]],DD
677,[[22]],[[678]],[[2]],['high holistic'],['left'],['upright'],['U0014.bmp'],['male'],[[4]],['male'],[[1]],[[0.11007266]],DD
678,[[22]],[[679]],[[13]],['high holistic'],['fovea'],['inverted'],['U0181.bmp'],['female'],[[0]],['female'],[[1]],[[0.32851866]],DD
679,[[22]],[[680]],[[3]],['high holistic'],['left'],['upright'],['U0020.bmp'],['male'],[[8]],['male'],[[1]],[[0.25177057]],DD
680,[[22]],[[681]],[[4]],['low holistic'],['left'],['inverted'],['U0061.bmp'],['female'],[[4]],['female'],[[1]],[[0.30465627]],DD
681,[[22]],[[682]],[[14]],['high holistic'],['left'],['inverted'],['U0228.bmp'],['male'],[[10]],['male'],[[1]],[[0.23658478]],DD
682,[[22]],[[683]],[[1]],['low holistic'],['fovea'],['inverted'],['U0006.bmp'],['female'],[[0]],['female'],[[1]],[[0.09076786]],DD
683,[[22]],[[684]],[[10]],['high holistic'],['left'],['inverted'],['U0159.bmp'],['male'],[[8]],['male'],[[1]],[[0.26279899]],DD
684,[[22]],[[685]],[[14]],['high holistic'],['fovea'],['upright'],['U0228.bmp'],['male'],[[0]],['female'],[[0]],[[0.00030917]],DD
685,[[22]],[[686]],[[1]],['high holistic'],['right'],['upright'],['U0006.bmp'],['female'],[[10]],['female'],[[1]],[[0.18797149]],DD
686,[[22]],[[687]],[[12]],['low holistic'],['right'],['upright'],['U0178.bmp'],['female'],[[6]],['female'],[[1]],[[0.02009058]],DD
687,[[22]],[[688]],[[20]],['low holistic'],['right'],['inverted'],['U0362.bmp'],['male'],[[2]],['male'],[[1]],[[0.13156299]],DD
688,[[22]],[[689]],[[11]],['low holistic'],['left'],['upright'],['U0164.bmp'],['female'],[[6]],['female'],[[1]],[[1.97192279]],DD
689,[[22]],[[690]],[[10]],['high holistic'],['fovea'],['inverted'],['U0159.bmp'],['male'],[[0]],['male'],[[1]],[[0.30155487]],DD
690,[[22]],[[691]],[[9]],['low holistic'],['right'],['inverted'],['U0155.bmp'],['male'],[[2]],['male'],[[1]],[[0.38567874]],DD
691,[[22]],[[692]],[[12]],['high holistic'],['left'],['upright'],['U0178.bmp'],['male'],[[12]],['female'],[[0]],[[0.77677258]],DD
692,[[22]],[[693]],[[16]],['high holistic'],['left'],['upright'],['U0335.bmp'],['female'],[[12]],['female'],[[1]],[[0.41805344]],DD
693,[[22]],[[694]],[[6]],['high holistic'],['right'],['upright'],['U0106.bmp'],['female'],[[8]],['female'],[[1]],[[0.29770875]],DD
694,[[22]],[[695]],[[7]],['low holistic'],['right'],['inverted'],['U0107.bmp'],['female'],[[10]],['female'],[[1]],[[0.07019826]],DD
695,[[22]],[[696]],[[17]],['high holistic'],['fovea'],['inverted'],['U0346.bmp'],['male'],[[0]],['female'],[[0]],[[0.32122503]],DD
696,[[22]],[[697]],[[8]],['low holistic'],['left'],['upright'],['U0137.bmp'],['male'],[[4]],['male'],[[1]],[[0.18855013]],DD
697,[[22]],[[698]],[[16]],['high holistic'],['left'],['inverted'],['U0335.bmp'],['female'],[[8]],['male'],[[0]],[[0.25195038]],DD
698,[[22]],[[699]],[[16]],['high holistic'],['right'],['inverted'],['U0335.bmp'],['female'],[[6]],['female'],[[1]],[[0.26563316]],DD
699,[[22]],[[700]],[[4]],['high holistic'],['left'],['upright'],['U0061.bmp'],['female'],[[10]],['female'],[[1]],[[0.31019031]],DD
700,[[22]],[[701]],[[10]],['high holistic'],['right'],['inverted'],['U0159.bmp'],['male'],[[8]],['female'],[[0]],[[0.13089214]],DD
701,[[22]],[[702]],[[2]],['low holistic'],['left'],['upright'],['U0014.bmp'],['male'],[[10]],['male'],[[1]],[[0.53394299]],DD
702,[[22]],[[703]],[[9]],['high holistic'],['left'],['upright'],['U0155.bmp'],['female'],[[10]],['male'],[[0]],[[0.38316277]],DD
703,[[22]],[[704]],[[16]],['low holistic'],['fovea'],['inverted'],['U0335.bmp'],['female'],[[0]],['female'],[[1]],[[0.28881757]],DD
704,[[22]],[[705]],[[13]],['high holistic'],['right'],['inverted'],['U0181.bmp'],['female'],[[12]],['female'],[[1]],[[0.2349154]],DD
705,[[22]],[[706]],[[8]],['high holistic'],['left'],['inverted'],['U0137.bmp'],['female'],[[6]],['female'],[[1]],[[0.42583714]],DD
706,[[22]],[[707]],[[12]],['high holistic'],['left'],['upright'],['U0178.bmp'],['male'],[[6]],['male'],[[1]],[[0.4647548]],DD
707,[[22]],[[708]],[[8]],['high holistic'],['left'],['inverted'],['U0137.bmp'],['female'],[[12]],['female'],[[1]],[[0.35033213]],DD
708,[[22]],[[709]],[[18]],['high holistic'],['left'],['inverted'],['U0359.bmp'],['male'],[[12]],['male'],[[1]],[[0.22401446]],DD
709,[[22]],[[710]],[[15]],['high holistic'],['right'],['inverted'],['U0312.bmp'],['male'],[[12]],['female'],[[0]],[[0.25408832]],DD
710,[[22]],[[711]],[[9]],['high holistic'],['left'],['inverted'],['U0155.bmp'],['female'],[[4]],['female'],[[1]],[[0.14846557]],DD
711,[[22]],[[712]],[[10]],['low holistic'],['right'],['upright'],['U0159.bmp'],['female'],[[4]],['female'],[[1]],[[0.25203175]],DD
712,[[22]],[[713]],[[2]],['high holistic'],['left'],['inverted'],['U0014.bmp'],['male'],[[2]],['female'],[[0]],[[0.26795809]],DD
713,[[22]],[[714]],[[2]],['high holistic'],['left'],['inverted'],['U0014.bmp'],['male'],[[6]],['female'],[[0]],[[0.10345939]],DD
714,[[22]],[[715]],[[20]],['low holistic'],['left'],['upright'],['U0362.bmp'],['male'],[[2]],['male'],[[1]],[[0.39573739]],DD
715,[[22]],[[716]],[[12]],['high holistic'],['fovea'],['inverted'],['U0178.bmp'],['male'],[[0]],['male'],[[1]],[[0.64335799]],DD
716,[[22]],[[717]],[[5]],['high holistic'],['right'],['inverted'],['U0076.bmp'],['female'],[[8]],['male'],[[0]],[[0.15250251]],DD
717,[[22]],[[718]],[[20]],['high holistic'],['right'],['inverted'],['U0362.bmp'],['female'],[[6]],['male'],[[0]],[[0.43582213]],DD
718,[[22]],[[719]],[[16]],['high holistic'],['right'],['inverted'],['U0335.bmp'],['female'],[[2]],['female'],[[1]],[[0.20045682]],DD
719,[[22]],[[720]],[[17]],['high holistic'],['left'],['inverted'],['U0346.bmp'],['male'],[[4]],['female'],[[0]],[[0.27315598]],DD
720,[[22]],[[721]],[[12]],['low holistic'],['right'],['upright'],['U0178.bmp'],['female'],[[8]],['female'],[[1]],[[0.10141403]],DD
721,[[22]],[[722]],[[11]],['high holistic'],['right'],['inverted'],['U0164.bmp'],['female'],[[4]],['male'],[[0]],[[0.40098872]],DD
722,[[22]],[[723]],[[4]],['high holistic'],['right'],['upright'],['U0061.bmp'],['female'],[[2]],['female'],[[1]],[[0.0578327]],DD
723,[[22]],[[724]],[[8]],['high holistic'],['right'],['inverted'],['U0137.bmp'],['female'],[[12]],['female'],[[1]],[[0.36650972]],DD
724,[[22]],[[725]],[[9]],['low holistic'],['right'],['inverted'],['U0155.bmp'],['male'],[[8]],['male'],[[1]],[[0.32644437]],DD
725,[[22]],[[726]],[[17]],['high holistic'],['left'],['upright'],['U0346.bmp'],['male'],[[4]],['female'],[[0]],[[0.00066141]],DD
726,[[22]],[[727]],[[3]],['low holistic'],['left'],['inverted'],['U0020.bmp'],['female'],[[12]],['female'],[[1]],[[0.62507904]],DD
727,[[22]],[[728]],[[5]],['high holistic'],['left'],['upright'],['U0076.bmp'],['female'],[[2]],['female'],[[1]],[[0.0483377]],DD
728,[[22]],[[729]],[[8]],['high holistic'],['left'],['inverted'],['U0137.bmp'],['female'],[[8]],['female'],[[1]],[[0.0454355]],DD
729,[[22]],[[730]],[[5]],['high holistic'],['left'],['inverted'],['U0076.bmp'],['female'],[[12]],['female'],[[1]],[[0.00048533]],DD
730,[[22]],[[731]],[[2]],['high holistic'],['left'],['upright'],['U0014.bmp'],['male'],[[4]],['male'],[[1]],[[1.46027145]],DD
731,[[22]],[[732]],[[8]],['low holistic'],['right'],['upright'],['U0137.bmp'],['male'],[[4]],['male'],[[1]],[[0.28911014]],DD
732,[[22]],[[733]],[[4]],['low holistic'],['left'],['inverted'],['U0061.bmp'],['female'],[[6]],['female'],[[1]],[[0.35735831]],DD
733,[[22]],[[734]],[[4]],['high holistic'],['left'],['upright'],['U0061.bmp'],['female'],[[4]],['female'],[[1]],[[0.2794571]],DD
734,[[22]],[[735]],[[16]],['high holistic'],['left'],['upright'],['U0335.bmp'],['female'],[[10]],['female'],[[1]],[[0.24995222]],DD
735,[[22]],[[736]],[[17]],['low holistic'],['right'],['upright'],['U0346.bmp'],['female'],[[8]],['female'],[[1]],[[0.12816098]],DD
736,[[22]],[[737]],[[13]],['high holistic'],['right'],['inverted'],['U0181.bmp'],['female'],[[2]],['female'],[[1]],[[0.17842316]],DD
737,[[22]],[[738]],[[13]],['high holistic'],['right'],['upright'],['U0181.bmp'],['female'],[[6]],['female'],[[1]],[[0.00398468]],DD
738,[[22]],[[739]],[[6]],['high holistic'],['left'],['upright'],['U0106.bmp'],['female'],[[2]],['female'],[[1]],[[0.0681424]],DD
739,[[22]],[[740]],[[3]],['high holistic'],['right'],['inverted'],['U0020.bmp'],['male'],[[4]],['female'],[[0]],[[0.00784739]],DD
740,[[22]],[[741]],[[4]],['high holistic'],['left'],['upright'],['U0061.bmp'],['female'],[[12]],['female'],[[1]],[[0.02365776]],DD
741,[[22]],[[742]],[[13]],['low holistic'],['left'],['inverted'],['U0181.bmp'],['male'],[[10]],['female'],[[0]],[[9.98526812e-05]],DD
742,[[22]],[[743]],[[13]],['high holistic'],['fovea'],['upright'],['U0181.bmp'],['female'],[[0]],['female'],[[1]],[[0.17320983]],DD
743,[[22]],[[744]],[[5]],['high holistic'],['left'],['inverted'],['U0076.bmp'],['female'],[[6]],['female'],[[1]],[[0.26143878]],DD
744,[[22]],[[745]],[[13]],['high holistic'],['left'],['inverted'],['U0181.bmp'],['female'],[[8]],['female'],[[1]],[[0.0503541]],DD
745,[[22]],[[746]],[[4]],['high holistic'],['right'],['upright'],['U0061.bmp'],['female'],[[4]],['female'],[[1]],[[0.0001277]],DD
746,[[22]],[[747]],[[1]],['high holistic'],['right'],['inverted'],['U0006.bmp'],['female'],[[2]],['female'],[[1]],[[0.37668451]],DD
747,[[22]],[[748]],[[16]],['high holistic'],['right'],['inverted'],['U0335.bmp'],['female'],[[10]],['female'],[[1]],[[0.4977876]],DD
748,[[22]],[[749]],[[20]],['low holistic'],['left'],['inverted'],['U0362.bmp'],['male'],[[2]],['male'],[[1]],[[0.26919515]],DD
749,[[22]],[[750]],[[13]],['low holistic'],['left'],['upright'],['U0181.bmp'],['male'],[[6]],['male'],[[1]],[[0.522245]],DD
750,[[22]],[[751]],[[12]],['low holistic'],['right'],['inverted'],['U0178.bmp'],['female'],[[10]],['female'],[[1]],[[0.00014701]],DD
751,[[22]],[[752]],[[9]],['low holistic'],['right'],['upright'],['U0155.bmp'],['male'],[[10]],['male'],[[1]],[[0.14767588]],DD
752,[[22]],[[753]],[[16]],['low holistic'],['left'],['upright'],['U0335.bmp'],['female'],[[10]],['female'],[[1]],[[0.06999777]],DD
753,[[22]],[[754]],[[15]],['low holistic'],['right'],['inverted'],['U0312.bmp'],['male'],[[4]],['male'],[[1]],[[0.22506009]],DD
754,[[22]],[[755]],[[1]],['high holistic'],['left'],['upright'],['U0006.bmp'],['female'],[[12]],['male'],[[0]],[[0.64063742]],DD
755,[[22]],[[756]],[[2]],['high holistic'],['right'],['inverted'],['U0014.bmp'],['male'],[[2]],['male'],[[1]],[[0.38164615]],DD
756,[[22]],[[757]],[[12]],['low holistic'],['fovea'],['upright'],['U0178.bmp'],['female'],[[0]],['female'],[[1]],[[0.15072902]],DD
757,[[22]],[[758]],[[6]],['low holistic'],['fovea'],['inverted'],['U0106.bmp'],['male'],[[0]],['male'],[[1]],[[0.21610418]],DD
758,[[22]],[[759]],[[18]],['high holistic'],['right'],['inverted'],['U0359.bmp'],['male'],[[12]],['female'],[[0]],[[0.22327586]],DD
759,[[22]],[[760]],[[9]],['high holistic'],['left'],['upright'],['U0155.bmp'],['female'],[[10]],['male'],[[0]],[[0.39959101]],DD
760,[[22]],[[761]],[[14]],['low holistic'],['left'],['upright'],['U0228.bmp'],['male'],[[12]],['male'],[[1]],[[9.98787582e-05]],DD
761,[[22]],[[762]],[[14]],['low holistic'],['right'],['upright'],['U0228.bmp'],['male'],[[2]],['male'],[[1]],[[0.06942126]],DD
762,[[22]],[[763]],[[11]],['low holistic'],['left'],['inverted'],['U0164.bmp'],['female'],[[12]],['female'],[[1]],[[0.04309617]],DD
763,[[22]],[[764]],[[1]],['low holistic'],['left'],['upright'],['U0006.bmp'],['female'],[[10]],['female'],[[1]],[[0.10548371]],DD
764,[[22]],[[765]],[[7]],['high holistic'],['left'],['upright'],['U0107.bmp'],['female'],[[8]],['male'],[[0]],[[0.09901823]],DD
765,[[22]],[[766]],[[6]],['low holistic'],['right'],['upright'],['U0106.bmp'],['male'],[[4]],['male'],[[1]],[[0.39917409]],DD
766,[[22]],[[767]],[[17]],['high holistic'],['right'],['upright'],['U0346.bmp'],['male'],[[6]],['male'],[[1]],[[0.14270558]],DD
767,[[22]],[[768]],[[7]],['high holistic'],['left'],['upright'],['U0107.bmp'],['female'],[[12]],['male'],[[0]],[[0.08963179]],DD
768,[[22]],[[769]],[[20]],['low holistic'],['right'],['inverted'],['U0362.bmp'],['male'],[[2]],['male'],[[1]],[[0.06872777]],DD
769,[[22]],[[770]],[[6]],['low holistic'],['right'],['inverted'],['U0106.bmp'],['male'],[[8]],['female'],[[0]],[[0.45795245]],DD
770,[[22]],[[771]],[[2]],['low holistic'],['left'],['inverted'],['U0014.bmp'],['male'],[[8]],['female'],[[0]],[[0.10366032]],DD
771,[[22]],[[772]],[[13]],['high holistic'],['fovea'],['inverted'],['U0181.bmp'],['female'],[[0]],['female'],[[1]],[[0.14007833]],DD
