,SUBID,TRIAL,MOONEYID,MOONEYCATEGORY,LOC,COND,MOONEY_NAME,MOONEY_GENDER,ECCENTRICITY,RESPONSE,ACCURACY,RT,SUBINIT
0,[[16]],[[1]],[[3]],['low holistic'],['left'],['upright'],['U0020.bmp'],['female'],[[4]],['female'],[[1]],[[0.36452584]],DG
1,[[16]],[[2]],[[8]],['high holistic'],['fovea'],['inverted'],['U0137.bmp'],['female'],[[0]],['male'],[[0]],[[0.19113215]],DG
2,[[16]],[[3]],[[2]],['low holistic'],['right'],['inverted'],['U0014.bmp'],['male'],[[8]],['male'],[[1]],[[0.01516688]],DG
3,[[16]],[[4]],[[1]],['high holistic'],['left'],['inverted'],['U0006.bmp'],['female'],[[8]],['female'],[[1]],[[0.03832283]],DG
4,[[16]],[[5]],[[16]],['high holistic'],['left'],['upright'],['U0335.bmp'],['female'],[[12]],['female'],[[1]],[[0.01396995]],DG
5,[[16]],[[6]],[[10]],['low holistic'],['left'],['inverted'],['U0159.bmp'],['female'],[[4]],['female'],[[1]],[[0.00055461]],DG
6,[[16]],[[7]],[[10]],['high holistic'],['left'],['upright'],['U0159.bmp'],['male'],[[2]],['male'],[[1]],[[0.03630112]],DG
7,[[16]],[[8]],[[11]],['low holistic'],['left'],['inverted'],['U0164.bmp'],['female'],[[2]],['female'],[[1]],[[0.06847496]],DG
8,[[16]],[[9]],[[3]],['high holistic'],['left'],['upright'],['U0020.bmp'],['male'],[[12]],['female'],[[0]],[[0.12073732]],DG
9,[[16]],[[10]],[[19]],['high holistic'],['left'],['upright'],['U0361.bmp'],['female'],[[10]],['male'],[[0]],[[0.08494508]],DG
10,[[16]],[[11]],[[20]],['low holistic'],['left'],['upright'],['U0362.bmp'],['male'],[[6]],['male'],[[1]],[[0.12948337]],DG
11,[[16]],[[12]],[[12]],['high holistic'],['right'],['upright'],['U0178.bmp'],['male'],[[12]],['male'],[[1]],[[0.060506]],DG
12,[[16]],[[13]],[[18]],['low holistic'],['left'],['inverted'],['U0359.bmp'],['male'],[[8]],['female'],[[0]],[[0.25112349]],DG
13,[[16]],[[14]],[[20]],['low holistic'],['right'],['inverted'],['U0362.bmp'],['male'],[[6]],['male'],[[1]],[[48.81771592]],DG
14,[[16]],[[15]],[[6]],['low holistic'],['right'],['upright'],['U0106.bmp'],['male'],[[10]],['female'],[[0]],[[0.1615205]],DG
15,[[16]],[[16]],[[8]],['low holistic'],['left'],['upright'],['U0137.bmp'],['male'],[[4]],['male'],[[1]],[[0.06482375]],DG
16,[[16]],[[17]],[[14]],['low holistic'],['left'],['upright'],['U0228.bmp'],['male'],[[10]],['male'],[[1]],[[0.09491908]],DG
17,[[16]],[[18]],[[4]],['low holistic'],['right'],['upright'],['U0061.bmp'],['female'],[[6]],['female'],[[1]],[[0.00012378]],DG
18,[[16]],[[19]],[[10]],['high holistic'],['fovea'],['upright'],['U0159.bmp'],['male'],[[0]],['male'],[[1]],[[0.04406553]],DG
19,[[16]],[[20]],[[16]],['low holistic'],['right'],['inverted'],['U0335.bmp'],['female'],[[2]],['female'],[[1]],[[0.17894188]],DG
20,[[16]],[[21]],[[8]],['low holistic'],['left'],['upright'],['U0137.bmp'],['male'],[[8]],['male'],[[1]],[[0.02758244]],DG
21,[[16]],[[22]],[[16]],['low holistic'],['left'],['upright'],['U0335.bmp'],['female'],[[2]],['female'],[[1]],[[0.00031063]],DG
22,[[16]],[[23]],[[13]],['low holistic'],['right'],['upright'],['U0181.bmp'],['male'],[[8]],['male'],[[1]],[[0.00010027]],DG
23,[[16]],[[24]],[[14]],['high holistic'],['right'],['upright'],['U0228.bmp'],['male'],[[8]],['female'],[[0]],[[0.00428832]],DG
24,[[16]],[[25]],[[5]],['high holistic'],['left'],['inverted'],['U0076.bmp'],['female'],[[10]],['male'],[[0]],[[0.04293411]],DG
25,[[16]],[[26]],[[14]],['high holistic'],['fovea'],['inverted'],['U0228.bmp'],['male'],[[0]],['female'],[[0]],[[0.00041229]],DG
26,[[16]],[[27]],[[17]],['high holistic'],['left'],['upright'],['U0346.bmp'],['male'],[[10]],['male'],[[1]],[[0.00165165]],DG
27,[[16]],[[28]],[[17]],['high holistic'],['left'],['upright'],['U0346.bmp'],['male'],[[8]],['male'],[[1]],[[0.00021445]],DG
28,[[16]],[[29]],[[2]],['low holistic'],['left'],['upright'],['U0014.bmp'],['male'],[[12]],['male'],[[1]],[[0.05091592]],DG
29,[[16]],[[30]],[[6]],['high holistic'],['right'],['upright'],['U0106.bmp'],['female'],[[10]],['male'],[[0]],[[0.02331835]],DG
30,[[16]],[[31]],[[17]],['low holistic'],['left'],['upright'],['U0346.bmp'],['female'],[[12]],['female'],[[1]],[[0.20791089]],DG
31,[[16]],[[32]],[[9]],['high holistic'],['left'],['upright'],['U0155.bmp'],['female'],[[6]],['male'],[[0]],[[0.23895903]],DG
32,[[16]],[[33]],[[2]],['high holistic'],['left'],['inverted'],['U0014.bmp'],['male'],[[10]],['male'],[[1]],[[0.27735529]],DG
33,[[16]],[[34]],[[17]],['high holistic'],['right'],['upright'],['U0346.bmp'],['male'],[[2]],['male'],[[1]],[[0.00263714]],DG
34,[[16]],[[35]],[[4]],['low holistic'],['left'],['inverted'],['U0061.bmp'],['female'],[[10]],['female'],[[1]],[[0.03413085]],DG
35,[[16]],[[36]],[[1]],['low holistic'],['right'],['inverted'],['U0006.bmp'],['female'],[[2]],['female'],[[1]],[[0.03429942]],DG
36,[[16]],[[37]],[[5]],['low holistic'],['right'],['upright'],['U0076.bmp'],['male'],[[12]],['male'],[[1]],[[0.00015568]],DG
37,[[16]],[[38]],[[10]],['high holistic'],['left'],['inverted'],['U0159.bmp'],['male'],[[10]],['male'],[[1]],[[0.00010796]],DG
38,[[16]],[[39]],[[19]],['high holistic'],['left'],['inverted'],['U0361.bmp'],['female'],[[2]],['male'],[[0]],[[0.01627527]],DG
39,[[16]],[[40]],[[18]],['low holistic'],['left'],['upright'],['U0359.bmp'],['male'],[[6]],['male'],[[1]],[[0.02380249]],DG
40,[[16]],[[41]],[[10]],['high holistic'],['right'],['inverted'],['U0159.bmp'],['male'],[[10]],['female'],[[0]],[[0.00019144]],DG
41,[[16]],[[42]],[[3]],['low holistic'],['right'],['upright'],['U0020.bmp'],['female'],[[6]],['female'],[[1]],[[0.00010594]],DG
42,[[16]],[[43]],[[14]],['low holistic'],['right'],['upright'],['U0228.bmp'],['male'],[[4]],['male'],[[1]],[[0.00037697]],DG
43,[[16]],[[44]],[[13]],['high holistic'],['left'],['upright'],['U0181.bmp'],['female'],[[2]],['male'],[[0]],[[0.00018108]],DG
44,[[16]],[[45]],[[3]],['low holistic'],['right'],['inverted'],['U0020.bmp'],['female'],[[10]],['male'],[[0]],[[0.15141999]],DG
45,[[16]],[[46]],[[11]],['high holistic'],['fovea'],['inverted'],['U0164.bmp'],['female'],[[0]],['female'],[[1]],[[0.39422023]],DG
46,[[16]],[[47]],[[12]],['low holistic'],['right'],['inverted'],['U0178.bmp'],['female'],[[12]],['female'],[[1]],[[0.00031199]],DG
47,[[16]],[[48]],[[16]],['high holistic'],['right'],['inverted'],['U0335.bmp'],['female'],[[8]],['male'],[[0]],[[0.24342735]],DG
48,[[16]],[[49]],[[7]],['high holistic'],['right'],['inverted'],['U0107.bmp'],['female'],[[2]],['male'],[[0]],[[0.2815893]],DG
49,[[16]],[[50]],[[19]],['low holistic'],['left'],['upright'],['U0361.bmp'],['female'],[[12]],['female'],[[1]],[[0.27730763]],DG
50,[[16]],[[51]],[[13]],['high holistic'],['left'],['inverted'],['U0181.bmp'],['female'],[[2]],['female'],[[1]],[[0.02638451]],DG
51,[[16]],[[52]],[[13]],['low holistic'],['left'],['inverted'],['U0181.bmp'],['male'],[[12]],['male'],[[1]],[[0.06618122]],DG
52,[[16]],[[53]],[[2]],['high holistic'],['left'],['upright'],['U0014.bmp'],['male'],[[4]],['male'],[[1]],[[2.76811726]],DG
53,[[16]],[[54]],[[13]],['high holistic'],['right'],['inverted'],['U0181.bmp'],['female'],[[12]],['male'],[[0]],[[0.06602693]],DG
54,[[16]],[[55]],[[8]],['low holistic'],['left'],['upright'],['U0137.bmp'],['male'],[[8]],['male'],[[1]],[[0.19867344]],DG
55,[[16]],[[56]],[[16]],['low holistic'],['left'],['inverted'],['U0335.bmp'],['female'],[[4]],['female'],[[1]],[[0.00033815]],DG
56,[[16]],[[57]],[[4]],['low holistic'],['right'],['inverted'],['U0061.bmp'],['female'],[[6]],['male'],[[0]],[[0.00010719]],DG
57,[[16]],[[58]],[[13]],['low holistic'],['right'],['upright'],['U0181.bmp'],['male'],[[8]],['male'],[[1]],[[0.05551483]],DG
58,[[16]],[[59]],[[4]],['low holistic'],['right'],['inverted'],['U0061.bmp'],['female'],[[6]],['female'],[[1]],[[0.02825997]],DG
59,[[16]],[[60]],[[17]],['low holistic'],['right'],['upright'],['U0346.bmp'],['female'],[[6]],['female'],[[1]],[[0.05848446]],DG
60,[[16]],[[61]],[[12]],['high holistic'],['right'],['inverted'],['U0178.bmp'],['male'],[[8]],['female'],[[0]],[[0.05771994]],DG
61,[[16]],[[62]],[[20]],['high holistic'],['left'],['inverted'],['U0362.bmp'],['female'],[[12]],['male'],[[0]],[[0.07149064]],DG
62,[[16]],[[63]],[[5]],['low holistic'],['left'],['upright'],['U0076.bmp'],['male'],[[12]],['male'],[[1]],[[0.04519845]],DG
63,[[16]],[[64]],[[15]],['low holistic'],['right'],['upright'],['U0312.bmp'],['male'],[[10]],['male'],[[1]],[[0.12308316]],DG
64,[[16]],[[65]],[[12]],['low holistic'],['left'],['inverted'],['U0178.bmp'],['female'],[[10]],['female'],[[1]],[[0.06947622]],DG
65,[[16]],[[66]],[[13]],['low holistic'],['right'],['inverted'],['U0181.bmp'],['male'],[[2]],['male'],[[1]],[[0.06783275]],DG
66,[[16]],[[67]],[[4]],['high holistic'],['left'],['inverted'],['U0061.bmp'],['female'],[[2]],['female'],[[1]],[[0.18475406]],DG
67,[[16]],[[68]],[[15]],['high holistic'],['left'],['inverted'],['U0312.bmp'],['male'],[[2]],['male'],[[1]],[[0.13853259]],DG
68,[[16]],[[69]],[[5]],['low holistic'],['right'],['inverted'],['U0076.bmp'],['male'],[[12]],['male'],[[1]],[[0.06829633]],DG
69,[[16]],[[70]],[[1]],['high holistic'],['right'],['inverted'],['U0006.bmp'],['female'],[[12]],['female'],[[1]],[[0.00016222]],DG
70,[[16]],[[71]],[[8]],['high holistic'],['right'],['upright'],['U0137.bmp'],['female'],[[10]],['male'],[[0]],[[0.08926786]],DG
71,[[16]],[[72]],[[11]],['high holistic'],['right'],['upright'],['U0164.bmp'],['female'],[[8]],['female'],[[1]],[[0.10936167]],DG
72,[[16]],[[73]],[[1]],['low holistic'],['left'],['inverted'],['U0006.bmp'],['female'],[[10]],['female'],[[1]],[[0.10632015]],DG
73,[[16]],[[74]],[[19]],['low holistic'],['left'],['inverted'],['U0361.bmp'],['female'],[[8]],['male'],[[0]],[[0.1824893]],DG
74,[[16]],[[75]],[[7]],['high holistic'],['right'],['inverted'],['U0107.bmp'],['female'],[[12]],['female'],[[1]],[[0.05509636]],DG
75,[[16]],[[76]],[[2]],['high holistic'],['right'],['upright'],['U0014.bmp'],['male'],[[6]],['female'],[[0]],[[0.00040736]],DG
76,[[16]],[[77]],[[19]],['high holistic'],['left'],['inverted'],['U0361.bmp'],['female'],[[2]],['male'],[[0]],[[0.0599735]],DG
77,[[16]],[[78]],[[15]],['low holistic'],['right'],['inverted'],['U0312.bmp'],['male'],[[10]],['male'],[[1]],[[0.12162498]],DG
78,[[16]],[[79]],[[17]],['high holistic'],['right'],['upright'],['U0346.bmp'],['male'],[[6]],['male'],[[1]],[[0.17205489]],DG
79,[[16]],[[80]],[[5]],['high holistic'],['fovea'],['inverted'],['U0076.bmp'],['female'],[[0]],['male'],[[0]],[[0.05311771]],DG
80,[[16]],[[81]],[[20]],['low holistic'],['left'],['inverted'],['U0362.bmp'],['male'],[[6]],['male'],[[1]],[[0.12363449]],DG
81,[[16]],[[82]],[[20]],['low holistic'],['right'],['inverted'],['U0362.bmp'],['male'],[[4]],['male'],[[1]],[[0.13552486]],DG
82,[[16]],[[83]],[[3]],['low holistic'],['right'],['inverted'],['U0020.bmp'],['female'],[[10]],['female'],[[1]],[[0.13070953]],DG
83,[[16]],[[84]],[[1]],['low holistic'],['right'],['inverted'],['U0006.bmp'],['female'],[[12]],['female'],[[1]],[[0.0193248]],DG
84,[[16]],[[85]],[[14]],['low holistic'],['left'],['inverted'],['U0228.bmp'],['male'],[[8]],['male'],[[1]],[[0.0002221]],DG
85,[[16]],[[86]],[[13]],['high holistic'],['left'],['inverted'],['U0181.bmp'],['female'],[[6]],['male'],[[0]],[[0.08350798]],DG
86,[[16]],[[87]],[[13]],['low holistic'],['fovea'],['upright'],['U0181.bmp'],['male'],[[0]],['male'],[[1]],[[0.06418863]],DG
87,[[16]],[[88]],[[20]],['high holistic'],['left'],['inverted'],['U0362.bmp'],['female'],[[6]],['male'],[[0]],[[0.06173866]],DG
88,[[16]],[[89]],[[18]],['high holistic'],['right'],['upright'],['U0359.bmp'],['male'],[[10]],['female'],[[0]],[[0.02797396]],DG
89,[[16]],[[90]],[[1]],['high holistic'],['left'],['upright'],['U0006.bmp'],['female'],[[6]],['female'],[[1]],[[0.05019349]],DG
90,[[16]],[[91]],[[6]],['low holistic'],['left'],['inverted'],['U0106.bmp'],['male'],[[10]],['male'],[[1]],[[0.06516739]],DG
91,[[16]],[[92]],[[4]],['high holistic'],['right'],['inverted'],['U0061.bmp'],['female'],[[10]],['female'],[[1]],[[0.00012028]],DG
92,[[16]],[[93]],[[13]],['high holistic'],['left'],['upright'],['U0181.bmp'],['female'],[[8]],['female'],[[1]],[[0.1264726]],DG
93,[[16]],[[94]],[[6]],['low holistic'],['left'],['inverted'],['U0106.bmp'],['male'],[[8]],['female'],[[0]],[[0.03354518]],DG
94,[[16]],[[95]],[[17]],['high holistic'],['right'],['upright'],['U0346.bmp'],['male'],[[2]],['male'],[[1]],[[0.08826019]],DG
95,[[16]],[[96]],[[4]],['low holistic'],['left'],['inverted'],['U0061.bmp'],['female'],[[10]],['female'],[[1]],[[0.08430402]],DG
96,[[16]],[[97]],[[16]],['high holistic'],['fovea'],['upright'],['U0335.bmp'],['female'],[[0]],['female'],[[1]],[[0.04816443]],DG
97,[[16]],[[98]],[[16]],['low holistic'],['right'],['inverted'],['U0335.bmp'],['female'],[[10]],['female'],[[1]],[[0.11118453]],DG
98,[[16]],[[99]],[[3]],['low holistic'],['left'],['upright'],['U0020.bmp'],['female'],[[4]],['female'],[[1]],[[0.08973505]],DG
99,[[16]],[[100]],[[7]],['high holistic'],['right'],['upright'],['U0107.bmp'],['female'],[[12]],['male'],[[0]],[[0.10066143]],DG
100,[[16]],[[101]],[[4]],['high holistic'],['right'],['upright'],['U0061.bmp'],['female'],[[6]],['male'],[[0]],[[0.05820107]],DG
101,[[16]],[[102]],[[17]],['high holistic'],['left'],['inverted'],['U0346.bmp'],['male'],[[4]],['female'],[[0]],[[0.17685132]],DG
102,[[16]],[[103]],[[16]],['high holistic'],['right'],['inverted'],['U0335.bmp'],['female'],[[4]],['male'],[[0]],[[0.18690244]],DG
103,[[16]],[[104]],[[4]],['high holistic'],['right'],['inverted'],['U0061.bmp'],['female'],[[10]],['male'],[[0]],[[0.08992621]],DG
104,[[16]],[[105]],[[5]],['low holistic'],['right'],['upright'],['U0076.bmp'],['male'],[[6]],['male'],[[1]],[[0.17437539]],DG
105,[[16]],[[106]],[[2]],['low holistic'],['left'],['upright'],['U0014.bmp'],['male'],[[2]],['male'],[[1]],[[0.13506664]],DG
106,[[16]],[[107]],[[10]],['low holistic'],['left'],['inverted'],['U0159.bmp'],['female'],[[2]],['female'],[[1]],[[0.10578303]],DG
107,[[16]],[[108]],[[20]],['low holistic'],['left'],['inverted'],['U0362.bmp'],['male'],[[4]],['male'],[[1]],[[0.14343981]],DG
108,[[16]],[[109]],[[1]],['low holistic'],['fovea'],['upright'],['U0006.bmp'],['female'],[[0]],['female'],[[1]],[[0.08874324]],DG
109,[[16]],[[110]],[[19]],['high holistic'],['right'],['upright'],['U0361.bmp'],['female'],[[10]],['female'],[[1]],[[0.13994544]],DG
110,[[16]],[[111]],[[5]],['low holistic'],['fovea'],['upright'],['U0076.bmp'],['male'],[[0]],['male'],[[1]],[[0.09438521]],DG
111,[[16]],[[112]],[[17]],['high holistic'],['right'],['inverted'],['U0346.bmp'],['male'],[[10]],['male'],[[1]],[[0.07597693]],DG
112,[[16]],[[113]],[[20]],['high holistic'],['left'],['inverted'],['U0362.bmp'],['female'],[[4]],['female'],[[1]],[[0.08809543]],DG
113,[[16]],[[114]],[[7]],['high holistic'],['right'],['upright'],['U0107.bmp'],['female'],[[2]],['female'],[[1]],[[0.12494372]],DG
114,[[16]],[[115]],[[13]],['high holistic'],['left'],['inverted'],['U0181.bmp'],['female'],[[12]],['male'],[[0]],[[0.13588357]],DG
115,[[16]],[[116]],[[19]],['high holistic'],['right'],['upright'],['U0361.bmp'],['female'],[[10]],['male'],[[0]],[[0.10535443]],DG
116,[[16]],[[117]],[[19]],['high holistic'],['right'],['upright'],['U0361.bmp'],['female'],[[8]],['male'],[[0]],[[0.00036796]],DG
117,[[16]],[[118]],[[17]],['low holistic'],['right'],['inverted'],['U0346.bmp'],['female'],[[10]],['female'],[[1]],[[0.07027347]],DG
118,[[16]],[[119]],[[13]],['high holistic'],['right'],['inverted'],['U0181.bmp'],['female'],[[12]],['female'],[[1]],[[0.22641313]],DG
119,[[16]],[[120]],[[5]],['high holistic'],['left'],['inverted'],['U0076.bmp'],['female'],[[4]],['female'],[[1]],[[0.1624471]],DG
120,[[16]],[[121]],[[11]],['high holistic'],['right'],['inverted'],['U0164.bmp'],['female'],[[10]],['female'],[[1]],[[0.10013234]],DG
121,[[16]],[[122]],[[1]],['low holistic'],['right'],['inverted'],['U0006.bmp'],['female'],[[12]],['female'],[[1]],[[0.09672277]],DG
122,[[16]],[[123]],[[5]],['low holistic'],['left'],['inverted'],['U0076.bmp'],['male'],[[8]],['male'],[[1]],[[0.03579713]],DG
123,[[16]],[[124]],[[1]],['high holistic'],['fovea'],['upright'],['U0006.bmp'],['female'],[[0]],['female'],[[1]],[[0.20128159]],DG
124,[[16]],[[125]],[[3]],['high holistic'],['right'],['upright'],['U0020.bmp'],['male'],[[4]],['female'],[[0]],[[0.02634413]],DG
125,[[16]],[[126]],[[13]],['low holistic'],['right'],['inverted'],['U0181.bmp'],['male'],[[2]],['male'],[[1]],[[0.08218278]],DG
126,[[16]],[[127]],[[9]],['high holistic'],['right'],['inverted'],['U0155.bmp'],['female'],[[6]],['male'],[[0]],[[0.07766356]],DG
127,[[16]],[[128]],[[2]],['high holistic'],['right'],['upright'],['U0014.bmp'],['male'],[[4]],['male'],[[1]],[[0.03559212]],DG
128,[[16]],[[129]],[[16]],['high holistic'],['right'],['upright'],['U0335.bmp'],['female'],[[2]],['female'],[[1]],[[0.1536076]],DG
129,[[16]],[[130]],[[9]],['high holistic'],['left'],['upright'],['U0155.bmp'],['female'],[[8]],['female'],[[1]],[[0.15599762]],DG
130,[[16]],[[131]],[[10]],['low holistic'],['left'],['upright'],['U0159.bmp'],['female'],[[6]],['female'],[[1]],[[0.16843274]],DG
131,[[16]],[[132]],[[10]],['high holistic'],['right'],['upright'],['U0159.bmp'],['male'],[[8]],['male'],[[1]],[[0.00010844]],DG
132,[[16]],[[133]],[[12]],['high holistic'],['left'],['inverted'],['U0178.bmp'],['male'],[[10]],['female'],[[0]],[[0.00011252]],DG
133,[[16]],[[134]],[[13]],['low holistic'],['left'],['upright'],['U0181.bmp'],['male'],[[8]],['male'],[[1]],[[0.04140648]],DG
134,[[16]],[[135]],[[19]],['low holistic'],['right'],['upright'],['U0361.bmp'],['female'],[[6]],['female'],[[1]],[[0.00010986]],DG
135,[[16]],[[136]],[[19]],['low holistic'],['right'],['inverted'],['U0361.bmp'],['female'],[[10]],['male'],[[0]],[[0.20146361]],DG
136,[[16]],[[137]],[[1]],['low holistic'],['left'],['inverted'],['U0006.bmp'],['female'],[[2]],['female'],[[1]],[[0.0728152]],DG
137,[[16]],[[138]],[[10]],['low holistic'],['right'],['inverted'],['U0159.bmp'],['female'],[[4]],['female'],[[1]],[[0.06062468]],DG
138,[[16]],[[139]],[[11]],['low holistic'],['right'],['upright'],['U0164.bmp'],['female'],[[4]],['female'],[[1]],[[0.011788]],DG
139,[[16]],[[140]],[[19]],['high holistic'],['right'],['upright'],['U0361.bmp'],['female'],[[8]],['male'],[[0]],[[0.00010708]],DG
140,[[16]],[[141]],[[9]],['high holistic'],['right'],['inverted'],['U0155.bmp'],['female'],[[4]],['male'],[[0]],[[0.00010015]],DG
141,[[16]],[[142]],[[14]],['low holistic'],['left'],['upright'],['U0228.bmp'],['male'],[[8]],['male'],[[1]],[[0.02739436]],DG
142,[[16]],[[143]],[[6]],['low holistic'],['left'],['upright'],['U0106.bmp'],['male'],[[8]],['female'],[[0]],[[0.11492054]],DG
143,[[16]],[[144]],[[5]],['high holistic'],['right'],['inverted'],['U0076.bmp'],['female'],[[8]],['female'],[[1]],[[0.10059456]],DG
144,[[16]],[[145]],[[15]],['high holistic'],['fovea'],['upright'],['U0312.bmp'],['male'],[[0]],['male'],[[1]],[[0.03982947]],DG
145,[[16]],[[146]],[[12]],['high holistic'],['left'],['upright'],['U0178.bmp'],['male'],[[8]],['male'],[[1]],[[0.00010986]],DG
146,[[16]],[[147]],[[11]],['high holistic'],['right'],['upright'],['U0164.bmp'],['female'],[[4]],['female'],[[1]],[[0.11292855]],DG
147,[[16]],[[148]],[[2]],['high holistic'],['left'],['inverted'],['U0014.bmp'],['male'],[[8]],['male'],[[1]],[[0.21232372]],DG
148,[[16]],[[149]],[[19]],['high holistic'],['left'],['inverted'],['U0361.bmp'],['female'],[[8]],['male'],[[0]],[[0.05132557]],DG
149,[[16]],[[150]],[[6]],['high holistic'],['left'],['inverted'],['U0106.bmp'],['female'],[[2]],['female'],[[1]],[[0.24085951]],DG
150,[[16]],[[151]],[[14]],['high holistic'],['left'],['upright'],['U0228.bmp'],['male'],[[12]],['female'],[[0]],[[0.08648577]],DG
151,[[16]],[[152]],[[5]],['low holistic'],['right'],['upright'],['U0076.bmp'],['male'],[[6]],['male'],[[1]],[[0.05232107]],DG
152,[[16]],[[153]],[[3]],['high holistic'],['right'],['inverted'],['U0020.bmp'],['male'],[[12]],['male'],[[1]],[[0.07298392]],DG
153,[[16]],[[154]],[[5]],['high holistic'],['right'],['upright'],['U0076.bmp'],['female'],[[10]],['female'],[[1]],[[0.10185875]],DG
154,[[16]],[[155]],[[7]],['high holistic'],['left'],['inverted'],['U0107.bmp'],['female'],[[4]],['male'],[[0]],[[0.09105592]],DG
155,[[16]],[[156]],[[19]],['low holistic'],['left'],['upright'],['U0361.bmp'],['female'],[[12]],['female'],[[1]],[[0.38231879]],DG
156,[[16]],[[157]],[[14]],['low holistic'],['right'],['inverted'],['U0228.bmp'],['male'],[[6]],['male'],[[1]],[[0.09625801]],DG
157,[[16]],[[158]],[[8]],['high holistic'],['left'],['upright'],['U0137.bmp'],['female'],[[6]],['female'],[[1]],[[0.22897285]],DG
158,[[16]],[[159]],[[16]],['high holistic'],['right'],['inverted'],['U0335.bmp'],['female'],[[6]],['male'],[[0]],[[0.17041318]],DG
159,[[16]],[[160]],[[11]],['low holistic'],['left'],['inverted'],['U0164.bmp'],['female'],[[8]],['female'],[[1]],[[0.10774564]],DG
160,[[16]],[[161]],[[18]],['high holistic'],['left'],['upright'],['U0359.bmp'],['male'],[[10]],['female'],[[0]],[[0.05717781]],DG
161,[[16]],[[162]],[[10]],['high holistic'],['right'],['inverted'],['U0159.bmp'],['male'],[[6]],['female'],[[0]],[[0.13446603]],DG
162,[[16]],[[163]],[[12]],['high holistic'],['left'],['upright'],['U0178.bmp'],['male'],[[2]],['male'],[[1]],[[0.06368674]],DG
163,[[16]],[[164]],[[20]],['low holistic'],['right'],['upright'],['U0362.bmp'],['male'],[[2]],['male'],[[1]],[[0.06174015]],DG
164,[[16]],[[165]],[[1]],['low holistic'],['left'],['inverted'],['U0006.bmp'],['female'],[[8]],['female'],[[1]],[[0.1542788]],DG
165,[[16]],[[166]],[[3]],['low holistic'],['right'],['inverted'],['U0020.bmp'],['female'],[[4]],['female'],[[1]],[[0.11653312]],DG
166,[[16]],[[167]],[[8]],['low holistic'],['left'],['inverted'],['U0137.bmp'],['male'],[[6]],['male'],[[1]],[[0.13532343]],DG
167,[[16]],[[168]],[[14]],['low holistic'],['fovea'],['upright'],['U0228.bmp'],['male'],[[0]],['male'],[[1]],[[0.07445731]],DG
168,[[16]],[[169]],[[16]],['low holistic'],['right'],['upright'],['U0335.bmp'],['female'],[[12]],['female'],[[1]],[[0.02377341]],DG
169,[[16]],[[170]],[[2]],['low holistic'],['left'],['upright'],['U0014.bmp'],['male'],[[8]],['female'],[[0]],[[0.12676564]],DG
170,[[16]],[[171]],[[16]],['low holistic'],['fovea'],['upright'],['U0335.bmp'],['female'],[[0]],['female'],[[1]],[[0.05737661]],DG
171,[[16]],[[172]],[[12]],['high holistic'],['left'],['inverted'],['U0178.bmp'],['male'],[[10]],['male'],[[1]],[[0.14359621]],DG
172,[[16]],[[173]],[[15]],['low holistic'],['fovea'],['upright'],['U0312.bmp'],['male'],[[0]],['male'],[[1]],[[0.06704274]],DG
173,[[16]],[[174]],[[8]],['high holistic'],['right'],['inverted'],['U0137.bmp'],['female'],[[2]],['male'],[[0]],[[0.08619299]],DG
174,[[16]],[[175]],[[5]],['high holistic'],['fovea'],['upright'],['U0076.bmp'],['female'],[[0]],['female'],[[1]],[[0.08357895]],DG
175,[[16]],[[176]],[[16]],['low holistic'],['left'],['inverted'],['U0335.bmp'],['female'],[[6]],['female'],[[1]],[[0.06528507]],DG
176,[[16]],[[177]],[[11]],['low holistic'],['left'],['upright'],['U0164.bmp'],['female'],[[12]],['female'],[[1]],[[0.10330793]],DG
177,[[16]],[[178]],[[2]],['low holistic'],['left'],['upright'],['U0014.bmp'],['male'],[[8]],['male'],[[1]],[[0.08089783]],DG
178,[[16]],[[179]],[[7]],['low holistic'],['right'],['inverted'],['U0107.bmp'],['female'],[[12]],['female'],[[1]],[[0.05503475]],DG
179,[[16]],[[180]],[[12]],['high holistic'],['left'],['inverted'],['U0178.bmp'],['male'],[[12]],['male'],[[1]],[[0.11720587]],DG
180,[[16]],[[181]],[[20]],['low holistic'],['left'],['inverted'],['U0362.bmp'],['male'],[[2]],['female'],[[0]],[[0.12782153]],DG
181,[[16]],[[182]],[[7]],['high holistic'],['right'],['inverted'],['U0107.bmp'],['female'],[[12]],['male'],[[0]],[[0.19452514]],DG
182,[[16]],[[183]],[[9]],['low holistic'],['right'],['upright'],['U0155.bmp'],['male'],[[12]],['male'],[[1]],[[0.07655582]],DG
183,[[16]],[[184]],[[20]],['low holistic'],['right'],['inverted'],['U0362.bmp'],['male'],[[4]],['male'],[[1]],[[0.11883673]],DG
184,[[16]],[[185]],[[17]],['low holistic'],['right'],['upright'],['U0346.bmp'],['female'],[[10]],['female'],[[1]],[[0.02909229]],DG
185,[[16]],[[186]],[[3]],['high holistic'],['fovea'],['inverted'],['U0020.bmp'],['male'],[[0]],['male'],[[1]],[[0.04316085]],DG
186,[[16]],[[187]],[[20]],['high holistic'],['left'],['inverted'],['U0362.bmp'],['female'],[[4]],['male'],[[0]],[[0.22478103]],DG
187,[[16]],[[188]],[[2]],['low holistic'],['left'],['upright'],['U0014.bmp'],['male'],[[8]],['male'],[[1]],[[0.03298395]],DG
188,[[16]],[[189]],[[15]],['low holistic'],['fovea'],['upright'],['U0312.bmp'],['male'],[[0]],['male'],[[1]],[[0.0314859]],DG
189,[[16]],[[190]],[[17]],['low holistic'],['left'],['inverted'],['U0346.bmp'],['female'],[[8]],['female'],[[1]],[[0.02939206]],DG
190,[[16]],[[191]],[[20]],['low holistic'],['right'],['upright'],['U0362.bmp'],['male'],[[12]],['male'],[[1]],[[0.00016733]],DG
191,[[16]],[[192]],[[7]],['low holistic'],['right'],['upright'],['U0107.bmp'],['female'],[[6]],['female'],[[1]],[[0.06736649]],DG
192,[[16]],[[193]],[[11]],['low holistic'],['right'],['upright'],['U0164.bmp'],['female'],[[12]],['female'],[[1]],[[0.10517772]],DG
193,[[16]],[[194]],[[11]],['low holistic'],['left'],['inverted'],['U0164.bmp'],['female'],[[12]],['female'],[[1]],[[0.06787114]],DG
194,[[16]],[[195]],[[11]],['low holistic'],['right'],['inverted'],['U0164.bmp'],['female'],[[2]],['female'],[[1]],[[0.04852878]],DG
195,[[16]],[[196]],[[4]],['high holistic'],['right'],['inverted'],['U0061.bmp'],['female'],[[8]],['male'],[[0]],[[0.10219638]],DG
196,[[16]],[[197]],[[4]],['low holistic'],['right'],['inverted'],['U0061.bmp'],['female'],[[6]],['female'],[[1]],[[0.03466207]],DG
197,[[16]],[[198]],[[2]],['high holistic'],['left'],['upright'],['U0014.bmp'],['male'],[[4]],['male'],[[1]],[[0.12982444]],DG
198,[[16]],[[199]],[[15]],['low holistic'],['right'],['inverted'],['U0312.bmp'],['male'],[[6]],['male'],[[1]],[[0.09210338]],DG
199,[[16]],[[200]],[[20]],['low holistic'],['left'],['inverted'],['U0362.bmp'],['male'],[[4]],['male'],[[1]],[[0.05642188]],DG
200,[[16]],[[201]],[[14]],['low holistic'],['left'],['upright'],['U0228.bmp'],['male'],[[6]],['male'],[[1]],[[0.10212642]],DG
201,[[16]],[[202]],[[14]],['high holistic'],['right'],['inverted'],['U0228.bmp'],['male'],[[2]],['female'],[[0]],[[0.21731713]],DG
202,[[16]],[[203]],[[10]],['low holistic'],['fovea'],['inverted'],['U0159.bmp'],['female'],[[0]],['female'],[[1]],[[0.0001078]],DG
203,[[16]],[[204]],[[3]],['high holistic'],['left'],['upright'],['U0020.bmp'],['male'],[[6]],['female'],[[0]],[[0.17095084]],DG
204,[[16]],[[205]],[[12]],['low holistic'],['right'],['upright'],['U0178.bmp'],['female'],[[6]],['female'],[[1]],[[0.10710887]],DG
205,[[16]],[[206]],[[8]],['low holistic'],['right'],['inverted'],['U0137.bmp'],['male'],[[6]],['male'],[[1]],[[0.28694127]],DG
206,[[16]],[[207]],[[16]],['low holistic'],['right'],['upright'],['U0335.bmp'],['female'],[[6]],['female'],[[1]],[[0.02884177]],DG
207,[[16]],[[208]],[[9]],['high holistic'],['left'],['upright'],['U0155.bmp'],['female'],[[10]],['male'],[[0]],[[0.04994347]],DG
208,[[16]],[[209]],[[20]],['high holistic'],['left'],['inverted'],['U0362.bmp'],['female'],[[2]],['female'],[[1]],[[0.02428916]],DG
209,[[16]],[[210]],[[6]],['high holistic'],['right'],['inverted'],['U0106.bmp'],['female'],[[6]],['female'],[[1]],[[0.0315772]],DG
210,[[16]],[[211]],[[16]],['low holistic'],['right'],['inverted'],['U0335.bmp'],['female'],[[10]],['male'],[[0]],[[0.02303855]],DG
211,[[16]],[[212]],[[12]],['high holistic'],['right'],['upright'],['U0178.bmp'],['male'],[[4]],['male'],[[1]],[[0.11768087]],DG
212,[[16]],[[213]],[[7]],['low holistic'],['left'],['upright'],['U0107.bmp'],['female'],[[12]],['female'],[[1]],[[0.09551388]],DG
213,[[16]],[[214]],[[7]],['high holistic'],['left'],['upright'],['U0107.bmp'],['female'],[[8]],['female'],[[1]],[[0.26950009]],DG
214,[[16]],[[215]],[[4]],['low holistic'],['left'],['inverted'],['U0061.bmp'],['female'],[[2]],['female'],[[1]],[[0.08938987]],DG
215,[[16]],[[216]],[[12]],['low holistic'],['right'],['upright'],['U0178.bmp'],['female'],[[12]],['female'],[[1]],[[0.10299756]],DG
216,[[16]],[[217]],[[14]],['low holistic'],['right'],['inverted'],['U0228.bmp'],['male'],[[2]],['female'],[[0]],[[0.06573726]],DG
217,[[16]],[[218]],[[16]],['high holistic'],['right'],['upright'],['U0335.bmp'],['female'],[[2]],['female'],[[1]],[[0.07300497]],DG
218,[[16]],[[219]],[[19]],['high holistic'],['left'],['inverted'],['U0361.bmp'],['female'],[[4]],['male'],[[0]],[[0.03538971]],DG
219,[[16]],[[220]],[[16]],['low holistic'],['left'],['upright'],['U0335.bmp'],['female'],[[8]],['female'],[[1]],[[0.0358011]],DG
220,[[16]],[[221]],[[4]],['high holistic'],['right'],['upright'],['U0061.bmp'],['female'],[[8]],['female'],[[1]],[[0.08212732]],DG
221,[[16]],[[222]],[[1]],['high holistic'],['fovea'],['upright'],['U0006.bmp'],['female'],[[0]],['female'],[[1]],[[0.0931688]],DG
222,[[16]],[[223]],[[1]],['high holistic'],['left'],['inverted'],['U0006.bmp'],['female'],[[6]],['male'],[[0]],[[0.35414216]],DG
223,[[16]],[[224]],[[5]],['high holistic'],['right'],['inverted'],['U0076.bmp'],['female'],[[2]],['male'],[[0]],[[0.01993008]],DG
224,[[16]],[[225]],[[18]],['low holistic'],['left'],['inverted'],['U0359.bmp'],['male'],[[2]],['male'],[[1]],[[0.14857051]],DG
225,[[16]],[[226]],[[15]],['low holistic'],['left'],['upright'],['U0312.bmp'],['male'],[[12]],['male'],[[1]],[[0.06100687]],DG
226,[[16]],[[227]],[[20]],['high holistic'],['right'],['upright'],['U0362.bmp'],['female'],[[2]],['female'],[[1]],[[0.19476213]],DG
227,[[16]],[[228]],[[1]],['high holistic'],['right'],['inverted'],['U0006.bmp'],['female'],[[12]],['female'],[[1]],[[0.06122506]],DG
228,[[16]],[[229]],[[10]],['low holistic'],['right'],['upright'],['U0159.bmp'],['female'],[[8]],['female'],[[1]],[[0.07377307]],DG
229,[[16]],[[230]],[[3]],['low holistic'],['left'],['upright'],['U0020.bmp'],['female'],[[6]],['female'],[[1]],[[0.09386954]],DG
230,[[16]],[[231]],[[14]],['high holistic'],['right'],['inverted'],['U0228.bmp'],['male'],[[6]],['female'],[[0]],[[0.15391148]],DG
231,[[16]],[[232]],[[2]],['low holistic'],['left'],['upright'],['U0014.bmp'],['male'],[[4]],['male'],[[1]],[[0.13252436]],DG
232,[[16]],[[233]],[[8]],['high holistic'],['right'],['upright'],['U0137.bmp'],['female'],[[10]],['male'],[[0]],[[0.04765202]],DG
233,[[16]],[[234]],[[7]],['high holistic'],['left'],['upright'],['U0107.bmp'],['female'],[[2]],['female'],[[1]],[[0.26976089]],DG
234,[[16]],[[235]],[[15]],['high holistic'],['right'],['upright'],['U0312.bmp'],['male'],[[6]],['male'],[[1]],[[0.16978964]],DG
235,[[16]],[[236]],[[20]],['high holistic'],['left'],['upright'],['U0362.bmp'],['female'],[[8]],['male'],[[0]],[[0.07417133]],DG
236,[[16]],[[237]],[[14]],['high holistic'],['left'],['upright'],['U0228.bmp'],['male'],[[4]],['male'],[[1]],[[0.12842449]],DG
237,[[16]],[[238]],[[4]],['high holistic'],['right'],['inverted'],['U0061.bmp'],['female'],[[2]],['male'],[[0]],[[0.21935788]],DG
238,[[16]],[[239]],[[9]],['low holistic'],['right'],['upright'],['U0155.bmp'],['male'],[[6]],['male'],[[1]],[[0.042405]],DG
239,[[16]],[[240]],[[9]],['high holistic'],['right'],['upright'],['U0155.bmp'],['female'],[[6]],['female'],[[1]],[[0.09713081]],DG
240,[[16]],[[241]],[[12]],['high holistic'],['left'],['inverted'],['U0178.bmp'],['male'],[[12]],['male'],[[1]],[[0.17303157]],DG
241,[[16]],[[242]],[[8]],['low holistic'],['fovea'],['upright'],['U0137.bmp'],['male'],[[0]],['male'],[[1]],[[0.08604869]],DG
242,[[16]],[[243]],[[12]],['high holistic'],['right'],['inverted'],['U0178.bmp'],['male'],[[6]],['female'],[[0]],[[0.00011382]],DG
243,[[16]],[[244]],[[15]],['high holistic'],['left'],['upright'],['U0312.bmp'],['male'],[[6]],['male'],[[1]],[[0.03380586]],DG
244,[[16]],[[245]],[[16]],['high holistic'],['right'],['inverted'],['U0335.bmp'],['female'],[[10]],['female'],[[1]],[[0.00725917]],DG
245,[[16]],[[246]],[[1]],['high holistic'],['left'],['upright'],['U0006.bmp'],['female'],[[6]],['female'],[[1]],[[0.05799552]],DG
246,[[16]],[[247]],[[16]],['high holistic'],['right'],['upright'],['U0335.bmp'],['female'],[[12]],['female'],[[1]],[[0.1657803]],DG
247,[[16]],[[248]],[[12]],['low holistic'],['right'],['upright'],['U0178.bmp'],['female'],[[10]],['female'],[[1]],[[0.02516926]],DG
248,[[16]],[[249]],[[7]],['high holistic'],['right'],['upright'],['U0107.bmp'],['female'],[[6]],['male'],[[0]],[[0.19857729]],DG
249,[[16]],[[250]],[[15]],['high holistic'],['right'],['inverted'],['U0312.bmp'],['male'],[[12]],['female'],[[0]],[[0.00010224]],DG
250,[[16]],[[251]],[[9]],['high holistic'],['left'],['upright'],['U0155.bmp'],['female'],[[6]],['male'],[[0]],[[0.00039001]],DG
251,[[16]],[[252]],[[12]],['low holistic'],['right'],['inverted'],['U0178.bmp'],['female'],[[12]],['female'],[[1]],[[0.08637188]],DG
252,[[16]],[[253]],[[3]],['low holistic'],['left'],['upright'],['U0020.bmp'],['female'],[[6]],['female'],[[1]],[[0.0040123]],DG
253,[[16]],[[254]],[[14]],['high holistic'],['fovea'],['upright'],['U0228.bmp'],['male'],[[0]],['male'],[[1]],[[0.05219918]],DG
254,[[16]],[[255]],[[8]],['high holistic'],['right'],['upright'],['U0137.bmp'],['female'],[[6]],['female'],[[1]],[[0.12222572]],DG
255,[[16]],[[256]],[[15]],['low holistic'],['right'],['inverted'],['U0312.bmp'],['male'],[[10]],['male'],[[1]],[[0.05236163]],DG
256,[[16]],[[257]],[[12]],['high holistic'],['right'],['upright'],['U0178.bmp'],['male'],[[2]],['male'],[[1]],[[0.01957295]],DG
257,[[16]],[[258]],[[10]],['low holistic'],['fovea'],['inverted'],['U0159.bmp'],['female'],[[0]],['female'],[[1]],[[0.13746925]],DG
258,[[16]],[[259]],[[10]],['low holistic'],['left'],['upright'],['U0159.bmp'],['female'],[[10]],['female'],[[1]],[[0.05388394]],DG
259,[[16]],[[260]],[[5]],['low holistic'],['right'],['inverted'],['U0076.bmp'],['male'],[[8]],['male'],[[1]],[[0.01188473]],DG
260,[[16]],[[261]],[[11]],['low holistic'],['right'],['upright'],['U0164.bmp'],['female'],[[6]],['female'],[[1]],[[0.13945669]],DG
261,[[16]],[[262]],[[17]],['high holistic'],['left'],['upright'],['U0346.bmp'],['male'],[[4]],['male'],[[1]],[[0.11024265]],DG
262,[[16]],[[263]],[[14]],['low holistic'],['left'],['upright'],['U0228.bmp'],['male'],[[12]],['male'],[[1]],[[0.05009792]],DG
263,[[16]],[[264]],[[10]],['high holistic'],['fovea'],['upright'],['U0159.bmp'],['male'],[[0]],['male'],[[1]],[[0.18309426]],DG
264,[[16]],[[265]],[[6]],['low holistic'],['fovea'],['inverted'],['U0106.bmp'],['male'],[[0]],['male'],[[1]],[[0.1516499]],DG
265,[[16]],[[266]],[[5]],['low holistic'],['right'],['inverted'],['U0076.bmp'],['male'],[[2]],['male'],[[1]],[[0.11392407]],DG
266,[[16]],[[267]],[[19]],['high holistic'],['right'],['upright'],['U0361.bmp'],['female'],[[10]],['male'],[[0]],[[0.06285875]],DG
267,[[16]],[[268]],[[3]],['high holistic'],['left'],['upright'],['U0020.bmp'],['male'],[[10]],['male'],[[1]],[[0.14055915]],DG
268,[[16]],[[269]],[[8]],['high holistic'],['left'],['inverted'],['U0137.bmp'],['female'],[[2]],['male'],[[0]],[[0.09546931]],DG
269,[[16]],[[270]],[[17]],['high holistic'],['right'],['inverted'],['U0346.bmp'],['male'],[[12]],['male'],[[1]],[[0.02526501]],DG
270,[[16]],[[271]],[[2]],['low holistic'],['right'],['upright'],['U0014.bmp'],['male'],[[10]],['male'],[[1]],[[0.10606568]],DG
271,[[16]],[[272]],[[12]],['high holistic'],['fovea'],['upright'],['U0178.bmp'],['male'],[[0]],['male'],[[1]],[[0.04439264]],DG
272,[[16]],[[273]],[[7]],['high holistic'],['fovea'],['inverted'],['U0107.bmp'],['female'],[[0]],['male'],[[0]],[[0.09978253]],DG
273,[[16]],[[274]],[[20]],['high holistic'],['right'],['inverted'],['U0362.bmp'],['female'],[[8]],['female'],[[1]],[[0.47175734]],DG
274,[[16]],[[275]],[[10]],['low holistic'],['right'],['inverted'],['U0159.bmp'],['female'],[[12]],['female'],[[1]],[[0.124689]],DG
275,[[16]],[[276]],[[15]],['high holistic'],['left'],['inverted'],['U0312.bmp'],['male'],[[6]],['female'],[[0]],[[0.34265075]],DG
276,[[16]],[[277]],[[9]],['low holistic'],['right'],['inverted'],['U0155.bmp'],['male'],[[6]],['female'],[[0]],[[0.17709873]],DG
277,[[16]],[[278]],[[4]],['low holistic'],['left'],['upright'],['U0061.bmp'],['female'],[[8]],['female'],[[1]],[[0.0335316]],DG
278,[[16]],[[279]],[[11]],['low holistic'],['left'],['inverted'],['U0164.bmp'],['female'],[[2]],['female'],[[1]],[[0.08033043]],DG
279,[[16]],[[280]],[[11]],['low holistic'],['left'],['upright'],['U0164.bmp'],['female'],[[2]],['female'],[[1]],[[0.08651969]],DG
280,[[16]],[[281]],[[15]],['high holistic'],['left'],['inverted'],['U0312.bmp'],['male'],[[6]],['female'],[[0]],[[0.12125525]],DG
281,[[16]],[[282]],[[11]],['low holistic'],['left'],['inverted'],['U0164.bmp'],['female'],[[10]],['female'],[[1]],[[0.07001077]],DG
282,[[16]],[[283]],[[1]],['low holistic'],['right'],['upright'],['U0006.bmp'],['female'],[[12]],['female'],[[1]],[[0.11535387]],DG
283,[[16]],[[284]],[[15]],['high holistic'],['right'],['inverted'],['U0312.bmp'],['male'],[[8]],['female'],[[0]],[[0.13417459]],DG
284,[[16]],[[285]],[[2]],['high holistic'],['right'],['upright'],['U0014.bmp'],['male'],[[8]],['male'],[[1]],[[0.07316852]],DG
285,[[16]],[[286]],[[12]],['low holistic'],['right'],['inverted'],['U0178.bmp'],['female'],[[10]],['female'],[[1]],[[0.14150849]],DG
286,[[16]],[[287]],[[2]],['low holistic'],['right'],['upright'],['U0014.bmp'],['male'],[[6]],['male'],[[1]],[[0.03258375]],DG
287,[[16]],[[288]],[[3]],['high holistic'],['fovea'],['inverted'],['U0020.bmp'],['male'],[[0]],['male'],[[1]],[[0.14995443]],DG
288,[[16]],[[289]],[[8]],['high holistic'],['right'],['upright'],['U0137.bmp'],['female'],[[2]],['female'],[[1]],[[0.20833921]],DG
289,[[16]],[[290]],[[3]],['high holistic'],['left'],['upright'],['U0020.bmp'],['male'],[[8]],['male'],[[1]],[[0.25650295]],DG
290,[[16]],[[291]],[[9]],['high holistic'],['right'],['upright'],['U0155.bmp'],['female'],[[6]],['female'],[[1]],[[0.22950978]],DG
291,[[16]],[[292]],[[4]],['low holistic'],['right'],['upright'],['U0061.bmp'],['female'],[[2]],['female'],[[1]],[[0.0283106]],DG
292,[[16]],[[293]],[[11]],['high holistic'],['left'],['inverted'],['U0164.bmp'],['female'],[[4]],['male'],[[0]],[[0.15463656]],DG
293,[[16]],[[294]],[[17]],['low holistic'],['fovea'],['upright'],['U0346.bmp'],['female'],[[0]],['female'],[[1]],[[0.19755207]],DG
294,[[16]],[[295]],[[7]],['high holistic'],['left'],['upright'],['U0107.bmp'],['female'],[[6]],['female'],[[1]],[[0.17272727]],DG
295,[[16]],[[296]],[[8]],['low holistic'],['right'],['inverted'],['U0137.bmp'],['male'],[[12]],['female'],[[0]],[[0.07751784]],DG
296,[[16]],[[297]],[[19]],['high holistic'],['left'],['upright'],['U0361.bmp'],['female'],[[10]],['female'],[[1]],[[0.05866815]],DG
297,[[16]],[[298]],[[5]],['high holistic'],['right'],['inverted'],['U0076.bmp'],['female'],[[2]],['female'],[[1]],[[0.03243395]],DG
298,[[16]],[[299]],[[18]],['high holistic'],['left'],['upright'],['U0359.bmp'],['male'],[[12]],['female'],[[0]],[[0.0799389]],DG
299,[[16]],[[300]],[[1]],['high holistic'],['left'],['inverted'],['U0006.bmp'],['female'],[[4]],['female'],[[1]],[[0.10908186]],DG
300,[[16]],[[301]],[[7]],['low holistic'],['right'],['upright'],['U0107.bmp'],['female'],[[10]],['female'],[[1]],[[0.11196166]],DG
301,[[16]],[[302]],[[13]],['low holistic'],['left'],['upright'],['U0181.bmp'],['male'],[[2]],['male'],[[1]],[[0.11703688]],DG
302,[[16]],[[303]],[[2]],['high holistic'],['left'],['upright'],['U0014.bmp'],['male'],[[10]],['male'],[[1]],[[0.20773872]],DG
303,[[16]],[[304]],[[18]],['high holistic'],['left'],['inverted'],['U0359.bmp'],['male'],[[8]],['female'],[[0]],[[0.3111655]],DG
304,[[16]],[[305]],[[19]],['low holistic'],['left'],['inverted'],['U0361.bmp'],['female'],[[12]],['female'],[[1]],[[0.18685669]],DG
305,[[16]],[[306]],[[5]],['low holistic'],['right'],['inverted'],['U0076.bmp'],['male'],[[10]],['male'],[[1]],[[0.10590851]],DG
306,[[16]],[[307]],[[3]],['high holistic'],['fovea'],['inverted'],['U0020.bmp'],['male'],[[0]],['male'],[[1]],[[0.35034583]],DG
307,[[16]],[[308]],[[9]],['low holistic'],['left'],['inverted'],['U0155.bmp'],['male'],[[8]],['female'],[[0]],[[0.18478035]],DG
308,[[16]],[[309]],[[8]],['high holistic'],['right'],['inverted'],['U0137.bmp'],['female'],[[8]],['male'],[[0]],[[0.20852031]],DG
309,[[16]],[[310]],[[1]],['high holistic'],['left'],['inverted'],['U0006.bmp'],['female'],[[8]],['male'],[[0]],[[0.19373883]],DG
310,[[16]],[[311]],[[16]],['high holistic'],['right'],['inverted'],['U0335.bmp'],['female'],[[12]],['male'],[[0]],[[0.18485506]],DG
311,[[16]],[[312]],[[8]],['high holistic'],['left'],['inverted'],['U0137.bmp'],['female'],[[6]],['male'],[[0]],[[0.15366358]],DG
312,[[16]],[[313]],[[14]],['high holistic'],['right'],['inverted'],['U0228.bmp'],['male'],[[6]],['female'],[[0]],[[0.09139152]],DG
313,[[16]],[[314]],[[15]],['high holistic'],['left'],['upright'],['U0312.bmp'],['male'],[[8]],['male'],[[1]],[[0.20021998]],DG
314,[[16]],[[315]],[[6]],['low holistic'],['right'],['upright'],['U0106.bmp'],['male'],[[4]],['male'],[[1]],[[0.24102834]],DG
315,[[16]],[[316]],[[18]],['high holistic'],['left'],['upright'],['U0359.bmp'],['male'],[[12]],['male'],[[1]],[[0.19188561]],DG
316,[[16]],[[317]],[[20]],['low holistic'],['right'],['inverted'],['U0362.bmp'],['male'],[[8]],['male'],[[1]],[[0.12562333]],DG
317,[[16]],[[318]],[[16]],['high holistic'],['right'],['upright'],['U0335.bmp'],['female'],[[10]],['female'],[[1]],[[0.10700585]],DG
318,[[16]],[[319]],[[1]],['low holistic'],['left'],['inverted'],['U0006.bmp'],['female'],[[10]],['female'],[[1]],[[0.10076785]],DG
319,[[16]],[[320]],[[15]],['low holistic'],['left'],['upright'],['U0312.bmp'],['male'],[[10]],['male'],[[1]],[[0.0820031]],DG
320,[[16]],[[321]],[[3]],['high holistic'],['right'],['upright'],['U0020.bmp'],['male'],[[2]],['male'],[[1]],[[0.08630078]],DG
321,[[16]],[[322]],[[20]],['high holistic'],['right'],['inverted'],['U0362.bmp'],['female'],[[6]],['male'],[[0]],[[0.08386147]],DG
322,[[16]],[[323]],[[16]],['high holistic'],['left'],['inverted'],['U0335.bmp'],['female'],[[10]],['male'],[[0]],[[0.31837788]],DG
323,[[16]],[[324]],[[20]],['low holistic'],['left'],['inverted'],['U0362.bmp'],['male'],[[6]],['male'],[[1]],[[0.07363203]],DG
324,[[16]],[[325]],[[6]],['low holistic'],['left'],['upright'],['U0106.bmp'],['male'],[[4]],['male'],[[1]],[[0.04715367]],DG
325,[[16]],[[326]],[[13]],['low holistic'],['left'],['upright'],['U0181.bmp'],['male'],[[2]],['male'],[[1]],[[0.1089583]],DG
326,[[16]],[[327]],[[15]],['low holistic'],['right'],['upright'],['U0312.bmp'],['male'],[[8]],['male'],[[1]],[[0.00016368]],DG
327,[[16]],[[328]],[[10]],['low holistic'],['left'],['inverted'],['U0159.bmp'],['female'],[[8]],['female'],[[1]],[[0.1295193]],DG
328,[[16]],[[329]],[[4]],['high holistic'],['right'],['upright'],['U0061.bmp'],['female'],[[10]],['female'],[[1]],[[0.07700744]],DG
329,[[16]],[[330]],[[3]],['low holistic'],['right'],['upright'],['U0020.bmp'],['female'],[[10]],['female'],[[1]],[[0.04868922]],DG
330,[[16]],[[331]],[[2]],['high holistic'],['left'],['upright'],['U0014.bmp'],['male'],[[2]],['male'],[[1]],[[0.08802198]],DG
331,[[16]],[[332]],[[8]],['high holistic'],['left'],['inverted'],['U0137.bmp'],['female'],[[12]],['female'],[[1]],[[0.05115652]],DG
332,[[16]],[[333]],[[19]],['low holistic'],['left'],['upright'],['U0361.bmp'],['female'],[[4]],['female'],[[1]],[[0.02621183]],DG
333,[[16]],[[334]],[[2]],['low holistic'],['left'],['inverted'],['U0014.bmp'],['male'],[[6]],['male'],[[1]],[[0.1450863]],DG
334,[[16]],[[335]],[[12]],['low holistic'],['right'],['inverted'],['U0178.bmp'],['female'],[[4]],['female'],[[1]],[[0.08290307]],DG
335,[[16]],[[336]],[[11]],['high holistic'],['right'],['inverted'],['U0164.bmp'],['female'],[[8]],['male'],[[0]],[[0.06373502]],DG
336,[[16]],[[337]],[[6]],['low holistic'],['left'],['inverted'],['U0106.bmp'],['male'],[[6]],['male'],[[1]],[[0.15021162]],DG
337,[[16]],[[338]],[[20]],['low holistic'],['right'],['upright'],['U0362.bmp'],['male'],[[2]],['male'],[[1]],[[0.08638424]],DG
338,[[16]],[[339]],[[11]],['low holistic'],['right'],['inverted'],['U0164.bmp'],['female'],[[8]],['female'],[[1]],[[0.13874438]],DG
339,[[16]],[[340]],[[17]],['low holistic'],['right'],['inverted'],['U0346.bmp'],['female'],[[10]],['female'],[[1]],[[0.16558077]],DG
340,[[16]],[[341]],[[17]],['high holistic'],['left'],['inverted'],['U0346.bmp'],['male'],[[12]],['female'],[[0]],[[0.16651425]],DG
341,[[16]],[[342]],[[20]],['high holistic'],['fovea'],['upright'],['U0362.bmp'],['female'],[[0]],['female'],[[1]],[[0.08714259]],DG
342,[[16]],[[343]],[[6]],['low holistic'],['right'],['upright'],['U0106.bmp'],['male'],[[8]],['male'],[[1]],[[0.02949276]],DG
343,[[16]],[[344]],[[11]],['low holistic'],['right'],['inverted'],['U0164.bmp'],['female'],[[10]],['female'],[[1]],[[0.11478155]],DG
344,[[16]],[[345]],[[20]],['low holistic'],['right'],['inverted'],['U0362.bmp'],['male'],[[12]],['male'],[[1]],[[0.04001794]],DG
345,[[16]],[[346]],[[16]],['high holistic'],['left'],['upright'],['U0335.bmp'],['female'],[[4]],['female'],[[1]],[[0.18095027]],DG
346,[[16]],[[347]],[[20]],['low holistic'],['right'],['inverted'],['U0362.bmp'],['male'],[[4]],['male'],[[1]],[[0.03027747]],DG
347,[[16]],[[348]],[[12]],['low holistic'],['left'],['upright'],['U0178.bmp'],['female'],[[10]],['female'],[[1]],[[0.1014313]],DG
348,[[16]],[[349]],[[2]],['high holistic'],['left'],['upright'],['U0014.bmp'],['male'],[[10]],['male'],[[1]],[[0.08115639]],DG
349,[[16]],[[350]],[[7]],['high holistic'],['right'],['upright'],['U0107.bmp'],['female'],[[10]],['male'],[[0]],[[0.07702851]],DG
350,[[16]],[[351]],[[1]],['high holistic'],['left'],['upright'],['U0006.bmp'],['female'],[[12]],['female'],[[1]],[[0.08249264]],DG
351,[[16]],[[352]],[[4]],['low holistic'],['fovea'],['upright'],['U0061.bmp'],['female'],[[0]],['female'],[[1]],[[0.07133538]],DG
352,[[16]],[[353]],[[14]],['low holistic'],['right'],['inverted'],['U0228.bmp'],['male'],[[12]],['male'],[[1]],[[0.05199784]],DG
353,[[16]],[[354]],[[16]],['high holistic'],['right'],['upright'],['U0335.bmp'],['female'],[[6]],['female'],[[1]],[[0.16324177]],DG
354,[[16]],[[355]],[[2]],['high holistic'],['left'],['inverted'],['U0014.bmp'],['male'],[[2]],['male'],[[1]],[[0.00018666]],DG
355,[[16]],[[356]],[[18]],['low holistic'],['right'],['inverted'],['U0359.bmp'],['male'],[[4]],['female'],[[0]],[[9.95313749e-05]],DG
356,[[16]],[[357]],[[14]],['low holistic'],['left'],['inverted'],['U0228.bmp'],['male'],[[10]],['male'],[[1]],[[0.06718779]],DG
357,[[16]],[[358]],[[18]],['low holistic'],['left'],['inverted'],['U0359.bmp'],['male'],[[12]],['male'],[[1]],[[2.77716494]],DG
358,[[16]],[[359]],[[10]],['high holistic'],['right'],['inverted'],['U0159.bmp'],['male'],[[2]],['female'],[[0]],[[0.14519613]],DG
359,[[16]],[[360]],[[16]],['high holistic'],['left'],['upright'],['U0335.bmp'],['female'],[[6]],['female'],[[1]],[[0.00048468]],DG
360,[[16]],[[361]],[[14]],['low holistic'],['right'],['upright'],['U0228.bmp'],['male'],[[8]],['male'],[[1]],[[0.00010797]],DG
361,[[16]],[[362]],[[5]],['low holistic'],['right'],['upright'],['U0076.bmp'],['male'],[[10]],['male'],[[1]],[[1.31654843]],DG
362,[[16]],[[363]],[[10]],['high holistic'],['right'],['inverted'],['U0159.bmp'],['male'],[[6]],['female'],[[0]],[[0.00038181]],DG
363,[[16]],[[364]],[[3]],['low holistic'],['right'],['upright'],['U0020.bmp'],['female'],[[10]],['female'],[[1]],[[0.00025646]],DG
364,[[16]],[[365]],[[4]],['low holistic'],['left'],['inverted'],['U0061.bmp'],['female'],[[6]],['female'],[[1]],[[0.10164193]],DG
365,[[16]],[[366]],[[6]],['low holistic'],['right'],['upright'],['U0106.bmp'],['male'],[[4]],['male'],[[1]],[[0.15441855]],DG
366,[[16]],[[367]],[[18]],['low holistic'],['right'],['inverted'],['U0359.bmp'],['male'],[[6]],['female'],[[0]],[[0.00010777]],DG
367,[[16]],[[368]],[[6]],['low holistic'],['right'],['upright'],['U0106.bmp'],['male'],[[6]],['female'],[[0]],[[0.01048168]],DG
368,[[16]],[[369]],[[20]],['low holistic'],['right'],['inverted'],['U0362.bmp'],['male'],[[8]],['male'],[[1]],[[0.17069432]],DG
369,[[16]],[[370]],[[13]],['low holistic'],['left'],['upright'],['U0181.bmp'],['male'],[[10]],['male'],[[1]],[[0.02757736]],DG
370,[[16]],[[371]],[[11]],['low holistic'],['fovea'],['inverted'],['U0164.bmp'],['female'],[[0]],['female'],[[1]],[[0.09036331]],DG
371,[[16]],[[372]],[[8]],['low holistic'],['left'],['upright'],['U0137.bmp'],['male'],[[10]],['male'],[[1]],[[0.00792487]],DG
372,[[16]],[[373]],[[3]],['high holistic'],['right'],['inverted'],['U0020.bmp'],['male'],[[6]],['male'],[[1]],[[0.0003909]],DG
373,[[16]],[[374]],[[1]],['high holistic'],['right'],['upright'],['U0006.bmp'],['female'],[[4]],['female'],[[1]],[[0.11099233]],DG
374,[[16]],[[375]],[[16]],['low holistic'],['left'],['inverted'],['U0335.bmp'],['female'],[[4]],['female'],[[1]],[[0.27376193]],DG
375,[[16]],[[376]],[[12]],['low holistic'],['right'],['inverted'],['U0178.bmp'],['female'],[[10]],['male'],[[0]],[[0.15964952]],DG
376,[[16]],[[377]],[[18]],['high holistic'],['right'],['upright'],['U0359.bmp'],['male'],[[2]],['male'],[[1]],[[0.0244642]],DG
377,[[16]],[[378]],[[9]],['high holistic'],['right'],['inverted'],['U0155.bmp'],['female'],[[2]],['male'],[[0]],[[0.02528589]],DG
378,[[16]],[[379]],[[11]],['low holistic'],['fovea'],['upright'],['U0164.bmp'],['female'],[[0]],['female'],[[1]],[[0.11802923]],DG
379,[[16]],[[380]],[[9]],['low holistic'],['right'],['upright'],['U0155.bmp'],['male'],[[6]],['male'],[[1]],[[0.00031015]],DG
380,[[16]],[[381]],[[5]],['high holistic'],['right'],['upright'],['U0076.bmp'],['female'],[[2]],['female'],[[1]],[[0.04978073]],DG
381,[[16]],[[382]],[[9]],['low holistic'],['right'],['inverted'],['U0155.bmp'],['male'],[[4]],['male'],[[1]],[[0.00767221]],DG
382,[[16]],[[383]],[[13]],['low holistic'],['right'],['inverted'],['U0181.bmp'],['male'],[[2]],['male'],[[1]],[[0.1183081]],DG
383,[[16]],[[384]],[[3]],['high holistic'],['left'],['upright'],['U0020.bmp'],['male'],[[12]],['male'],[[1]],[[0.00352978]],DG
384,[[16]],[[385]],[[9]],['high holistic'],['left'],['inverted'],['U0155.bmp'],['female'],[[8]],['male'],[[0]],[[0.00010556]],DG
385,[[16]],[[386]],[[10]],['high holistic'],['right'],['upright'],['U0159.bmp'],['male'],[[2]],['male'],[[1]],[[0.10627647]],DG
386,[[16]],[[387]],[[11]],['low holistic'],['left'],['inverted'],['U0164.bmp'],['female'],[[6]],['female'],[[1]],[[0.0136373]],DG
387,[[16]],[[388]],[[3]],['high holistic'],['left'],['upright'],['U0020.bmp'],['male'],[[2]],['male'],[[1]],[[0.05290321]],DG
388,[[16]],[[389]],[[17]],['low holistic'],['left'],['upright'],['U0346.bmp'],['female'],[[4]],['female'],[[1]],[[0.02763639]],DG
389,[[16]],[[390]],[[20]],['high holistic'],['right'],['upright'],['U0362.bmp'],['female'],[[6]],['female'],[[1]],[[0.12819376]],DG
390,[[16]],[[391]],[[5]],['high holistic'],['fovea'],['inverted'],['U0076.bmp'],['female'],[[0]],['female'],[[1]],[[0.48232451]],DG
391,[[16]],[[392]],[[13]],['low holistic'],['left'],['inverted'],['U0181.bmp'],['male'],[[8]],['male'],[[1]],[[0.07853226]],DG
392,[[16]],[[393]],[[8]],['high holistic'],['left'],['upright'],['U0137.bmp'],['female'],[[4]],['female'],[[1]],[[0.1616658]],DG
393,[[16]],[[394]],[[20]],['high holistic'],['left'],['inverted'],['U0362.bmp'],['female'],[[8]],['female'],[[1]],[[0.100606]],DG
394,[[16]],[[395]],[[9]],['low holistic'],['right'],['upright'],['U0155.bmp'],['male'],[[10]],['male'],[[1]],[[0.03272491]],DG
395,[[16]],[[396]],[[13]],['low holistic'],['left'],['upright'],['U0181.bmp'],['male'],[[12]],['male'],[[1]],[[0.01387108]],DG
396,[[16]],[[397]],[[11]],['low holistic'],['right'],['upright'],['U0164.bmp'],['female'],[[12]],['female'],[[1]],[[0.11157562]],DG
397,[[16]],[[398]],[[16]],['low holistic'],['left'],['inverted'],['U0335.bmp'],['female'],[[4]],['female'],[[1]],[[0.33781804]],DG
398,[[16]],[[399]],[[5]],['low holistic'],['left'],['upright'],['U0076.bmp'],['male'],[[4]],['male'],[[1]],[[0.19691474]],DG
399,[[16]],[[400]],[[2]],['high holistic'],['right'],['inverted'],['U0014.bmp'],['male'],[[2]],['male'],[[1]],[[1.17283219]],DG
400,[[16]],[[401]],[[19]],['low holistic'],['right'],['upright'],['U0361.bmp'],['female'],[[10]],['female'],[[1]],[[0.1470389]],DG
401,[[16]],[[402]],[[17]],['low holistic'],['right'],['inverted'],['U0346.bmp'],['female'],[[8]],['female'],[[1]],[[0.14183666]],DG
402,[[16]],[[403]],[[6]],['high holistic'],['left'],['upright'],['U0106.bmp'],['female'],[[12]],['female'],[[1]],[[0.12807301]],DG
403,[[16]],[[404]],[[9]],['high holistic'],['right'],['inverted'],['U0155.bmp'],['female'],[[10]],['male'],[[0]],[[0.11556631]],DG
404,[[16]],[[405]],[[9]],['low holistic'],['left'],['inverted'],['U0155.bmp'],['male'],[[10]],['female'],[[0]],[[0.16477014]],DG
405,[[16]],[[406]],[[9]],['high holistic'],['left'],['inverted'],['U0155.bmp'],['female'],[[12]],['male'],[[0]],[[0.10328212]],DG
406,[[16]],[[407]],[[1]],['low holistic'],['right'],['upright'],['U0006.bmp'],['female'],[[2]],['female'],[[1]],[[0.05028196]],DG
407,[[16]],[[408]],[[16]],['low holistic'],['right'],['upright'],['U0335.bmp'],['female'],[[12]],['female'],[[1]],[[0.03432507]],DG
408,[[16]],[[409]],[[11]],['high holistic'],['left'],['upright'],['U0164.bmp'],['female'],[[12]],['female'],[[1]],[[0.19172942]],DG
409,[[16]],[[410]],[[14]],['high holistic'],['left'],['inverted'],['U0228.bmp'],['male'],[[10]],['female'],[[0]],[[0.0001077]],DG
410,[[16]],[[411]],[[10]],['low holistic'],['left'],['upright'],['U0159.bmp'],['female'],[[2]],['female'],[[1]],[[0.12794441]],DG
411,[[16]],[[412]],[[1]],['low holistic'],['right'],['inverted'],['U0006.bmp'],['female'],[[10]],['female'],[[1]],[[0.08948034]],DG
412,[[16]],[[413]],[[3]],['high holistic'],['left'],['upright'],['U0020.bmp'],['male'],[[10]],['male'],[[1]],[[0.15861232]],DG
413,[[16]],[[414]],[[5]],['high holistic'],['left'],['upright'],['U0076.bmp'],['female'],[[8]],['female'],[[1]],[[0.24759722]],DG
414,[[16]],[[415]],[[18]],['low holistic'],['left'],['upright'],['U0359.bmp'],['male'],[[6]],['female'],[[0]],[[0.164381]],DG
415,[[16]],[[416]],[[7]],['high holistic'],['right'],['upright'],['U0107.bmp'],['female'],[[12]],['female'],[[1]],[[0.46963303]],DG
416,[[16]],[[417]],[[7]],['high holistic'],['left'],['inverted'],['U0107.bmp'],['female'],[[4]],['male'],[[0]],[[0.13071816]],DG
417,[[16]],[[418]],[[13]],['high holistic'],['right'],['inverted'],['U0181.bmp'],['female'],[[8]],['male'],[[0]],[[1.36567635]],DG
418,[[16]],[[419]],[[2]],['high holistic'],['right'],['inverted'],['U0014.bmp'],['male'],[[8]],['male'],[[1]],[[0.2634681]],DG
419,[[16]],[[420]],[[1]],['low holistic'],['left'],['upright'],['U0006.bmp'],['female'],[[6]],['female'],[[1]],[[0.32255636]],DG
420,[[16]],[[421]],[[14]],['high holistic'],['fovea'],['inverted'],['U0228.bmp'],['male'],[[0]],['female'],[[0]],[[0.1651682]],DG
421,[[16]],[[422]],[[18]],['low holistic'],['left'],['inverted'],['U0359.bmp'],['male'],[[10]],['female'],[[0]],[[0.19812382]],DG
422,[[16]],[[423]],[[11]],['high holistic'],['left'],['upright'],['U0164.bmp'],['female'],[[2]],['female'],[[1]],[[0.31016495]],DG
423,[[16]],[[424]],[[19]],['low holistic'],['right'],['upright'],['U0361.bmp'],['female'],[[2]],['female'],[[1]],[[1.94650193]],DG
424,[[16]],[[425]],[[8]],['high holistic'],['left'],['inverted'],['U0137.bmp'],['female'],[[6]],['female'],[[1]],[[0.46763749]],DG
425,[[16]],[[426]],[[15]],['low holistic'],['left'],['inverted'],['U0312.bmp'],['male'],[[10]],['male'],[[1]],[[0.33695362]],DG
426,[[16]],[[427]],[[16]],['high holistic'],['right'],['upright'],['U0335.bmp'],['female'],[[12]],['female'],[[1]],[[0.18720754]],DG
427,[[16]],[[428]],[[11]],['high holistic'],['right'],['upright'],['U0164.bmp'],['female'],[[10]],['female'],[[1]],[[2.39494908]],DG
428,[[16]],[[429]],[[18]],['low holistic'],['right'],['upright'],['U0359.bmp'],['male'],[[2]],['male'],[[1]],[[0.22066831]],DG
429,[[16]],[[430]],[[3]],['low holistic'],['right'],['inverted'],['U0020.bmp'],['female'],[[12]],['female'],[[1]],[[0.24204795]],DG
430,[[16]],[[431]],[[6]],['high holistic'],['left'],['upright'],['U0106.bmp'],['female'],[[12]],['male'],[[0]],[[0.35309379]],DG
431,[[16]],[[432]],[[8]],['low holistic'],['left'],['inverted'],['U0137.bmp'],['male'],[[4]],['male'],[[1]],[[0.25001965]],DG
432,[[16]],[[433]],[[20]],['low holistic'],['right'],['upright'],['U0362.bmp'],['male'],[[2]],['male'],[[1]],[[0.12827581]],DG
433,[[16]],[[434]],[[2]],['low holistic'],['right'],['inverted'],['U0014.bmp'],['male'],[[2]],['male'],[[1]],[[0.33900569]],DG
434,[[16]],[[435]],[[11]],['high holistic'],['right'],['inverted'],['U0164.bmp'],['female'],[[8]],['female'],[[1]],[[0.43616855]],DG
435,[[16]],[[436]],[[18]],['low holistic'],['right'],['upright'],['U0359.bmp'],['male'],[[4]],['male'],[[1]],[[0.25828365]],DG
436,[[16]],[[437]],[[6]],['low holistic'],['left'],['inverted'],['U0106.bmp'],['male'],[[12]],['male'],[[1]],[[0.35307255]],DG
437,[[16]],[[438]],[[13]],['high holistic'],['right'],['inverted'],['U0181.bmp'],['female'],[[8]],['female'],[[1]],[[0.48840922]],DG
438,[[16]],[[439]],[[3]],['low holistic'],['left'],['inverted'],['U0020.bmp'],['female'],[[6]],['female'],[[1]],[[0.64584161]],DG
439,[[16]],[[440]],[[4]],['high holistic'],['left'],['upright'],['U0061.bmp'],['female'],[[4]],['female'],[[1]],[[0.29851712]],DG
440,[[16]],[[441]],[[16]],['low holistic'],['left'],['upright'],['U0335.bmp'],['female'],[[2]],['female'],[[1]],[[0.31131545]],DG
441,[[16]],[[442]],[[18]],['low holistic'],['fovea'],['upright'],['U0359.bmp'],['male'],[[0]],['male'],[[1]],[[0.16955304]],DG
442,[[16]],[[443]],[[3]],['high holistic'],['left'],['inverted'],['U0020.bmp'],['male'],[[12]],['male'],[[1]],[[0.32257618]],DG
443,[[16]],[[444]],[[2]],['high holistic'],['left'],['upright'],['U0014.bmp'],['male'],[[6]],['male'],[[1]],[[0.27738854]],DG
444,[[16]],[[445]],[[2]],['low holistic'],['left'],['upright'],['U0014.bmp'],['male'],[[10]],['male'],[[1]],[[0.23505133]],DG
445,[[16]],[[446]],[[18]],['high holistic'],['left'],['inverted'],['U0359.bmp'],['male'],[[10]],['female'],[[0]],[[0.85036318]],DG
446,[[16]],[[447]],[[1]],['high holistic'],['right'],['upright'],['U0006.bmp'],['female'],[[2]],['female'],[[1]],[[0.37525829]],DG
447,[[16]],[[448]],[[2]],['low holistic'],['fovea'],['upright'],['U0014.bmp'],['male'],[[0]],['male'],[[1]],[[0.11238239]],DG
448,[[16]],[[449]],[[8]],['low holistic'],['right'],['inverted'],['U0137.bmp'],['male'],[[6]],['male'],[[1]],[[0.37929269]],DG
449,[[16]],[[450]],[[16]],['low holistic'],['right'],['upright'],['U0335.bmp'],['female'],[[10]],['female'],[[1]],[[0.22818772]],DG
450,[[16]],[[451]],[[1]],['low holistic'],['left'],['inverted'],['U0006.bmp'],['female'],[[8]],['female'],[[1]],[[0.35453791]],DG
451,[[16]],[[452]],[[6]],['high holistic'],['left'],['inverted'],['U0106.bmp'],['female'],[[12]],['male'],[[0]],[[0.13940568]],DG
452,[[16]],[[453]],[[2]],['low holistic'],['fovea'],['upright'],['U0014.bmp'],['male'],[[0]],['male'],[[1]],[[0.046021]],DG
453,[[16]],[[454]],[[3]],['low holistic'],['left'],['inverted'],['U0020.bmp'],['female'],[[6]],['female'],[[1]],[[0.14049279]],DG
454,[[16]],[[455]],[[17]],['high holistic'],['right'],['upright'],['U0346.bmp'],['male'],[[6]],['male'],[[1]],[[0.08698055]],DG
455,[[16]],[[456]],[[4]],['low holistic'],['left'],['inverted'],['U0061.bmp'],['female'],[[10]],['female'],[[1]],[[0.16202613]],DG
456,[[16]],[[457]],[[1]],['high holistic'],['left'],['upright'],['U0006.bmp'],['female'],[[6]],['male'],[[0]],[[0.05310407]],DG
457,[[16]],[[458]],[[6]],['low holistic'],['left'],['inverted'],['U0106.bmp'],['male'],[[10]],['male'],[[1]],[[0.10568095]],DG
458,[[16]],[[459]],[[19]],['high holistic'],['right'],['upright'],['U0361.bmp'],['female'],[[8]],['male'],[[0]],[[0.21915094]],DG
459,[[16]],[[460]],[[9]],['low holistic'],['right'],['upright'],['U0155.bmp'],['male'],[[2]],['male'],[[1]],[[9.93246213e-05]],DG
460,[[16]],[[461]],[[11]],['low holistic'],['right'],['inverted'],['U0164.bmp'],['female'],[[6]],['female'],[[1]],[[0.03489254]],DG
461,[[16]],[[462]],[[12]],['low holistic'],['left'],['inverted'],['U0178.bmp'],['female'],[[2]],['female'],[[1]],[[0.0741081]],DG
462,[[16]],[[463]],[[11]],['low holistic'],['left'],['inverted'],['U0164.bmp'],['female'],[[12]],['female'],[[1]],[[0.03822802]],DG
463,[[16]],[[464]],[[7]],['low holistic'],['left'],['inverted'],['U0107.bmp'],['female'],[[8]],['female'],[[1]],[[0.16403078]],DG
464,[[16]],[[465]],[[5]],['high holistic'],['left'],['inverted'],['U0076.bmp'],['female'],[[8]],['female'],[[1]],[[0.08253621]],DG
465,[[16]],[[466]],[[19]],['high holistic'],['right'],['upright'],['U0361.bmp'],['female'],[[4]],['male'],[[0]],[[0.05653868]],DG
466,[[16]],[[467]],[[20]],['high holistic'],['fovea'],['inverted'],['U0362.bmp'],['female'],[[0]],['female'],[[1]],[[0.07109939]],DG
467,[[16]],[[468]],[[10]],['low holistic'],['right'],['upright'],['U0159.bmp'],['female'],[[12]],['female'],[[1]],[[0.05986543]],DG
468,[[16]],[[469]],[[3]],['high holistic'],['left'],['inverted'],['U0020.bmp'],['male'],[[10]],['female'],[[0]],[[0.10600645]],DG
469,[[16]],[[470]],[[17]],['high holistic'],['right'],['upright'],['U0346.bmp'],['male'],[[10]],['male'],[[1]],[[0.14178456]],DG
470,[[16]],[[471]],[[15]],['high holistic'],['left'],['upright'],['U0312.bmp'],['male'],[[4]],['male'],[[1]],[[0.10311289]],DG
471,[[16]],[[472]],[[13]],['low holistic'],['left'],['inverted'],['U0181.bmp'],['male'],[[12]],['male'],[[1]],[[0.01799989]],DG
472,[[16]],[[473]],[[1]],['low holistic'],['right'],['upright'],['U0006.bmp'],['female'],[[2]],['female'],[[1]],[[0.10623138]],DG
473,[[16]],[[474]],[[13]],['high holistic'],['right'],['inverted'],['U0181.bmp'],['female'],[[4]],['female'],[[1]],[[0.190436]],DG
474,[[16]],[[475]],[[12]],['low holistic'],['left'],['inverted'],['U0178.bmp'],['female'],[[2]],['female'],[[1]],[[0.0212929]],DG
475,[[16]],[[476]],[[13]],['low holistic'],['right'],['inverted'],['U0181.bmp'],['male'],[[4]],['female'],[[0]],[[0.02055141]],DG
476,[[16]],[[477]],[[16]],['high holistic'],['right'],['upright'],['U0335.bmp'],['female'],[[8]],['female'],[[1]],[[0.13235077]],DG
477,[[16]],[[478]],[[3]],['high holistic'],['left'],['inverted'],['U0020.bmp'],['male'],[[8]],['male'],[[1]],[[0.04687697]],DG
478,[[16]],[[479]],[[20]],['low holistic'],['right'],['inverted'],['U0362.bmp'],['male'],[[2]],['male'],[[1]],[[0.06052647]],DG
479,[[16]],[[480]],[[10]],['high holistic'],['left'],['inverted'],['U0159.bmp'],['male'],[[6]],['male'],[[1]],[[0.12948602]],DG
480,[[16]],[[481]],[[14]],['low holistic'],['right'],['inverted'],['U0228.bmp'],['male'],[[4]],['female'],[[0]],[[0.00315987]],DG
481,[[16]],[[482]],[[20]],['high holistic'],['right'],['inverted'],['U0362.bmp'],['female'],[[6]],['female'],[[1]],[[0.37907675]],DG
482,[[16]],[[483]],[[7]],['high holistic'],['left'],['upright'],['U0107.bmp'],['female'],[[12]],['male'],[[0]],[[0.10858168]],DG
483,[[16]],[[484]],[[11]],['low holistic'],['left'],['inverted'],['U0164.bmp'],['female'],[[12]],['female'],[[1]],[[0.15030878]],DG
484,[[16]],[[485]],[[13]],['high holistic'],['right'],['upright'],['U0181.bmp'],['female'],[[2]],['female'],[[1]],[[0.25622177]],DG
485,[[16]],[[486]],[[9]],['high holistic'],['left'],['upright'],['U0155.bmp'],['female'],[[4]],['female'],[[1]],[[0.21386798]],DG
486,[[16]],[[487]],[[16]],['high holistic'],['right'],['inverted'],['U0335.bmp'],['female'],[[2]],['male'],[[0]],[[0.24530371]],DG
487,[[16]],[[488]],[[14]],['low holistic'],['right'],['upright'],['U0228.bmp'],['male'],[[4]],['male'],[[1]],[[0.12247153]],DG
488,[[16]],[[489]],[[15]],['high holistic'],['right'],['inverted'],['U0312.bmp'],['male'],[[4]],['female'],[[0]],[[0.22095521]],DG
489,[[16]],[[490]],[[11]],['low holistic'],['left'],['upright'],['U0164.bmp'],['female'],[[10]],['female'],[[1]],[[0.05970545]],DG
490,[[16]],[[491]],[[18]],['high holistic'],['right'],['inverted'],['U0359.bmp'],['male'],[[6]],['male'],[[1]],[[0.72816168]],DG
491,[[16]],[[492]],[[9]],['low holistic'],['right'],['upright'],['U0155.bmp'],['male'],[[8]],['male'],[[1]],[[0.06126846]],DG
492,[[16]],[[493]],[[20]],['high holistic'],['right'],['inverted'],['U0362.bmp'],['female'],[[12]],['female'],[[1]],[[0.08109143]],DG
493,[[16]],[[494]],[[12]],['low holistic'],['right'],['upright'],['U0178.bmp'],['female'],[[10]],['female'],[[1]],[[0.00043811]],DG
494,[[16]],[[495]],[[20]],['low holistic'],['right'],['inverted'],['U0362.bmp'],['male'],[[2]],['male'],[[1]],[[0.25234338]],DG
495,[[16]],[[496]],[[5]],['high holistic'],['right'],['inverted'],['U0076.bmp'],['female'],[[12]],['male'],[[0]],[[0.22571575]],DG
496,[[16]],[[497]],[[16]],['low holistic'],['right'],['upright'],['U0335.bmp'],['female'],[[10]],['female'],[[1]],[[0.0563557]],DG
497,[[16]],[[498]],[[6]],['low holistic'],['right'],['inverted'],['U0106.bmp'],['male'],[[10]],['male'],[[1]],[[0.15105691]],DG
498,[[16]],[[499]],[[14]],['high holistic'],['left'],['upright'],['U0228.bmp'],['male'],[[4]],['male'],[[1]],[[0.20066034]],DG
499,[[16]],[[500]],[[16]],['high holistic'],['left'],['upright'],['U0335.bmp'],['female'],[[8]],['female'],[[1]],[[0.19346377]],DG
500,[[16]],[[501]],[[6]],['high holistic'],['right'],['inverted'],['U0106.bmp'],['female'],[[12]],['male'],[[0]],[[0.32826434]],DG
501,[[16]],[[502]],[[16]],['low holistic'],['left'],['upright'],['U0335.bmp'],['female'],[[12]],['female'],[[1]],[[0.0001004]],DG
502,[[16]],[[503]],[[4]],['high holistic'],['left'],['inverted'],['U0061.bmp'],['female'],[[12]],['male'],[[0]],[[0.13738542]],DG
503,[[16]],[[504]],[[7]],['high holistic'],['right'],['inverted'],['U0107.bmp'],['female'],[[6]],['female'],[[1]],[[0.00012135]],DG
504,[[16]],[[505]],[[11]],['low holistic'],['left'],['upright'],['U0164.bmp'],['female'],[[10]],['female'],[[1]],[[0.00015568]],DG
505,[[16]],[[506]],[[1]],['high holistic'],['right'],['inverted'],['U0006.bmp'],['female'],[[2]],['male'],[[0]],[[0.00033858]],DG
506,[[16]],[[507]],[[7]],['low holistic'],['left'],['upright'],['U0107.bmp'],['female'],[[6]],['female'],[[1]],[[0.36437644]],DG
507,[[16]],[[508]],[[11]],['high holistic'],['left'],['inverted'],['U0164.bmp'],['female'],[[10]],['male'],[[0]],[[0.82963979]],DG
508,[[16]],[[509]],[[12]],['high holistic'],['right'],['upright'],['U0178.bmp'],['male'],[[2]],['male'],[[1]],[[0.09992917]],DG
509,[[16]],[[510]],[[11]],['low holistic'],['fovea'],['inverted'],['U0164.bmp'],['female'],[[0]],['female'],[[1]],[[0.11093788]],DG
510,[[16]],[[511]],[[9]],['low holistic'],['left'],['upright'],['U0155.bmp'],['male'],[[10]],['male'],[[1]],[[0.07246273]],DG
511,[[16]],[[512]],[[7]],['high holistic'],['left'],['upright'],['U0107.bmp'],['female'],[[10]],['male'],[[0]],[[0.07592473]],DG
512,[[16]],[[513]],[[3]],['high holistic'],['left'],['upright'],['U0020.bmp'],['male'],[[4]],['male'],[[1]],[[0.07275458]],DG
513,[[16]],[[514]],[[16]],['low holistic'],['right'],['inverted'],['U0335.bmp'],['female'],[[12]],['female'],[[1]],[[0.0049722]],DG
514,[[16]],[[515]],[[10]],['low holistic'],['right'],['inverted'],['U0159.bmp'],['female'],[[6]],['female'],[[1]],[[0.05399361]],DG
515,[[16]],[[516]],[[13]],['high holistic'],['left'],['inverted'],['U0181.bmp'],['female'],[[4]],['female'],[[1]],[[0.33864891]],DG
516,[[16]],[[517]],[[3]],['high holistic'],['left'],['inverted'],['U0020.bmp'],['male'],[[8]],['male'],[[1]],[[0.00010348]],DG
517,[[16]],[[518]],[[14]],['low holistic'],['left'],['upright'],['U0228.bmp'],['male'],[[6]],['male'],[[1]],[[0.00049265]],DG
518,[[16]],[[519]],[[11]],['low holistic'],['left'],['upright'],['U0164.bmp'],['female'],[[2]],['female'],[[1]],[[0.00529341]],DG
519,[[16]],[[520]],[[1]],['low holistic'],['left'],['inverted'],['U0006.bmp'],['female'],[[2]],['female'],[[1]],[[0.05930934]],DG
520,[[16]],[[521]],[[9]],['low holistic'],['fovea'],['inverted'],['U0155.bmp'],['male'],[[0]],['male'],[[1]],[[0.61458128]],DG
521,[[16]],[[522]],[[5]],['low holistic'],['left'],['upright'],['U0076.bmp'],['male'],[[6]],['male'],[[1]],[[0.03904761]],DG
522,[[16]],[[523]],[[17]],['high holistic'],['left'],['upright'],['U0346.bmp'],['male'],[[6]],['male'],[[1]],[[0.01178909]],DG
523,[[16]],[[524]],[[19]],['low holistic'],['right'],['upright'],['U0361.bmp'],['female'],[[2]],['male'],[[0]],[[0.24366522]],DG
524,[[16]],[[525]],[[16]],['low holistic'],['left'],['inverted'],['U0335.bmp'],['female'],[[4]],['female'],[[1]],[[0.21706706]],DG
525,[[16]],[[526]],[[13]],['low holistic'],['right'],['upright'],['U0181.bmp'],['male'],[[10]],['male'],[[1]],[[0.0479836]],DG
526,[[16]],[[527]],[[10]],['low holistic'],['right'],['upright'],['U0159.bmp'],['female'],[[2]],['female'],[[1]],[[0.04633228]],DG
527,[[16]],[[528]],[[7]],['high holistic'],['fovea'],['upright'],['U0107.bmp'],['female'],[[0]],['female'],[[1]],[[0.13139184]],DG
528,[[16]],[[529]],[[15]],['high holistic'],['left'],['upright'],['U0312.bmp'],['male'],[[2]],['male'],[[1]],[[0.04575799]],DG
529,[[16]],[[530]],[[4]],['low holistic'],['left'],['inverted'],['U0061.bmp'],['female'],[[6]],['female'],[[1]],[[0.10775471]],DG
530,[[16]],[[531]],[[4]],['high holistic'],['left'],['upright'],['U0061.bmp'],['female'],[[4]],['female'],[[1]],[[0.07895084]],DG
531,[[16]],[[532]],[[17]],['low holistic'],['fovea'],['inverted'],['U0346.bmp'],['female'],[[0]],['female'],[[1]],[[0.10784461]],DG
532,[[16]],[[533]],[[8]],['high holistic'],['right'],['inverted'],['U0137.bmp'],['female'],[[4]],['female'],[[1]],[[0.10321597]],DG
533,[[16]],[[534]],[[5]],['high holistic'],['right'],['inverted'],['U0076.bmp'],['female'],[[12]],['male'],[[0]],[[0.07589458]],DG
534,[[16]],[[535]],[[8]],['high holistic'],['left'],['upright'],['U0137.bmp'],['female'],[[4]],['female'],[[1]],[[0.06401765]],DG
535,[[16]],[[536]],[[4]],['high holistic'],['left'],['inverted'],['U0061.bmp'],['female'],[[8]],['male'],[[0]],[[0.18745361]],DG
536,[[16]],[[537]],[[5]],['low holistic'],['left'],['upright'],['U0076.bmp'],['male'],[[2]],['male'],[[1]],[[0.06939921]],DG
537,[[16]],[[538]],[[14]],['high holistic'],['left'],['inverted'],['U0228.bmp'],['male'],[[2]],['female'],[[0]],[[0.02567875]],DG
538,[[16]],[[539]],[[20]],['high holistic'],['right'],['inverted'],['U0362.bmp'],['female'],[[2]],['female'],[[1]],[[0.00010096]],DG
539,[[16]],[[540]],[[17]],['low holistic'],['fovea'],['inverted'],['U0346.bmp'],['female'],[[0]],['female'],[[1]],[[0.00031389]],DG
540,[[16]],[[541]],[[1]],['low holistic'],['left'],['upright'],['U0006.bmp'],['female'],[[2]],['female'],[[1]],[[0.000101]],DG
541,[[16]],[[542]],[[6]],['low holistic'],['right'],['inverted'],['U0106.bmp'],['male'],[[10]],['male'],[[1]],[[0.26359241]],DG
542,[[16]],[[543]],[[18]],['high holistic'],['left'],['inverted'],['U0359.bmp'],['male'],[[4]],['male'],[[1]],[[0.1814166]],DG
543,[[16]],[[544]],[[8]],['low holistic'],['left'],['upright'],['U0137.bmp'],['male'],[[12]],['male'],[[1]],[[1.16440419]],DG
544,[[16]],[[545]],[[12]],['high holistic'],['right'],['inverted'],['U0178.bmp'],['male'],[[10]],['male'],[[1]],[[0.56492243]],DG
545,[[16]],[[546]],[[14]],['high holistic'],['left'],['inverted'],['U0228.bmp'],['male'],[[4]],['male'],[[1]],[[0.19945447]],DG
546,[[16]],[[547]],[[12]],['low holistic'],['right'],['inverted'],['U0178.bmp'],['female'],[[6]],['male'],[[0]],[[0.29331834]],DG
547,[[16]],[[548]],[[1]],['high holistic'],['left'],['upright'],['U0006.bmp'],['female'],[[2]],['female'],[[1]],[[0.24268926]],DG
548,[[16]],[[549]],[[9]],['low holistic'],['left'],['upright'],['U0155.bmp'],['male'],[[6]],['male'],[[1]],[[0.12860514]],DG
549,[[16]],[[550]],[[12]],['high holistic'],['right'],['upright'],['U0178.bmp'],['male'],[[2]],['male'],[[1]],[[0.13065804]],DG
550,[[16]],[[551]],[[1]],['low holistic'],['right'],['inverted'],['U0006.bmp'],['female'],[[10]],['female'],[[1]],[[0.16445535]],DG
551,[[16]],[[552]],[[20]],['high holistic'],['right'],['upright'],['U0362.bmp'],['female'],[[6]],['female'],[[1]],[[0.19026752]],DG
552,[[16]],[[553]],[[9]],['high holistic'],['left'],['upright'],['U0155.bmp'],['female'],[[4]],['female'],[[1]],[[0.1737573]],DG
553,[[16]],[[554]],[[10]],['high holistic'],['right'],['upright'],['U0159.bmp'],['male'],[[4]],['male'],[[1]],[[0.06252735]],DG
554,[[16]],[[555]],[[1]],['low holistic'],['right'],['upright'],['U0006.bmp'],['female'],[[8]],['female'],[[1]],[[0.05923939]],DG
555,[[16]],[[556]],[[2]],['low holistic'],['right'],['upright'],['U0014.bmp'],['male'],[[4]],['male'],[[1]],[[0.00057358]],DG
556,[[16]],[[557]],[[1]],['low holistic'],['left'],['inverted'],['U0006.bmp'],['female'],[[4]],['female'],[[1]],[[0.00013031]],DG
557,[[16]],[[558]],[[11]],['high holistic'],['left'],['upright'],['U0164.bmp'],['female'],[[8]],['female'],[[1]],[[0.00014693]],DG
558,[[16]],[[559]],[[12]],['high holistic'],['left'],['inverted'],['U0178.bmp'],['male'],[[12]],['female'],[[0]],[[0.00025135]],DG
559,[[16]],[[560]],[[12]],['low holistic'],['right'],['inverted'],['U0178.bmp'],['female'],[[4]],['male'],[[0]],[[0.00030655]],DG
560,[[16]],[[561]],[[19]],['high holistic'],['right'],['inverted'],['U0361.bmp'],['female'],[[4]],['male'],[[0]],[[0.15161416]],DG
561,[[16]],[[562]],[[1]],['high holistic'],['right'],['upright'],['U0006.bmp'],['female'],[[6]],['female'],[[1]],[[0.21779178]],DG
562,[[16]],[[563]],[[8]],['high holistic'],['left'],['inverted'],['U0137.bmp'],['female'],[[8]],['male'],[[0]],[[0.13563812]],DG
563,[[16]],[[564]],[[2]],['high holistic'],['left'],['inverted'],['U0014.bmp'],['male'],[[2]],['female'],[[0]],[[0.11400193]],DG
564,[[16]],[[565]],[[15]],['high holistic'],['left'],['upright'],['U0312.bmp'],['male'],[[12]],['male'],[[1]],[[0.1908441]],DG
565,[[16]],[[566]],[[2]],['high holistic'],['left'],['upright'],['U0014.bmp'],['male'],[[8]],['male'],[[1]],[[0.15068747]],DG
566,[[16]],[[567]],[[9]],['high holistic'],['right'],['inverted'],['U0155.bmp'],['female'],[[6]],['male'],[[0]],[[0.26445311]],DG
567,[[16]],[[568]],[[4]],['low holistic'],['right'],['upright'],['U0061.bmp'],['female'],[[2]],['female'],[[1]],[[0.17111807]],DG
568,[[16]],[[569]],[[8]],['low holistic'],['left'],['inverted'],['U0137.bmp'],['male'],[[12]],['male'],[[1]],[[0.37090188]],DG
569,[[16]],[[570]],[[13]],['high holistic'],['right'],['inverted'],['U0181.bmp'],['female'],[[6]],['female'],[[1]],[[0.34164935]],DG
570,[[16]],[[571]],[[2]],['low holistic'],['right'],['upright'],['U0014.bmp'],['male'],[[10]],['male'],[[1]],[[0.04662316]],DG
571,[[16]],[[572]],[[20]],['high holistic'],['left'],['inverted'],['U0362.bmp'],['female'],[[10]],['female'],[[1]],[[0.44405085]],DG
572,[[16]],[[573]],[[4]],['low holistic'],['right'],['upright'],['U0061.bmp'],['female'],[[6]],['female'],[[1]],[[0.35439901]],DG
573,[[16]],[[574]],[[12]],['high holistic'],['fovea'],['inverted'],['U0178.bmp'],['male'],[[0]],['male'],[[1]],[[0.26753445]],DG
574,[[16]],[[575]],[[8]],['low holistic'],['right'],['inverted'],['U0137.bmp'],['male'],[[12]],['male'],[[1]],[[0.33553002]],DG
575,[[16]],[[576]],[[7]],['high holistic'],['right'],['inverted'],['U0107.bmp'],['female'],[[10]],['male'],[[0]],[[0.61863083]],DG
576,[[16]],[[577]],[[5]],['low holistic'],['left'],['upright'],['U0076.bmp'],['male'],[[10]],['male'],[[1]],[[0.11471287]],DG
577,[[16]],[[578]],[[15]],['high holistic'],['right'],['upright'],['U0312.bmp'],['male'],[[8]],['male'],[[1]],[[0.00038868]],DG
578,[[16]],[[579]],[[2]],['low holistic'],['right'],['inverted'],['U0014.bmp'],['male'],[[4]],['male'],[[1]],[[0.01117026]],DG
579,[[16]],[[580]],[[3]],['low holistic'],['right'],['upright'],['U0020.bmp'],['female'],[[10]],['male'],[[0]],[[0.00048262]],DG
580,[[16]],[[581]],[[6]],['high holistic'],['right'],['inverted'],['U0106.bmp'],['female'],[[12]],['male'],[[0]],[[0.17253479]],DG
581,[[16]],[[582]],[[20]],['low holistic'],['right'],['inverted'],['U0362.bmp'],['male'],[[12]],['male'],[[1]],[[0.24361109]],DG
582,[[16]],[[583]],[[10]],['low holistic'],['right'],['inverted'],['U0159.bmp'],['female'],[[2]],['female'],[[1]],[[0.14577974]],DG
583,[[16]],[[584]],[[4]],['high holistic'],['right'],['inverted'],['U0061.bmp'],['female'],[[12]],['female'],[[1]],[[0.1326294]],DG
584,[[16]],[[585]],[[7]],['low holistic'],['right'],['upright'],['U0107.bmp'],['female'],[[6]],['female'],[[1]],[[0.00017843]],DG
585,[[16]],[[586]],[[1]],['low holistic'],['right'],['inverted'],['U0006.bmp'],['female'],[[4]],['female'],[[1]],[[0.07802041]],DG
586,[[16]],[[587]],[[2]],['high holistic'],['right'],['upright'],['U0014.bmp'],['male'],[[12]],['male'],[[1]],[[0.17079329]],DG
587,[[16]],[[588]],[[18]],['high holistic'],['right'],['inverted'],['U0359.bmp'],['male'],[[10]],['male'],[[1]],[[0.07598504]],DG
588,[[16]],[[589]],[[4]],['high holistic'],['left'],['upright'],['U0061.bmp'],['female'],[[2]],['female'],[[1]],[[0.0870235]],DG
589,[[16]],[[590]],[[8]],['high holistic'],['right'],['upright'],['U0137.bmp'],['female'],[[12]],['male'],[[0]],[[0.00010187]],DG
590,[[16]],[[591]],[[3]],['low holistic'],['left'],['upright'],['U0020.bmp'],['female'],[[4]],['female'],[[1]],[[0.09191076]],DG
591,[[16]],[[592]],[[5]],['high holistic'],['right'],['upright'],['U0076.bmp'],['female'],[[12]],['male'],[[0]],[[0.05604177]],DG
592,[[16]],[[593]],[[20]],['high holistic'],['left'],['upright'],['U0362.bmp'],['female'],[[10]],['female'],[[1]],[[0.15664133]],DG
593,[[16]],[[594]],[[13]],['high holistic'],['left'],['inverted'],['U0181.bmp'],['female'],[[10]],['female'],[[1]],[[0.40593892]],DG
594,[[16]],[[595]],[[17]],['low holistic'],['left'],['inverted'],['U0346.bmp'],['female'],[[8]],['female'],[[1]],[[0.23036379]],DG
595,[[16]],[[596]],[[11]],['high holistic'],['left'],['inverted'],['U0164.bmp'],['female'],[[2]],['female'],[[1]],[[0.95759227]],DG
596,[[16]],[[597]],[[15]],['low holistic'],['left'],['inverted'],['U0312.bmp'],['male'],[[12]],['male'],[[1]],[[0.25200628]],DG
597,[[16]],[[598]],[[17]],['low holistic'],['right'],['inverted'],['U0346.bmp'],['female'],[[6]],['female'],[[1]],[[0.14712987]],DG
598,[[16]],[[599]],[[11]],['high holistic'],['left'],['inverted'],['U0164.bmp'],['female'],[[6]],['male'],[[0]],[[0.40548173]],DG
599,[[16]],[[600]],[[20]],['low holistic'],['left'],['inverted'],['U0362.bmp'],['male'],[[2]],['male'],[[1]],[[0.17935911]],DG
600,[[16]],[[601]],[[4]],['high holistic'],['left'],['inverted'],['U0061.bmp'],['female'],[[6]],['female'],[[1]],[[0.71224707]],DG
601,[[16]],[[602]],[[20]],['high holistic'],['fovea'],['inverted'],['U0362.bmp'],['female'],[[0]],['female'],[[1]],[[0.23213267]],DG
602,[[16]],[[603]],[[11]],['low holistic'],['left'],['inverted'],['U0164.bmp'],['female'],[[10]],['female'],[[1]],[[0.07890411]],DG
603,[[16]],[[604]],[[14]],['high holistic'],['right'],['upright'],['U0228.bmp'],['male'],[[2]],['male'],[[1]],[[0.20118782]],DG
604,[[16]],[[605]],[[19]],['high holistic'],['left'],['inverted'],['U0361.bmp'],['female'],[[10]],['male'],[[0]],[[0.33005881]],DG
605,[[16]],[[606]],[[16]],['high holistic'],['left'],['inverted'],['U0335.bmp'],['female'],[[2]],['male'],[[0]],[[0.13969886]],DG
606,[[16]],[[607]],[[15]],['low holistic'],['left'],['inverted'],['U0312.bmp'],['male'],[[8]],['male'],[[1]],[[0.09531166]],DG
607,[[16]],[[608]],[[10]],['high holistic'],['right'],['inverted'],['U0159.bmp'],['male'],[[6]],['male'],[[1]],[[0.08289741]],DG
608,[[16]],[[609]],[[7]],['high holistic'],['right'],['inverted'],['U0107.bmp'],['female'],[[4]],['male'],[[0]],[[0.2548879]],DG
609,[[16]],[[610]],[[10]],['low holistic'],['right'],['upright'],['U0159.bmp'],['female'],[[8]],['female'],[[1]],[[0.09998938]],DG
610,[[16]],[[611]],[[8]],['high holistic'],['right'],['inverted'],['U0137.bmp'],['female'],[[4]],['male'],[[0]],[[0.19964609]],DG
611,[[16]],[[612]],[[5]],['low holistic'],['left'],['upright'],['U0076.bmp'],['male'],[[6]],['male'],[[1]],[[0.22367015]],DG
612,[[16]],[[613]],[[9]],['high holistic'],['right'],['inverted'],['U0155.bmp'],['female'],[[10]],['female'],[[1]],[[0.19797299]],DG
613,[[16]],[[614]],[[8]],['low holistic'],['right'],['upright'],['U0137.bmp'],['male'],[[10]],['male'],[[1]],[[0.1976937]],DG
614,[[16]],[[615]],[[11]],['low holistic'],['right'],['upright'],['U0164.bmp'],['female'],[[6]],['female'],[[1]],[[0.0689794]],DG
615,[[16]],[[616]],[[18]],['low holistic'],['left'],['upright'],['U0359.bmp'],['male'],[[12]],['male'],[[1]],[[0.1215103]],DG
616,[[16]],[[617]],[[16]],['high holistic'],['left'],['inverted'],['U0335.bmp'],['female'],[[2]],['male'],[[0]],[[0.24455701]],DG
617,[[16]],[[618]],[[15]],['low holistic'],['left'],['inverted'],['U0312.bmp'],['male'],[[8]],['male'],[[1]],[[0.10725142]],DG
618,[[16]],[[619]],[[11]],['low holistic'],['left'],['inverted'],['U0164.bmp'],['female'],[[2]],['female'],[[1]],[[0.20696967]],DG
619,[[16]],[[620]],[[1]],['low holistic'],['left'],['upright'],['U0006.bmp'],['female'],[[2]],['female'],[[1]],[[0.07855794]],DG
620,[[16]],[[621]],[[11]],['low holistic'],['right'],['inverted'],['U0164.bmp'],['female'],[[8]],['female'],[[1]],[[0.11464252]],DG
621,[[16]],[[622]],[[15]],['high holistic'],['right'],['upright'],['U0312.bmp'],['male'],[[12]],['male'],[[1]],[[0.02916715]],DG
622,[[16]],[[623]],[[2]],['low holistic'],['left'],['upright'],['U0014.bmp'],['male'],[[6]],['male'],[[1]],[[0.0447394]],DG
623,[[16]],[[624]],[[4]],['low holistic'],['left'],['upright'],['U0061.bmp'],['female'],[[8]],['female'],[[1]],[[0.17139234]],DG
624,[[16]],[[625]],[[11]],['low holistic'],['right'],['inverted'],['U0164.bmp'],['female'],[[12]],['female'],[[1]],[[0.10574687]],DG
625,[[16]],[[626]],[[10]],['high holistic'],['right'],['upright'],['U0159.bmp'],['male'],[[8]],['male'],[[1]],[[0.14949358]],DG
626,[[16]],[[627]],[[11]],['high holistic'],['right'],['upright'],['U0164.bmp'],['female'],[[8]],['female'],[[1]],[[0.17654531]],DG
627,[[16]],[[628]],[[12]],['low holistic'],['left'],['upright'],['U0178.bmp'],['female'],[[4]],['female'],[[1]],[[0.10538962]],DG
628,[[16]],[[629]],[[16]],['low holistic'],['left'],['upright'],['U0335.bmp'],['female'],[[10]],['female'],[[1]],[[0.06037676]],DG
629,[[16]],[[630]],[[17]],['low holistic'],['right'],['upright'],['U0346.bmp'],['female'],[[2]],['female'],[[1]],[[0.00094946]],DG
630,[[16]],[[631]],[[2]],['low holistic'],['right'],['upright'],['U0014.bmp'],['male'],[[2]],['male'],[[1]],[[0.0587372]],DG
631,[[16]],[[632]],[[15]],['high holistic'],['left'],['upright'],['U0312.bmp'],['male'],[[6]],['male'],[[1]],[[0.11864439]],DG
632,[[16]],[[633]],[[20]],['high holistic'],['left'],['upright'],['U0362.bmp'],['female'],[[8]],['female'],[[1]],[[0.18486488]],DG
633,[[16]],[[634]],[[10]],['high holistic'],['right'],['inverted'],['U0159.bmp'],['male'],[[4]],['female'],[[0]],[[0.16185911]],DG
634,[[16]],[[635]],[[6]],['low holistic'],['left'],['upright'],['U0106.bmp'],['male'],[[2]],['male'],[[1]],[[0.20265418]],DG
635,[[16]],[[636]],[[4]],['low holistic'],['left'],['upright'],['U0061.bmp'],['female'],[[8]],['female'],[[1]],[[0.10638067]],DG
636,[[16]],[[637]],[[19]],['high holistic'],['left'],['upright'],['U0361.bmp'],['female'],[[6]],['male'],[[0]],[[0.15025808]],DG
637,[[16]],[[638]],[[1]],['low holistic'],['left'],['upright'],['U0006.bmp'],['female'],[[6]],['female'],[[1]],[[0.00038482]],DG
638,[[16]],[[639]],[[14]],['low holistic'],['right'],['inverted'],['U0228.bmp'],['male'],[[6]],['male'],[[1]],[[0.04687188]],DG
639,[[16]],[[640]],[[17]],['high holistic'],['right'],['upright'],['U0346.bmp'],['male'],[[8]],['male'],[[1]],[[0.00018246]],DG
640,[[16]],[[641]],[[7]],['high holistic'],['right'],['inverted'],['U0107.bmp'],['female'],[[10]],['male'],[[0]],[[0.11761452]],DG
641,[[16]],[[642]],[[1]],['high holistic'],['left'],['upright'],['U0006.bmp'],['female'],[[2]],['female'],[[1]],[[0.12014803]],DG
642,[[16]],[[643]],[[4]],['low holistic'],['fovea'],['upright'],['U0061.bmp'],['female'],[[0]],['female'],[[1]],[[0.04972379]],DG
643,[[16]],[[644]],[[3]],['high holistic'],['right'],['inverted'],['U0020.bmp'],['male'],[[4]],['male'],[[1]],[[0.1134901]],DG
644,[[16]],[[645]],[[7]],['high holistic'],['right'],['upright'],['U0107.bmp'],['female'],[[12]],['male'],[[0]],[[0.00013256]],DG
645,[[16]],[[646]],[[18]],['low holistic'],['fovea'],['inverted'],['U0359.bmp'],['male'],[[0]],['male'],[[1]],[[0.00010031]],DG
646,[[16]],[[647]],[[9]],['low holistic'],['right'],['upright'],['U0155.bmp'],['male'],[[12]],['male'],[[1]],[[0.16199837]],DG
647,[[16]],[[648]],[[8]],['low holistic'],['right'],['inverted'],['U0137.bmp'],['male'],[[8]],['male'],[[1]],[[0.00046967]],DG
648,[[16]],[[649]],[[16]],['high holistic'],['left'],['inverted'],['U0335.bmp'],['female'],[[10]],['male'],[[0]],[[0.000372]],DG
649,[[16]],[[650]],[[4]],['high holistic'],['left'],['inverted'],['U0061.bmp'],['female'],[[6]],['male'],[[0]],[[0.00035792]],DG
650,[[16]],[[651]],[[10]],['high holistic'],['left'],['inverted'],['U0159.bmp'],['male'],[[8]],['male'],[[1]],[[0.37823856]],DG
651,[[16]],[[652]],[[3]],['high holistic'],['right'],['upright'],['U0020.bmp'],['male'],[[4]],['male'],[[1]],[[0.21251407]],DG
652,[[16]],[[653]],[[12]],['low holistic'],['left'],['inverted'],['U0178.bmp'],['female'],[[6]],['female'],[[1]],[[0.06608212]],DG
653,[[16]],[[654]],[[8]],['high holistic'],['left'],['inverted'],['U0137.bmp'],['female'],[[12]],['male'],[[0]],[[1.09500202]],DG
654,[[16]],[[655]],[[11]],['low holistic'],['right'],['upright'],['U0164.bmp'],['female'],[[2]],['female'],[[1]],[[0.24444872]],DG
655,[[16]],[[656]],[[12]],['high holistic'],['left'],['inverted'],['U0178.bmp'],['male'],[[2]],['male'],[[1]],[[0.27442464]],DG
656,[[16]],[[657]],[[12]],['high holistic'],['left'],['upright'],['U0178.bmp'],['male'],[[12]],['male'],[[1]],[[0.07829621]],DG
657,[[16]],[[658]],[[1]],['low holistic'],['left'],['inverted'],['U0006.bmp'],['female'],[[10]],['female'],[[1]],[[0.12174519]],DG
658,[[16]],[[659]],[[18]],['low holistic'],['right'],['upright'],['U0359.bmp'],['male'],[[6]],['male'],[[1]],[[0.23751968]],DG
659,[[16]],[[660]],[[19]],['low holistic'],['left'],['upright'],['U0361.bmp'],['female'],[[6]],['female'],[[1]],[[0.00029119]],DG
660,[[16]],[[661]],[[5]],['low holistic'],['fovea'],['upright'],['U0076.bmp'],['male'],[[0]],['male'],[[1]],[[1.72290485]],DG
661,[[16]],[[662]],[[8]],['high holistic'],['left'],['inverted'],['U0137.bmp'],['female'],[[10]],['male'],[[0]],[[0.02161623]],DG
662,[[16]],[[663]],[[2]],['high holistic'],['right'],['inverted'],['U0014.bmp'],['male'],[[6]],['female'],[[0]],[[0.26856008]],DG
663,[[16]],[[664]],[[8]],['high holistic'],['left'],['upright'],['U0137.bmp'],['female'],[[10]],['female'],[[1]],[[0.16908743]],DG
664,[[16]],[[665]],[[18]],['low holistic'],['right'],['upright'],['U0359.bmp'],['male'],[[8]],['male'],[[1]],[[0.07490092]],DG
665,[[16]],[[666]],[[12]],['low holistic'],['left'],['upright'],['U0178.bmp'],['female'],[[10]],['female'],[[1]],[[0.11100659]],DG
666,[[16]],[[667]],[[13]],['low holistic'],['left'],['upright'],['U0181.bmp'],['male'],[[8]],['male'],[[1]],[[0.01942657]],DG
667,[[16]],[[668]],[[12]],['low holistic'],['right'],['upright'],['U0178.bmp'],['female'],[[12]],['male'],[[0]],[[9.99961048e-05]],DG
668,[[16]],[[669]],[[6]],['high holistic'],['right'],['upright'],['U0106.bmp'],['female'],[[10]],['male'],[[0]],[[0.12935543]],DG
669,[[16]],[[670]],[[3]],['high holistic'],['left'],['inverted'],['U0020.bmp'],['male'],[[12]],['male'],[[1]],[[4.2512863]],DG
670,[[16]],[[671]],[[1]],['high holistic'],['left'],['upright'],['U0006.bmp'],['female'],[[8]],['female'],[[1]],[[0.66582752]],DG
671,[[16]],[[672]],[[4]],['high holistic'],['left'],['upright'],['U0061.bmp'],['female'],[[6]],['female'],[[1]],[[0.1338445]],DG
672,[[16]],[[673]],[[7]],['low holistic'],['right'],['inverted'],['U0107.bmp'],['female'],[[4]],['female'],[[1]],[[0.12884999]],DG
673,[[16]],[[674]],[[5]],['high holistic'],['right'],['upright'],['U0076.bmp'],['female'],[[8]],['female'],[[1]],[[0.07484172]],DG
674,[[16]],[[675]],[[2]],['low holistic'],['left'],['upright'],['U0014.bmp'],['male'],[[6]],['male'],[[1]],[[0.12716281]],DG
675,[[16]],[[676]],[[4]],['low holistic'],['right'],['inverted'],['U0061.bmp'],['female'],[[4]],['female'],[[1]],[[0.06630932]],DG
676,[[16]],[[677]],[[6]],['high holistic'],['left'],['upright'],['U0106.bmp'],['female'],[[4]],['female'],[[1]],[[0.15109923]],DG
677,[[16]],[[678]],[[20]],['low holistic'],['left'],['inverted'],['U0362.bmp'],['male'],[[8]],['male'],[[1]],[[0.04916264]],DG
678,[[16]],[[679]],[[15]],['low holistic'],['right'],['inverted'],['U0312.bmp'],['male'],[[4]],['male'],[[1]],[[0.03874358]],DG
679,[[16]],[[680]],[[20]],['low holistic'],['left'],['upright'],['U0362.bmp'],['male'],[[8]],['male'],[[1]],[[9.96580347e-05]],DG
680,[[16]],[[681]],[[18]],['high holistic'],['left'],['upright'],['U0359.bmp'],['male'],[[6]],['male'],[[1]],[[0.17932251]],DG
681,[[16]],[[682]],[[1]],['low holistic'],['left'],['upright'],['U0006.bmp'],['female'],[[10]],['female'],[[1]],[[0.09170646]],DG
682,[[16]],[[683]],[[18]],['high holistic'],['right'],['inverted'],['U0359.bmp'],['male'],[[10]],['female'],[[0]],[[0.44182572]],DG
683,[[16]],[[684]],[[11]],['high holistic'],['left'],['upright'],['U0164.bmp'],['female'],[[12]],['female'],[[1]],[[0.29462094]],DG
684,[[16]],[[685]],[[10]],['low holistic'],['left'],['inverted'],['U0159.bmp'],['female'],[[12]],['female'],[[1]],[[0.15503806]],DG
685,[[16]],[[686]],[[1]],['high holistic'],['right'],['upright'],['U0006.bmp'],['female'],[[6]],['male'],[[0]],[[0.04322352]],DG
686,[[16]],[[687]],[[4]],['high holistic'],['right'],['inverted'],['U0061.bmp'],['female'],[[2]],['male'],[[0]],[[0.18653692]],DG
687,[[16]],[[688]],[[7]],['high holistic'],['right'],['inverted'],['U0107.bmp'],['female'],[[10]],['male'],[[0]],[[0.16239911]],DG
688,[[16]],[[689]],[[15]],['low holistic'],['fovea'],['inverted'],['U0312.bmp'],['male'],[[0]],['male'],[[1]],[[0.00037623]],DG
689,[[16]],[[690]],[[18]],['high holistic'],['right'],['upright'],['U0359.bmp'],['male'],[[8]],['female'],[[0]],[[0.37752544]],DG
690,[[16]],[[691]],[[13]],['high holistic'],['right'],['upright'],['U0181.bmp'],['female'],[[10]],['female'],[[1]],[[0.05837158]],DG
691,[[16]],[[692]],[[5]],['high holistic'],['left'],['inverted'],['U0076.bmp'],['female'],[[2]],['male'],[[0]],[[0.37591031]],DG
692,[[16]],[[693]],[[12]],['low holistic'],['left'],['inverted'],['U0178.bmp'],['female'],[[2]],['female'],[[1]],[[0.05651545]],DG
693,[[16]],[[694]],[[6]],['low holistic'],['right'],['upright'],['U0106.bmp'],['male'],[[10]],['male'],[[1]],[[0.27790619]],DG
694,[[16]],[[695]],[[2]],['high holistic'],['right'],['inverted'],['U0014.bmp'],['male'],[[12]],['female'],[[0]],[[0.11515485]],DG
695,[[16]],[[696]],[[13]],['low holistic'],['left'],['upright'],['U0181.bmp'],['male'],[[10]],['male'],[[1]],[[0.11770096]],DG
696,[[16]],[[697]],[[8]],['high holistic'],['left'],['upright'],['U0137.bmp'],['female'],[[4]],['female'],[[1]],[[0.29581242]],DG
697,[[16]],[[698]],[[11]],['low holistic'],['right'],['upright'],['U0164.bmp'],['female'],[[2]],['female'],[[1]],[[1.06049666]],DG
698,[[16]],[[699]],[[10]],['low holistic'],['left'],['inverted'],['U0159.bmp'],['female'],[[8]],['female'],[[1]],[[0.10549005]],DG
699,[[16]],[[700]],[[18]],['high holistic'],['right'],['inverted'],['U0359.bmp'],['male'],[[10]],['female'],[[0]],[[0.21277624]],DG
700,[[16]],[[701]],[[12]],['high holistic'],['left'],['upright'],['U0178.bmp'],['male'],[[8]],['male'],[[1]],[[9.92724672e-05]],DG
701,[[16]],[[702]],[[3]],['high holistic'],['right'],['inverted'],['U0020.bmp'],['male'],[[2]],['male'],[[1]],[[0.35449791]],DG
702,[[16]],[[703]],[[18]],['high holistic'],['fovea'],['upright'],['U0359.bmp'],['male'],[[0]],['female'],[[0]],[[0.14782122]],DG
703,[[16]],[[704]],[[16]],['low holistic'],['right'],['upright'],['U0335.bmp'],['female'],[[12]],['female'],[[1]],[[0.04672942]],DG
704,[[16]],[[705]],[[7]],['high holistic'],['left'],['upright'],['U0107.bmp'],['female'],[[10]],['male'],[[0]],[[0.09125166]],DG
705,[[16]],[[706]],[[8]],['high holistic'],['left'],['inverted'],['U0137.bmp'],['female'],[[4]],['female'],[[1]],[[0.49571117]],DG
706,[[16]],[[707]],[[14]],['high holistic'],['right'],['upright'],['U0228.bmp'],['male'],[[4]],['male'],[[1]],[[0.02029099]],DG
707,[[16]],[[708]],[[3]],['low holistic'],['left'],['inverted'],['U0020.bmp'],['female'],[[4]],['female'],[[1]],[[0.49054038]],DG
708,[[16]],[[709]],[[1]],['high holistic'],['left'],['inverted'],['U0006.bmp'],['female'],[[6]],['female'],[[1]],[[0.56751551]],DG
709,[[16]],[[710]],[[9]],['high holistic'],['right'],['inverted'],['U0155.bmp'],['female'],[[12]],['female'],[[1]],[[0.23798301]],DG
710,[[16]],[[711]],[[18]],['high holistic'],['right'],['inverted'],['U0359.bmp'],['male'],[[12]],['female'],[[0]],[[0.02781544]],DG
711,[[16]],[[712]],[[16]],['high holistic'],['right'],['upright'],['U0335.bmp'],['female'],[[10]],['female'],[[1]],[[0.04169525]],DG
712,[[16]],[[713]],[[12]],['high holistic'],['left'],['inverted'],['U0178.bmp'],['male'],[[8]],['female'],[[0]],[[0.18521225]],DG
713,[[16]],[[714]],[[5]],['low holistic'],['left'],['upright'],['U0076.bmp'],['male'],[[2]],['female'],[[0]],[[0.16951501]],DG
714,[[16]],[[715]],[[17]],['low holistic'],['right'],['upright'],['U0346.bmp'],['female'],[[2]],['female'],[[1]],[[1.07382683]],DG
715,[[16]],[[716]],[[14]],['low holistic'],['left'],['inverted'],['U0228.bmp'],['male'],[[4]],['male'],[[1]],[[0.56686362]],DG
716,[[16]],[[717]],[[11]],['high holistic'],['fovea'],['upright'],['U0164.bmp'],['female'],[[0]],['female'],[[1]],[[0.22371493]],DG
717,[[16]],[[718]],[[11]],['high holistic'],['right'],['inverted'],['U0164.bmp'],['female'],[[10]],['female'],[[1]],[[0.20673817]],DG
718,[[16]],[[719]],[[19]],['high holistic'],['right'],['upright'],['U0361.bmp'],['female'],[[2]],['female'],[[1]],[[0.26298955]],DG
719,[[16]],[[720]],[[14]],['high holistic'],['right'],['inverted'],['U0228.bmp'],['male'],[[4]],['female'],[[0]],[[0.51495999]],DG
720,[[16]],[[721]],[[16]],['high holistic'],['fovea'],['inverted'],['U0335.bmp'],['female'],[[0]],['female'],[[1]],[[0.17301038]],DG
721,[[16]],[[722]],[[6]],['low holistic'],['left'],['upright'],['U0106.bmp'],['male'],[[2]],['male'],[[1]],[[0.33320788]],DG
722,[[16]],[[723]],[[20]],['low holistic'],['left'],['upright'],['U0362.bmp'],['male'],[[4]],['male'],[[1]],[[0.06483247]],DG
723,[[16]],[[724]],[[1]],['low holistic'],['right'],['upright'],['U0006.bmp'],['female'],[[12]],['female'],[[1]],[[0.14119122]],DG
724,[[16]],[[725]],[[12]],['low holistic'],['left'],['upright'],['U0178.bmp'],['female'],[[8]],['female'],[[1]],[[0.03193388]],DG
725,[[16]],[[726]],[[17]],['high holistic'],['left'],['inverted'],['U0346.bmp'],['male'],[[6]],['female'],[[0]],[[0.00571456]],DG
726,[[16]],[[727]],[[6]],['low holistic'],['left'],['inverted'],['U0106.bmp'],['male'],[[12]],['female'],[[0]],[[0.03729196]],DG
727,[[16]],[[728]],[[4]],['high holistic'],['right'],['upright'],['U0061.bmp'],['female'],[[6]],['female'],[[1]],[[0.02778005]],DG
728,[[16]],[[729]],[[16]],['low holistic'],['left'],['upright'],['U0335.bmp'],['female'],[[8]],['female'],[[1]],[[0.00100829]],DG
729,[[16]],[[730]],[[12]],['high holistic'],['left'],['upright'],['U0178.bmp'],['male'],[[12]],['male'],[[1]],[[0.4013792]],DG
730,[[16]],[[731]],[[14]],['low holistic'],['left'],['upright'],['U0228.bmp'],['male'],[[12]],['male'],[[1]],[[0.03331433]],DG
731,[[16]],[[732]],[[20]],['high holistic'],['right'],['upright'],['U0362.bmp'],['female'],[[8]],['female'],[[1]],[[0.11124053]],DG
732,[[16]],[[733]],[[13]],['high holistic'],['right'],['inverted'],['U0181.bmp'],['female'],[[12]],['female'],[[1]],[[1.63433153]],DG
733,[[16]],[[734]],[[17]],['low holistic'],['right'],['inverted'],['U0346.bmp'],['female'],[[8]],['female'],[[1]],[[0.37564925]],DG
734,[[16]],[[735]],[[6]],['high holistic'],['right'],['inverted'],['U0106.bmp'],['female'],[[8]],['female'],[[1]],[[0.23351809]],DG
735,[[16]],[[736]],[[14]],['high holistic'],['right'],['upright'],['U0228.bmp'],['male'],[[4]],['male'],[[1]],[[0.22977753]],DG
736,[[16]],[[737]],[[5]],['high holistic'],['right'],['upright'],['U0076.bmp'],['female'],[[10]],['female'],[[1]],[[0.35671074]],DG
737,[[16]],[[738]],[[19]],['low holistic'],['left'],['upright'],['U0361.bmp'],['female'],[[8]],['female'],[[1]],[[1.70864483]],DG
738,[[16]],[[739]],[[2]],['low holistic'],['right'],['inverted'],['U0014.bmp'],['male'],[[8]],['male'],[[1]],[[0.29566443]],DG
739,[[16]],[[740]],[[6]],['low holistic'],['left'],['upright'],['U0106.bmp'],['male'],[[2]],['male'],[[1]],[[0.56338651]],DG
740,[[16]],[[741]],[[6]],['high holistic'],['left'],['upright'],['U0106.bmp'],['female'],[[4]],['female'],[[1]],[[0.59023277]],DG
741,[[16]],[[742]],[[1]],['high holistic'],['right'],['upright'],['U0006.bmp'],['female'],[[12]],['female'],[[1]],[[0.29354494]],DG
742,[[16]],[[743]],[[9]],['low holistic'],['right'],['inverted'],['U0155.bmp'],['male'],[[10]],['female'],[[0]],[[0.73571898]],DG
743,[[16]],[[744]],[[4]],['high holistic'],['right'],['inverted'],['U0061.bmp'],['female'],[[2]],['male'],[[0]],[[0.34758571]],DG
744,[[16]],[[745]],[[16]],['low holistic'],['right'],['upright'],['U0335.bmp'],['female'],[[8]],['female'],[[1]],[[0.21117512]],DG
745,[[16]],[[746]],[[6]],['high holistic'],['right'],['upright'],['U0106.bmp'],['female'],[[4]],['female'],[[1]],[[0.30639975]],DG
746,[[16]],[[747]],[[2]],['low holistic'],['left'],['upright'],['U0014.bmp'],['male'],[[8]],['male'],[[1]],[[0.24596448]],DG
747,[[16]],[[748]],[[11]],['low holistic'],['fovea'],['upright'],['U0164.bmp'],['female'],[[0]],['female'],[[1]],[[0.13249828]],DG
748,[[16]],[[749]],[[12]],['high holistic'],['right'],['upright'],['U0178.bmp'],['male'],[[10]],['male'],[[1]],[[0.33435308]],DG
749,[[16]],[[750]],[[16]],['high holistic'],['left'],['upright'],['U0335.bmp'],['female'],[[2]],['female'],[[1]],[[0.18343089]],DG
750,[[16]],[[751]],[[9]],['high holistic'],['right'],['upright'],['U0155.bmp'],['female'],[[4]],['female'],[[1]],[[0.49630432]],DG
751,[[16]],[[752]],[[4]],['low holistic'],['left'],['inverted'],['U0061.bmp'],['female'],[[12]],['female'],[[1]],[[0.37271167]],DG
752,[[16]],[[753]],[[12]],['low holistic'],['fovea'],['upright'],['U0178.bmp'],['female'],[[0]],['female'],[[1]],[[0.05036354]],DG
753,[[16]],[[754]],[[10]],['high holistic'],['left'],['upright'],['U0159.bmp'],['male'],[[4]],['male'],[[1]],[[0.43953921]],DG
754,[[16]],[[755]],[[18]],['high holistic'],['right'],['inverted'],['U0359.bmp'],['male'],[[8]],['female'],[[0]],[[0.18151468]],DG
755,[[16]],[[756]],[[4]],['high holistic'],['left'],['upright'],['U0061.bmp'],['female'],[[2]],['female'],[[1]],[[0.07093843]],DG
756,[[16]],[[757]],[[1]],['low holistic'],['fovea'],['inverted'],['U0006.bmp'],['female'],[[0]],['female'],[[1]],[[0.01045892]],DG
757,[[16]],[[758]],[[17]],['high holistic'],['left'],['upright'],['U0346.bmp'],['male'],[[4]],['female'],[[0]],[[0.00287329]],DG
758,[[16]],[[759]],[[13]],['low holistic'],['left'],['upright'],['U0181.bmp'],['male'],[[10]],['male'],[[1]],[[0.04127841]],DG
759,[[16]],[[760]],[[8]],['high holistic'],['left'],['upright'],['U0137.bmp'],['female'],[[12]],['female'],[[1]],[[0.23962502]],DG
760,[[16]],[[761]],[[14]],['low holistic'],['left'],['upright'],['U0228.bmp'],['male'],[[10]],['male'],[[1]],[[0.0545251]],DG
761,[[16]],[[762]],[[8]],['low holistic'],['right'],['inverted'],['U0137.bmp'],['male'],[[4]],['male'],[[1]],[[0.21167237]],DG
762,[[16]],[[763]],[[10]],['high holistic'],['left'],['inverted'],['U0159.bmp'],['male'],[[10]],['male'],[[1]],[[0.09875771]],DG
763,[[16]],[[764]],[[10]],['high holistic'],['fovea'],['upright'],['U0159.bmp'],['male'],[[0]],['male'],[[1]],[[0.00014632]],DG
764,[[16]],[[765]],[[19]],['high holistic'],['left'],['upright'],['U0361.bmp'],['female'],[[10]],['male'],[[0]],[[0.02917057]],DG
765,[[16]],[[766]],[[20]],['high holistic'],['right'],['upright'],['U0362.bmp'],['female'],[[2]],['female'],[[1]],[[0.09967628]],DG
766,[[16]],[[767]],[[9]],['high holistic'],['right'],['upright'],['U0155.bmp'],['female'],[[10]],['female'],[[1]],[[0.15881505]],DG
767,[[16]],[[768]],[[3]],['high holistic'],['left'],['upright'],['U0020.bmp'],['male'],[[10]],['female'],[[0]],[[0.04021344]],DG
768,[[16]],[[769]],[[20]],['low holistic'],['left'],['inverted'],['U0362.bmp'],['male'],[[10]],['male'],[[1]],[[0.070578]],DG
769,[[16]],[[770]],[[7]],['low holistic'],['left'],['upright'],['U0107.bmp'],['female'],[[4]],['female'],[[1]],[[0.1546509]],DG
770,[[16]],[[771]],[[11]],['low holistic'],['fovea'],['inverted'],['U0164.bmp'],['female'],[[0]],['female'],[[1]],[[0.00010412]],DG
771,[[16]],[[772]],[[5]],['low holistic'],['left'],['inverted'],['U0076.bmp'],['male'],[[10]],['male'],[[1]],[[0.49293513]],DG
772,[[16]],[[773]],[[14]],['high holistic'],['right'],['inverted'],['U0228.bmp'],['male'],[[10]],['female'],[[0]],[[0.48806593]],DG
