,SUBID,TRIAL,MOONEYID,MOONEYCATEGORY,LOC,COND,MOONEY_NAME,MOONEY_GENDER,ECCENTRICITY,RESPONSE,ACCURACY,RT,SUBINIT
0,[[1]],[[1]],[[13]],['low holistic'],['left'],['inverted'],['U0181.bmp'],['male'],[],['male'],[[1]],[[0.16527888]],EW
1,[[1]],[[2]],[[14]],['low holistic'],['right'],['upright'],['U0228.bmp'],['male'],[],['male'],[[1]],[[0.00010783]],EW
2,[[1]],[[3]],[[5]],['low holistic'],['left'],['upright'],['U0076.bmp'],['male'],[],['male'],[[1]],[[0.0068025]],EW
3,[[1]],[[4]],[[8]],['high holistic'],['left'],['inverted'],['U0137.bmp'],['female'],[],['female'],[[1]],[[0.00010032]],EW
4,[[1]],[[5]],[[19]],['high holistic'],['right'],['upright'],['U0361.bmp'],['female'],[],['male'],[[0]],[[0.00011468]],EW
5,[[1]],[[6]],[[17]],['high holistic'],['right'],['upright'],['U0346.bmp'],['male'],[],['male'],[[1]],[[0.00010799]],EW
6,[[1]],[[7]],[[9]],['high holistic'],['right'],['upright'],['U0155.bmp'],['female'],[],['male'],[[0]],[[9.98741016e-05]],EW
7,[[1]],[[8]],[[12]],['low holistic'],['fovea'],['inverted'],['U0178.bmp'],['female'],[],['female'],[[1]],[[0.03271693]],EW
8,[[1]],[[9]],[[14]],['low holistic'],['left'],['inverted'],['U0228.bmp'],['male'],[],['female'],[[0]],[[0.00010571]],EW
9,[[1]],[[10]],[[4]],['high holistic'],['left'],['upright'],['U0061.bmp'],['female'],[],['female'],[[1]],[[9.84380022e-05]],EW
10,[[1]],[[11]],[[6]],['low holistic'],['left'],['inverted'],['U0106.bmp'],['male'],[],['female'],[[0]],[[9.89148393e-05]],EW
11,[[1]],[[12]],[[10]],['high holistic'],['left'],['upright'],['U0159.bmp'],['male'],[],['female'],[[0]],[[0.00010061]],EW
12,[[1]],[[13]],[[3]],['high holistic'],['right'],['inverted'],['U0020.bmp'],['male'],[],['female'],[[0]],[[3.79205914]],EW
13,[[1]],[[14]],[[8]],['high holistic'],['right'],['upright'],['U0137.bmp'],['female'],[],['female'],[[1]],[[0.0320684]],EW
14,[[1]],[[15]],[[2]],['low holistic'],['right'],['inverted'],['U0014.bmp'],['male'],[],['female'],[[0]],[[0.18407967]],EW
15,[[1]],[[16]],[[18]],['high holistic'],['left'],['inverted'],['U0359.bmp'],['male'],[],['female'],[[0]],[[0.11322862]],EW
16,[[1]],[[17]],[[10]],['low holistic'],['left'],['upright'],['U0159.bmp'],['female'],[],['female'],[[1]],[[0.02000509]],EW
17,[[1]],[[18]],[[20]],['high holistic'],['right'],['inverted'],['U0362.bmp'],['female'],[],['female'],[[1]],[[0.00012668]],EW
18,[[1]],[[19]],[[18]],['high holistic'],['left'],['inverted'],['U0359.bmp'],['male'],[],['male'],[[1]],[[0.00010043]],EW
19,[[1]],[[20]],[[1]],['high holistic'],['right'],['upright'],['U0006.bmp'],['female'],[],['male'],[[0]],[[9.87397507e-05]],EW
20,[[1]],[[21]],[[19]],['high holistic'],['right'],['upright'],['U0361.bmp'],['female'],[],['female'],[[1]],[[9.96217132e-05]],EW
21,[[1]],[[22]],[[9]],['low holistic'],['right'],['upright'],['U0155.bmp'],['male'],[],['male'],[[1]],[[0.01955704]],EW
22,[[1]],[[23]],[[9]],['low holistic'],['right'],['inverted'],['U0155.bmp'],['male'],[],['male'],[[1]],[[0.00010351]],EW
23,[[1]],[[24]],[[1]],['low holistic'],['left'],['upright'],['U0006.bmp'],['female'],[],['female'],[[1]],[[2.90090362]],EW
24,[[1]],[[25]],[[2]],['low holistic'],['left'],['inverted'],['U0014.bmp'],['male'],[],['female'],[[0]],[[0.14472823]],EW
25,[[1]],[[26]],[[4]],['low holistic'],['right'],['upright'],['U0061.bmp'],['female'],[],['male'],[[0]],[[0.0001046]],EW
26,[[1]],[[27]],[[15]],['low holistic'],['right'],['upright'],['U0312.bmp'],['male'],[],['male'],[[1]],[[0.00010618]],EW
27,[[1]],[[28]],[[15]],['low holistic'],['left'],['upright'],['U0312.bmp'],['male'],[],['male'],[[1]],[[2.50856256]],EW
28,[[1]],[[29]],[[4]],['high holistic'],['right'],['upright'],['U0061.bmp'],['female'],[],['female'],[[1]],[[9.91877168e-05]],EW
29,[[1]],[[30]],[[12]],['low holistic'],['left'],['upright'],['U0178.bmp'],['female'],[],['female'],[[1]],[[0.06407218]],EW
30,[[1]],[[31]],[[7]],['low holistic'],['left'],['inverted'],['U0107.bmp'],['female'],[],['female'],[[1]],[[0.0061791]],EW
31,[[1]],[[32]],[[11]],['high holistic'],['left'],['inverted'],['U0164.bmp'],['female'],[],['female'],[[1]],[[0.000105]],EW
32,[[1]],[[33]],[[17]],['high holistic'],['right'],['upright'],['U0346.bmp'],['male'],[],['male'],[[1]],[[0.03003864]],EW
33,[[1]],[[34]],[[20]],['low holistic'],['left'],['upright'],['U0362.bmp'],['male'],[],['male'],[[1]],[[0.06205313]],EW
34,[[1]],[[35]],[[10]],['low holistic'],['fovea'],['inverted'],['U0159.bmp'],['female'],[],['male'],[[0]],[[3.07549734]],EW
35,[[1]],[[36]],[[10]],['low holistic'],['right'],['upright'],['U0159.bmp'],['female'],[],['female'],[[1]],[[0.0001032]],EW
36,[[1]],[[37]],[[15]],['high holistic'],['left'],['upright'],['U0312.bmp'],['male'],[],['female'],[[0]],[[0.00010564]],EW
37,[[1]],[[38]],[[5]],['high holistic'],['right'],['inverted'],['U0076.bmp'],['female'],[],['male'],[[0]],[[0.0001046]],EW
38,[[1]],[[39]],[[18]],['high holistic'],['right'],['inverted'],['U0359.bmp'],['male'],[],['female'],[[0]],[[0.00010102]],EW
39,[[1]],[[40]],[[19]],['low holistic'],['right'],['inverted'],['U0361.bmp'],['female'],[],['male'],[[0]],[[0.081582]],EW
40,[[1]],[[41]],[[7]],['low holistic'],['right'],['inverted'],['U0107.bmp'],['female'],[],['male'],[[0]],[[0.00010555]],EW
41,[[1]],[[42]],[[15]],['high holistic'],['left'],['inverted'],['U0312.bmp'],['male'],[],['female'],[[0]],[[9.81902704e-05]],EW
42,[[1]],[[43]],[[13]],['high holistic'],['left'],['inverted'],['U0181.bmp'],['female'],[],['female'],[[1]],[[0.00011553]],EW
43,[[1]],[[44]],[[16]],['low holistic'],['right'],['inverted'],['U0335.bmp'],['female'],[],['female'],[[1]],[[2.87822011]],EW
44,[[1]],[[45]],[[20]],['low holistic'],['right'],['upright'],['U0362.bmp'],['male'],[],['male'],[[1]],[[0.07535665]],EW
45,[[1]],[[46]],[[8]],['high holistic'],['fovea'],['upright'],['U0137.bmp'],['female'],[],['female'],[[1]],[[1.91166466]],EW
46,[[1]],[[47]],[[5]],['high holistic'],['right'],['inverted'],['U0076.bmp'],['female'],[],['female'],[[1]],[[0.03459665]],EW
47,[[1]],[[48]],[[3]],['low holistic'],['right'],['upright'],['U0020.bmp'],['female'],[],['male'],[[0]],[[0.00044776]],EW
48,[[1]],[[49]],[[4]],['high holistic'],['left'],['inverted'],['U0061.bmp'],['female'],[],['female'],[[1]],[[9.93842259e-05]],EW
49,[[1]],[[50]],[[15]],['low holistic'],['left'],['inverted'],['U0312.bmp'],['male'],[],['female'],[[0]],[[9.89576802e-05]],EW
50,[[1]],[[51]],[[11]],['high holistic'],['right'],['upright'],['U0164.bmp'],['female'],[],['female'],[[1]],[[0.00010585]],EW
51,[[1]],[[52]],[[2]],['high holistic'],['fovea'],['upright'],['U0014.bmp'],['male'],[],['male'],[[1]],[[0.00030736]],EW
52,[[1]],[[53]],[[3]],['low holistic'],['fovea'],['inverted'],['U0020.bmp'],['female'],[],['male'],[[0]],[[4.85013575]],EW
53,[[1]],[[54]],[[10]],['high holistic'],['right'],['inverted'],['U0159.bmp'],['male'],[],['male'],[[1]],[[0.0001098]],EW
54,[[1]],[[55]],[[7]],['high holistic'],['left'],['upright'],['U0107.bmp'],['female'],[],['male'],[[0]],[[0.00056327]],EW
55,[[1]],[[56]],[[14]],['high holistic'],['right'],['inverted'],['U0228.bmp'],['male'],[],['male'],[[1]],[[0.03268883]],EW
56,[[1]],[[57]],[[12]],['high holistic'],['left'],['inverted'],['U0178.bmp'],['male'],[],['female'],[[0]],[[0.03139844]],EW
57,[[1]],[[58]],[[17]],['high holistic'],['left'],['upright'],['U0346.bmp'],['male'],[],['male'],[[1]],[[0.05481555]],EW
58,[[1]],[[59]],[[17]],['low holistic'],['right'],['upright'],['U0346.bmp'],['female'],[],['female'],[[1]],[[0.00011694]],EW
59,[[1]],[[60]],[[3]],['low holistic'],['right'],['upright'],['U0020.bmp'],['female'],[],['male'],[[0]],[[0.00010637]],EW
60,[[1]],[[61]],[[20]],['low holistic'],['left'],['upright'],['U0362.bmp'],['male'],[],['male'],[[1]],[[4.3702183]],EW
61,[[1]],[[62]],[[4]],['high holistic'],['left'],['inverted'],['U0061.bmp'],['female'],[],['female'],[[1]],[[9.79993492e-05]],EW
62,[[1]],[[63]],[[13]],['high holistic'],['right'],['inverted'],['U0181.bmp'],['female'],[],['female'],[[1]],[[0.0001055]],EW
63,[[1]],[[64]],[[2]],['low holistic'],['left'],['inverted'],['U0014.bmp'],['male'],[],['female'],[[0]],[[0.00010894]],EW
64,[[1]],[[65]],[[9]],['high holistic'],['fovea'],['inverted'],['U0155.bmp'],['female'],[],['female'],[[1]],[[9.97157767e-05]],EW
65,[[1]],[[66]],[[2]],['low holistic'],['right'],['upright'],['U0014.bmp'],['male'],[],['female'],[[0]],[[0.09175022]],EW
66,[[1]],[[67]],[[14]],['low holistic'],['right'],['upright'],['U0228.bmp'],['male'],[],['male'],[[1]],[[0.09594929]],EW
67,[[1]],[[68]],[[6]],['high holistic'],['left'],['inverted'],['U0106.bmp'],['female'],[],['male'],[[0]],[[0.15765387]],EW
68,[[1]],[[69]],[[3]],['low holistic'],['right'],['inverted'],['U0020.bmp'],['female'],[],['male'],[[0]],[[9.89353284e-05]],EW
69,[[1]],[[70]],[[1]],['low holistic'],['left'],['inverted'],['U0006.bmp'],['female'],[],['male'],[[0]],[[0.00010957]],EW
70,[[1]],[[71]],[[14]],['low holistic'],['left'],['inverted'],['U0228.bmp'],['male'],[],['female'],[[0]],[[0.00012733]],EW
71,[[1]],[[72]],[[17]],['low holistic'],['right'],['upright'],['U0346.bmp'],['female'],[],['female'],[[1]],[[0.00010652]],EW
72,[[1]],[[73]],[[20]],['low holistic'],['left'],['inverted'],['U0362.bmp'],['male'],[],['male'],[[1]],[[13.11029681]],EW
73,[[1]],[[74]],[[4]],['high holistic'],['left'],['upright'],['U0061.bmp'],['female'],[],['female'],[[1]],[[0.02531676]],EW
74,[[1]],[[75]],[[17]],['high holistic'],['right'],['inverted'],['U0346.bmp'],['male'],[],['male'],[[1]],[[0.00028081]],EW
75,[[1]],[[76]],[[14]],['high holistic'],['left'],['upright'],['U0228.bmp'],['male'],[],['male'],[[1]],[[0.0001695]],EW
76,[[1]],[[77]],[[19]],['low holistic'],['left'],['inverted'],['U0361.bmp'],['female'],[],['male'],[[0]],[[0.00010597]],EW
77,[[1]],[[78]],[[19]],['low holistic'],['left'],['upright'],['U0361.bmp'],['female'],[],['female'],[[1]],[[1.86603645]],EW
78,[[1]],[[79]],[[11]],['high holistic'],['left'],['upright'],['U0164.bmp'],['female'],[],['female'],[[1]],[[2.26350973]],EW
79,[[1]],[[80]],[[8]],['high holistic'],['right'],['inverted'],['U0137.bmp'],['female'],[],['male'],[[0]],[[9.86140221e-05]],EW
80,[[1]],[[81]],[[14]],['low holistic'],['left'],['upright'],['U0228.bmp'],['male'],[],['male'],[[1]],[[0.00059683]],EW
81,[[1]],[[82]],[[17]],['low holistic'],['right'],['upright'],['U0346.bmp'],['female'],[],['female'],[[1]],[[0.00011352]],EW
82,[[1]],[[83]],[[2]],['high holistic'],['left'],['inverted'],['U0014.bmp'],['male'],[],['male'],[[1]],[[0.0001078]],EW
83,[[1]],[[84]],[[16]],['high holistic'],['left'],['upright'],['U0335.bmp'],['female'],[],['female'],[[1]],[[0.00011848]],EW
84,[[1]],[[85]],[[3]],['high holistic'],['left'],['inverted'],['U0020.bmp'],['male'],[],['female'],[[0]],[[0.01229691]],EW
85,[[1]],[[86]],[[9]],['high holistic'],['fovea'],['upright'],['U0155.bmp'],['female'],[],['female'],[[1]],[[0.00010744]],EW
86,[[1]],[[87]],[[9]],['low holistic'],['left'],['upright'],['U0155.bmp'],['male'],[],['male'],[[1]],[[9.86326486e-05]],EW
87,[[1]],[[88]],[[4]],['high holistic'],['left'],['inverted'],['U0061.bmp'],['female'],[],['female'],[[1]],[[2.96321812]],EW
88,[[1]],[[89]],[[3]],['low holistic'],['left'],['inverted'],['U0020.bmp'],['female'],[],['female'],[[1]],[[0.04535574]],EW
89,[[1]],[[90]],[[5]],['low holistic'],['right'],['upright'],['U0076.bmp'],['male'],[],['male'],[[1]],[[0.00010593]],EW
90,[[1]],[[91]],[[17]],['low holistic'],['left'],['upright'],['U0346.bmp'],['female'],[],['female'],[[1]],[[0.0001004]],EW
91,[[1]],[[92]],[[4]],['high holistic'],['right'],['upright'],['U0061.bmp'],['female'],[],['female'],[[1]],[[0.00020784]],EW
92,[[1]],[[93]],[[1]],['high holistic'],['right'],['inverted'],['U0006.bmp'],['female'],[],['female'],[[1]],[[0.00028458]],EW
93,[[1]],[[94]],[[10]],['high holistic'],['left'],['inverted'],['U0159.bmp'],['male'],[],['male'],[[1]],[[9.97884199e-05]],EW
94,[[1]],[[95]],[[2]],['low holistic'],['left'],['upright'],['U0014.bmp'],['male'],[],['female'],[[0]],[[0.0358882]],EW
95,[[1]],[[96]],[[13]],['high holistic'],['right'],['inverted'],['U0181.bmp'],['female'],[],['female'],[[1]],[[0.13815841]],EW
96,[[1]],[[97]],[[11]],['low holistic'],['right'],['inverted'],['U0164.bmp'],['female'],[],['female'],[[1]],[[0.00010473]],EW
97,[[1]],[[98]],[[1]],['high holistic'],['right'],['inverted'],['U0006.bmp'],['female'],[],['female'],[[1]],[[0.00033202]],EW
98,[[1]],[[99]],[[15]],['low holistic'],['right'],['upright'],['U0312.bmp'],['male'],[],['female'],[[0]],[[0.00482576]],EW
99,[[1]],[[100]],[[5]],['low holistic'],['left'],['upright'],['U0076.bmp'],['male'],[],['male'],[[1]],[[4.13236554]],EW
100,[[1]],[[101]],[[6]],['high holistic'],['right'],['upright'],['U0106.bmp'],['female'],[],['male'],[[0]],[[0.00010583]],EW
101,[[1]],[[102]],[[9]],['high holistic'],['left'],['upright'],['U0155.bmp'],['female'],[],['male'],[[0]],[[0.00023797]],EW
102,[[1]],[[103]],[[7]],['low holistic'],['right'],['upright'],['U0107.bmp'],['female'],[],['female'],[[1]],[[0.04870702]],EW
103,[[1]],[[104]],[[7]],['low holistic'],['right'],['inverted'],['U0107.bmp'],['female'],[],['female'],[[1]],[[0.00047221]],EW
104,[[1]],[[105]],[[19]],['high holistic'],['right'],['inverted'],['U0361.bmp'],['female'],[],['female'],[[1]],[[9.82582569e-05]],EW
105,[[1]],[[106]],[[3]],['low holistic'],['right'],['upright'],['U0020.bmp'],['female'],[],['male'],[[0]],[[9.73977149e-05]],EW
106,[[1]],[[107]],[[11]],['low holistic'],['left'],['inverted'],['U0164.bmp'],['female'],[],['female'],[[1]],[[0.09282982]],EW
107,[[1]],[[108]],[[5]],['low holistic'],['right'],['upright'],['U0076.bmp'],['male'],[],['female'],[[0]],[[0.0001901]],EW
108,[[1]],[[109]],[[18]],['high holistic'],['right'],['upright'],['U0359.bmp'],['male'],[],['female'],[[0]],[[0.00019917]],EW
109,[[1]],[[110]],[[3]],['high holistic'],['right'],['inverted'],['U0020.bmp'],['male'],[],['male'],[[1]],[[9.98871401e-05]],EW
110,[[1]],[[111]],[[5]],['low holistic'],['fovea'],['inverted'],['U0076.bmp'],['male'],[],['male'],[[1]],[[0.0001108]],EW
111,[[1]],[[112]],[[8]],['low holistic'],['left'],['inverted'],['U0137.bmp'],['male'],[],['female'],[[0]],[[0.0264393]],EW
112,[[1]],[[113]],[[4]],['low holistic'],['right'],['upright'],['U0061.bmp'],['female'],[],['female'],[[1]],[[0.00011134]],EW
113,[[1]],[[114]],[[15]],['high holistic'],['left'],['inverted'],['U0312.bmp'],['male'],[],['female'],[[0]],[[0.00010526]],EW
114,[[1]],[[115]],[[13]],['high holistic'],['right'],['upright'],['U0181.bmp'],['female'],[],['female'],[[1]],[[0.0001001]],EW
115,[[1]],[[116]],[[7]],['low holistic'],['right'],['upright'],['U0107.bmp'],['female'],[],['female'],[[1]],[[0.00010684]],EW
116,[[1]],[[117]],[[20]],['low holistic'],['right'],['inverted'],['U0362.bmp'],['male'],[],['female'],[[0]],[[0.00027355]],EW
117,[[1]],[[118]],[[7]],['high holistic'],['right'],['upright'],['U0107.bmp'],['female'],[],['male'],[[0]],[[0.00011112]],EW
118,[[1]],[[119]],[[7]],['low holistic'],['left'],['inverted'],['U0107.bmp'],['female'],[],['female'],[[1]],[[9.85525548e-05]],EW
119,[[1]],[[120]],[[14]],['high holistic'],['right'],['inverted'],['U0228.bmp'],['male'],[],['female'],[[0]],[[0.00011665]],EW
120,[[1]],[[121]],[[14]],['high holistic'],['right'],['upright'],['U0228.bmp'],['male'],[],['female'],[[0]],[[9.80272889e-05]],EW
121,[[1]],[[122]],[[13]],['low holistic'],['right'],['upright'],['U0181.bmp'],['male'],[],['male'],[[1]],[[0.00011467]],EW
122,[[1]],[[123]],[[9]],['high holistic'],['right'],['inverted'],['U0155.bmp'],['female'],[],['male'],[[0]],[[0.00018419]],EW
123,[[1]],[[124]],[[12]],['low holistic'],['right'],['inverted'],['U0178.bmp'],['female'],[],['female'],[[1]],[[9.95853916e-05]],EW
124,[[1]],[[125]],[[18]],['high holistic'],['left'],['inverted'],['U0359.bmp'],['male'],[],['male'],[[1]],[[0.09811909]],EW
125,[[1]],[[126]],[[12]],['low holistic'],['right'],['inverted'],['U0178.bmp'],['female'],[],['female'],[[1]],[[9.91094857e-05]],EW
126,[[1]],[[127]],[[11]],['high holistic'],['left'],['upright'],['U0164.bmp'],['female'],[],['female'],[[1]],[[9.78382304e-05]],EW
127,[[1]],[[128]],[[16]],['high holistic'],['left'],['upright'],['U0335.bmp'],['female'],[],['male'],[[0]],[[0.00011602]],EW
128,[[1]],[[129]],[[20]],['high holistic'],['right'],['inverted'],['U0362.bmp'],['female'],[],['female'],[[1]],[[0.00014435]],EW
129,[[1]],[[130]],[[7]],['low holistic'],['fovea'],['upright'],['U0107.bmp'],['female'],[],['male'],[[0]],[[12.5638698]],EW
130,[[1]],[[131]],[[19]],['high holistic'],['right'],['inverted'],['U0361.bmp'],['female'],[],['female'],[[1]],[[0.11384733]],EW
131,[[1]],[[132]],[[1]],['low holistic'],['left'],['upright'],['U0006.bmp'],['female'],[],['female'],[[1]],[[9.88654792e-05]],EW
132,[[1]],[[133]],[[12]],['low holistic'],['left'],['inverted'],['U0178.bmp'],['female'],[],['female'],[[1]],[[0.00010653]],EW
133,[[1]],[[134]],[[19]],['low holistic'],['right'],['inverted'],['U0361.bmp'],['female'],[],['male'],[[0]],[[9.97940078e-05]],EW
134,[[1]],[[135]],[[17]],['high holistic'],['right'],['inverted'],['U0346.bmp'],['male'],[],['male'],[[1]],[[0.00010579]],EW
135,[[1]],[[136]],[[1]],['low holistic'],['left'],['inverted'],['U0006.bmp'],['female'],[],['male'],[[0]],[[0.00029116]],EW
136,[[1]],[[137]],[[13]],['low holistic'],['right'],['inverted'],['U0181.bmp'],['male'],[],['female'],[[0]],[[3.46706025]],EW
137,[[1]],[[138]],[[11]],['high holistic'],['left'],['inverted'],['U0164.bmp'],['female'],[],['male'],[[0]],[[0.0416693]],EW
138,[[1]],[[139]],[[1]],['low holistic'],['right'],['inverted'],['U0006.bmp'],['female'],[],['male'],[[0]],[[0.00010572]],EW
139,[[1]],[[140]],[[12]],['low holistic'],['right'],['upright'],['U0178.bmp'],['female'],[],['female'],[[1]],[[2.369233]],EW
140,[[1]],[[141]],[[20]],['low holistic'],['left'],['upright'],['U0362.bmp'],['male'],[],['male'],[[1]],[[9.86130908e-05]],EW
141,[[1]],[[142]],[[5]],['low holistic'],['left'],['upright'],['U0076.bmp'],['male'],[],['male'],[[1]],[[0.00010596]],EW
142,[[1]],[[143]],[[19]],['low holistic'],['left'],['inverted'],['U0361.bmp'],['female'],[],['male'],[[0]],[[1.97701776]],EW
143,[[1]],[[144]],[[19]],['low holistic'],['right'],['inverted'],['U0361.bmp'],['female'],[],['male'],[[0]],[[0.00040971]],EW
144,[[1]],[[145]],[[12]],['high holistic'],['left'],['upright'],['U0178.bmp'],['male'],[],['male'],[[1]],[[1.49160959]],EW
145,[[1]],[[146]],[[7]],['low holistic'],['right'],['upright'],['U0107.bmp'],['female'],[],['female'],[[1]],[[9.86354426e-05]],EW
146,[[1]],[[147]],[[10]],['high holistic'],['right'],['upright'],['U0159.bmp'],['male'],[],['male'],[[1]],[[9.9344179e-05]],EW
147,[[1]],[[148]],[[11]],['high holistic'],['left'],['upright'],['U0164.bmp'],['female'],[],['male'],[[0]],[[0.00010597]],EW
148,[[1]],[[149]],[[7]],['low holistic'],['left'],['inverted'],['U0107.bmp'],['female'],[],['female'],[[1]],[[0.00010405]],EW
149,[[1]],[[150]],[[1]],['low holistic'],['right'],['inverted'],['U0006.bmp'],['female'],[],['female'],[[1]],[[0.00019949]],EW
150,[[1]],[[151]],[[20]],['high holistic'],['right'],['inverted'],['U0362.bmp'],['female'],[],['male'],[[0]],[[9.82144848e-05]],EW
151,[[1]],[[152]],[[14]],['low holistic'],['right'],['upright'],['U0228.bmp'],['male'],[],['male'],[[1]],[[1.44687501]],EW
152,[[1]],[[153]],[[19]],['high holistic'],['left'],['upright'],['U0361.bmp'],['female'],[],['male'],[[0]],[[3.9650111]],EW
153,[[1]],[[154]],[[7]],['high holistic'],['left'],['upright'],['U0107.bmp'],['female'],[],['female'],[[1]],[[1.77381041]],EW
154,[[1]],[[155]],[[16]],['low holistic'],['fovea'],['upright'],['U0335.bmp'],['female'],[],['female'],[[1]],[[0.00010021]],EW
155,[[1]],[[156]],[[17]],['high holistic'],['right'],['upright'],['U0346.bmp'],['male'],[],['male'],[[1]],[[0.00010609]],EW
156,[[1]],[[157]],[[12]],['low holistic'],['right'],['inverted'],['U0178.bmp'],['female'],[],['female'],[[1]],[[0.00037951]],EW
157,[[1]],[[158]],[[16]],['high holistic'],['left'],['upright'],['U0335.bmp'],['female'],[],['male'],[[0]],[[0.00011804]],EW
158,[[1]],[[159]],[[17]],['low holistic'],['left'],['upright'],['U0346.bmp'],['female'],[],['male'],[[0]],[[0.00010544]],EW
159,[[1]],[[160]],[[4]],['low holistic'],['right'],['upright'],['U0061.bmp'],['female'],[],['female'],[[1]],[[0.00034764]],EW
160,[[1]],[[161]],[[5]],['low holistic'],['left'],['upright'],['U0076.bmp'],['male'],[],['female'],[[0]],[[5.85530078]],EW
161,[[1]],[[162]],[[9]],['high holistic'],['right'],['upright'],['U0155.bmp'],['female'],[],['male'],[[0]],[[0.02899844]],EW
162,[[1]],[[163]],[[20]],['low holistic'],['left'],['upright'],['U0362.bmp'],['male'],[],['male'],[[1]],[[0.07548171]],EW
163,[[1]],[[164]],[[18]],['high holistic'],['right'],['upright'],['U0359.bmp'],['male'],[],['female'],[[0]],[[1.83150691]],EW
164,[[1]],[[165]],[[14]],['low holistic'],['left'],['inverted'],['U0228.bmp'],['male'],[],['male'],[[1]],[[2.92525411]],EW
165,[[1]],[[166]],[[10]],['low holistic'],['fovea'],['upright'],['U0159.bmp'],['female'],[],['female'],[[1]],[[1.80260801]],EW
166,[[1]],[[167]],[[20]],['high holistic'],['fovea'],['inverted'],['U0362.bmp'],['female'],[],['female'],[[1]],[[0.06481546]],EW
167,[[1]],[[168]],[[17]],['low holistic'],['fovea'],['upright'],['U0346.bmp'],['female'],[],['female'],[[1]],[[1.67100462]],EW
168,[[1]],[[169]],[[15]],['low holistic'],['left'],['inverted'],['U0312.bmp'],['male'],[],['female'],[[0]],[[2.49969529]],EW
169,[[1]],[[170]],[[16]],['high holistic'],['right'],['upright'],['U0335.bmp'],['female'],[],['female'],[[1]],[[0.07028556]],EW
170,[[1]],[[171]],[[6]],['low holistic'],['right'],['inverted'],['U0106.bmp'],['male'],[],['female'],[[0]],[[1.50050097]],EW
171,[[1]],[[172]],[[12]],['high holistic'],['left'],['upright'],['U0178.bmp'],['male'],[],['male'],[[1]],[[1.70551856]],EW
172,[[1]],[[173]],[[8]],['high holistic'],['right'],['inverted'],['U0137.bmp'],['female'],[],['female'],[[1]],[[0.00010607]],EW
173,[[1]],[[174]],[[2]],['low holistic'],['right'],['inverted'],['U0014.bmp'],['male'],[],['female'],[[0]],[[3.69301387]],EW
174,[[1]],[[175]],[[7]],['low holistic'],['right'],['inverted'],['U0107.bmp'],['female'],[],['male'],[[0]],[[0.17700631]],EW
175,[[1]],[[176]],[[1]],['low holistic'],['left'],['upright'],['U0006.bmp'],['female'],[],['female'],[[1]],[[0.00010032]],EW
176,[[1]],[[177]],[[5]],['low holistic'],['left'],['upright'],['U0076.bmp'],['male'],[],['female'],[[0]],[[3.28827705]],EW
177,[[1]],[[178]],[[7]],['low holistic'],['right'],['upright'],['U0107.bmp'],['female'],[],['male'],[[0]],[[9.84771177e-05]],EW
178,[[1]],[[179]],[[8]],['low holistic'],['right'],['upright'],['U0137.bmp'],['male'],[],['male'],[[1]],[[0.01419787]],EW
179,[[1]],[[180]],[[1]],['high holistic'],['left'],['inverted'],['U0006.bmp'],['female'],[],['female'],[[1]],[[4.27549821]],EW
180,[[1]],[[181]],[[10]],['low holistic'],['right'],['upright'],['U0159.bmp'],['female'],[],['female'],[[1]],[[1.90569633]],EW
181,[[1]],[[182]],[[16]],['high holistic'],['right'],['upright'],['U0335.bmp'],['female'],[],['female'],[[1]],[[0.00010654]],EW
182,[[1]],[[183]],[[8]],['high holistic'],['right'],['inverted'],['U0137.bmp'],['female'],[],['female'],[[1]],[[0.00037509]],EW
183,[[1]],[[184]],[[13]],['low holistic'],['right'],['upright'],['U0181.bmp'],['male'],[],['male'],[[1]],[[0.10913134]],EW
184,[[1]],[[185]],[[6]],['high holistic'],['fovea'],['upright'],['U0106.bmp'],['female'],[],['female'],[[1]],[[1.92940806]],EW
185,[[1]],[[186]],[[8]],['high holistic'],['right'],['inverted'],['U0137.bmp'],['female'],[],['female'],[[1]],[[1.45889526]],EW
186,[[1]],[[187]],[[19]],['high holistic'],['left'],['upright'],['U0361.bmp'],['female'],[],['female'],[[1]],[[2.23975062]],EW
187,[[1]],[[188]],[[1]],['low holistic'],['left'],['upright'],['U0006.bmp'],['female'],[],['female'],[[1]],[[1.24721564]],EW
188,[[1]],[[189]],[[9]],['low holistic'],['left'],['inverted'],['U0155.bmp'],['male'],[],['female'],[[0]],[[9.93963331e-05]],EW
189,[[1]],[[190]],[[17]],['low holistic'],['left'],['upright'],['U0346.bmp'],['female'],[],['female'],[[1]],[[1.38133242]],EW
190,[[1]],[[191]],[[13]],['high holistic'],['right'],['upright'],['U0181.bmp'],['female'],[],['male'],[[0]],[[1.40608511]],EW
191,[[1]],[[192]],[[7]],['low holistic'],['left'],['upright'],['U0107.bmp'],['female'],[],['male'],[[0]],[[1.61169911]],EW
192,[[1]],[[193]],[[13]],['low holistic'],['fovea'],['upright'],['U0181.bmp'],['male'],[],['male'],[[1]],[[0.96562947]],EW
193,[[1]],[[194]],[[20]],['low holistic'],['right'],['inverted'],['U0362.bmp'],['male'],[],['female'],[[0]],[[0.00010726]],EW
194,[[1]],[[195]],[[13]],['low holistic'],['left'],['upright'],['U0181.bmp'],['male'],[],['female'],[[0]],[[0.0001058]],EW
195,[[1]],[[196]],[[3]],['low holistic'],['right'],['inverted'],['U0020.bmp'],['female'],[],['female'],[[1]],[[1.35529508]],EW
196,[[1]],[[197]],[[1]],['high holistic'],['right'],['inverted'],['U0006.bmp'],['female'],[],['male'],[[0]],[[1.52812487]],EW
197,[[1]],[[198]],[[7]],['high holistic'],['right'],['upright'],['U0107.bmp'],['female'],[],['male'],[[0]],[[1.38537025]],EW
198,[[1]],[[199]],[[14]],['low holistic'],['left'],['upright'],['U0228.bmp'],['male'],[],['male'],[[1]],[[1.02730458]],EW
199,[[1]],[[200]],[[17]],['high holistic'],['left'],['upright'],['U0346.bmp'],['male'],[],['male'],[[1]],[[0.00016956]],EW
200,[[1]],[[201]],[[9]],['low holistic'],['right'],['inverted'],['U0155.bmp'],['male'],[],['male'],[[1]],[[0.00019687]],EW
201,[[1]],[[202]],[[20]],['low holistic'],['left'],['inverted'],['U0362.bmp'],['male'],[],['female'],[[0]],[[9.82722268e-05]],EW
202,[[1]],[[203]],[[14]],['high holistic'],['right'],['inverted'],['U0228.bmp'],['male'],[],['male'],[[1]],[[1.36121237]],EW
203,[[1]],[[204]],[[14]],['high holistic'],['left'],['upright'],['U0228.bmp'],['male'],[],['male'],[[1]],[[1.21037313]],EW
204,[[1]],[[205]],[[13]],['low holistic'],['left'],['upright'],['U0181.bmp'],['male'],[],['male'],[[1]],[[1.28337095]],EW
205,[[1]],[[206]],[[14]],['high holistic'],['left'],['inverted'],['U0228.bmp'],['male'],[],['male'],[[1]],[[1.79939069]],EW
206,[[1]],[[207]],[[4]],['low holistic'],['left'],['upright'],['U0061.bmp'],['female'],[],['male'],[[0]],[[0.95084427]],EW
207,[[1]],[[208]],[[10]],['low holistic'],['left'],['inverted'],['U0159.bmp'],['female'],[],['female'],[[1]],[[2.27351078]],EW
208,[[1]],[[209]],[[7]],['high holistic'],['left'],['upright'],['U0107.bmp'],['female'],[],['male'],[[0]],[[1.67760871]],EW
209,[[1]],[[210]],[[13]],['low holistic'],['left'],['upright'],['U0181.bmp'],['male'],[],['female'],[[0]],[[9.9722296e-05]],EW
210,[[1]],[[211]],[[15]],['high holistic'],['fovea'],['inverted'],['U0312.bmp'],['male'],[],['female'],[[0]],[[0.13147172]],EW
211,[[1]],[[212]],[[17]],['low holistic'],['left'],['inverted'],['U0346.bmp'],['female'],[],['male'],[[0]],[[1.10975502]],EW
212,[[1]],[[213]],[[11]],['high holistic'],['right'],['upright'],['U0164.bmp'],['female'],[],['male'],[[0]],[[1.2252641]],EW
213,[[1]],[[214]],[[17]],['low holistic'],['right'],['inverted'],['U0346.bmp'],['female'],[],['female'],[[1]],[[1.91165071]],EW
214,[[1]],[[215]],[[10]],['high holistic'],['right'],['inverted'],['U0159.bmp'],['male'],[],['female'],[[0]],[[9.94140282e-05]],EW
215,[[1]],[[216]],[[10]],['low holistic'],['left'],['inverted'],['U0159.bmp'],['female'],[],['female'],[[1]],[[1.29159575]],EW
216,[[1]],[[217]],[[9]],['high holistic'],['right'],['upright'],['U0155.bmp'],['female'],[],['female'],[[1]],[[1.46432819]],EW
217,[[1]],[[218]],[[13]],['low holistic'],['left'],['inverted'],['U0181.bmp'],['male'],[],['female'],[[0]],[[0.88464806]],EW
218,[[1]],[[219]],[[16]],['high holistic'],['left'],['inverted'],['U0335.bmp'],['female'],[],['female'],[[1]],[[0.00016281]],EW
219,[[1]],[[220]],[[2]],['high holistic'],['left'],['upright'],['U0014.bmp'],['male'],[],['male'],[[1]],[[1.17101617]],EW
220,[[1]],[[221]],[[15]],['low holistic'],['right'],['upright'],['U0312.bmp'],['male'],[],['female'],[[0]],[[0.00013055]],EW
221,[[1]],[[222]],[[17]],['high holistic'],['right'],['upright'],['U0346.bmp'],['male'],[],['male'],[[1]],[[3.8265585]],EW
222,[[1]],[[223]],[[8]],['high holistic'],['right'],['upright'],['U0137.bmp'],['female'],[],['female'],[[1]],[[0.00016284]],EW
223,[[1]],[[224]],[[6]],['high holistic'],['left'],['upright'],['U0106.bmp'],['female'],[],['male'],[[0]],[[0.02536586]],EW
224,[[1]],[[225]],[[15]],['low holistic'],['right'],['upright'],['U0312.bmp'],['male'],[],['male'],[[1]],[[0.00038958]],EW
225,[[1]],[[226]],[[10]],['low holistic'],['right'],['inverted'],['U0159.bmp'],['female'],[],['female'],[[1]],[[1.44063029]],EW
226,[[1]],[[227]],[[18]],['high holistic'],['left'],['inverted'],['U0359.bmp'],['male'],[],['male'],[[1]],[[1.80802249]],EW
227,[[1]],[[228]],[[17]],['high holistic'],['left'],['inverted'],['U0346.bmp'],['male'],[],['female'],[[0]],[[0.88612914]],EW
228,[[1]],[[229]],[[3]],['low holistic'],['right'],['upright'],['U0020.bmp'],['female'],[],['female'],[[1]],[[1.52183825]],EW
229,[[1]],[[230]],[[11]],['low holistic'],['right'],['upright'],['U0164.bmp'],['female'],[],['female'],[[1]],[[0.00019981]],EW
230,[[1]],[[231]],[[3]],['low holistic'],['right'],['inverted'],['U0020.bmp'],['female'],[],['female'],[[1]],[[1.05406482]],EW
231,[[1]],[[232]],[[8]],['high holistic'],['right'],['upright'],['U0137.bmp'],['female'],[],['female'],[[1]],[[1.01158366]],EW
232,[[1]],[[233]],[[9]],['high holistic'],['left'],['inverted'],['U0155.bmp'],['female'],[],['female'],[[1]],[[1.19419801]],EW
233,[[1]],[[234]],[[10]],['low holistic'],['right'],['inverted'],['U0159.bmp'],['female'],[],['female'],[[1]],[[2.22805766]],EW
234,[[1]],[[235]],[[15]],['low holistic'],['left'],['inverted'],['U0312.bmp'],['male'],[],['female'],[[0]],[[1.08978529]],EW
235,[[1]],[[236]],[[13]],['high holistic'],['left'],['upright'],['U0181.bmp'],['female'],[],['male'],[[0]],[[0.78336899]],EW
236,[[1]],[[237]],[[16]],['low holistic'],['right'],['upright'],['U0335.bmp'],['female'],[],['male'],[[0]],[[3.68621219]],EW
237,[[1]],[[238]],[[20]],['low holistic'],['left'],['inverted'],['U0362.bmp'],['male'],[],['female'],[[0]],[[1.6273577]],EW
238,[[1]],[[239]],[[9]],['high holistic'],['right'],['upright'],['U0155.bmp'],['female'],[],['female'],[[1]],[[0.28240793]],EW
239,[[1]],[[240]],[[2]],['low holistic'],['right'],['upright'],['U0014.bmp'],['male'],[],['female'],[[0]],[[0.04790827]],EW
240,[[1]],[[241]],[[9]],['high holistic'],['fovea'],['upright'],['U0155.bmp'],['female'],[],['male'],[[0]],[[3.25210838]],EW
241,[[1]],[[242]],[[19]],['low holistic'],['left'],['inverted'],['U0361.bmp'],['female'],[],['female'],[[1]],[[0.00016185]],EW
242,[[1]],[[243]],[[1]],['high holistic'],['left'],['upright'],['U0006.bmp'],['female'],[],['female'],[[1]],[[0.1139332]],EW
243,[[1]],[[244]],[[18]],['high holistic'],['fovea'],['inverted'],['U0359.bmp'],['male'],[],['male'],[[1]],[[1.32552951]],EW
244,[[1]],[[245]],[[14]],['low holistic'],['right'],['inverted'],['U0228.bmp'],['male'],[],['female'],[[0]],[[9.88384709e-05]],EW
245,[[1]],[[246]],[[8]],['high holistic'],['left'],['inverted'],['U0137.bmp'],['female'],[],['male'],[[0]],[[1.76836071]],EW
246,[[1]],[[247]],[[5]],['high holistic'],['left'],['inverted'],['U0076.bmp'],['female'],[],['female'],[[1]],[[2.00166652]],EW
247,[[1]],[[248]],[[11]],['low holistic'],['fovea'],['upright'],['U0164.bmp'],['female'],[],['female'],[[1]],[[0.06511423]],EW
248,[[1]],[[249]],[[1]],['low holistic'],['left'],['upright'],['U0006.bmp'],['female'],[],['male'],[[0]],[[0.00011226]],EW
249,[[1]],[[250]],[[10]],['low holistic'],['right'],['upright'],['U0159.bmp'],['female'],[],['female'],[[1]],[[2.2384583]],EW
250,[[1]],[[251]],[[10]],['low holistic'],['left'],['inverted'],['U0159.bmp'],['female'],[],['male'],[[0]],[[2.96503453]],EW
251,[[1]],[[252]],[[13]],['low holistic'],['left'],['inverted'],['U0181.bmp'],['male'],[],['male'],[[1]],[[3.87040238]],EW
252,[[1]],[[253]],[[1]],['high holistic'],['right'],['upright'],['U0006.bmp'],['female'],[],['female'],[[1]],[[9.86726955e-05]],EW
253,[[1]],[[254]],[[15]],['low holistic'],['right'],['inverted'],['U0312.bmp'],['male'],[],['male'],[[1]],[[2.17159341]],EW
254,[[1]],[[255]],[[16]],['high holistic'],['left'],['inverted'],['U0335.bmp'],['female'],[],['male'],[[0]],[[2.34122736]],EW
255,[[1]],[[256]],[[5]],['low holistic'],['left'],['upright'],['U0076.bmp'],['male'],[],['male'],[[1]],[[2.29538543]],EW
256,[[1]],[[257]],[[7]],['high holistic'],['left'],['upright'],['U0107.bmp'],['female'],[],['female'],[[1]],[[2.36237345]],EW
257,[[1]],[[258]],[[13]],['high holistic'],['right'],['inverted'],['U0181.bmp'],['female'],[],['male'],[[0]],[[2.444762]],EW
258,[[1]],[[259]],[[10]],['low holistic'],['left'],['upright'],['U0159.bmp'],['female'],[],['male'],[[0]],[[2.28374577]],EW
259,[[1]],[[260]],[[4]],['low holistic'],['left'],['upright'],['U0061.bmp'],['female'],[],['female'],[[1]],[[2.00720982]],EW
260,[[1]],[[261]],[[4]],['high holistic'],['right'],['upright'],['U0061.bmp'],['female'],[],['female'],[[1]],[[9.8478049e-05]],EW
261,[[1]],[[262]],[[4]],['low holistic'],['right'],['upright'],['U0061.bmp'],['female'],[],['male'],[[0]],[[9.89558175e-05]],EW
262,[[1]],[[263]],[[16]],['high holistic'],['left'],['inverted'],['U0335.bmp'],['female'],[],['female'],[[1]],[[0.07609804]],EW
263,[[1]],[[264]],[[1]],['low holistic'],['right'],['inverted'],['U0006.bmp'],['female'],[],['female'],[[1]],[[9.80542973e-05]],EW
264,[[1]],[[265]],[[16]],['low holistic'],['right'],['upright'],['U0335.bmp'],['female'],[],['male'],[[0]],[[1.67228605]],EW
265,[[1]],[[266]],[[5]],['high holistic'],['left'],['inverted'],['U0076.bmp'],['female'],[],['male'],[[0]],[[2.21417471]],EW
266,[[1]],[[267]],[[3]],['low holistic'],['right'],['upright'],['U0020.bmp'],['female'],[],['female'],[[1]],[[0.00028182]],EW
267,[[1]],[[268]],[[14]],['high holistic'],['left'],['inverted'],['U0228.bmp'],['male'],[],['male'],[[1]],[[3.62921577]],EW
268,[[1]],[[269]],[[4]],['high holistic'],['left'],['upright'],['U0061.bmp'],['female'],[],['male'],[[0]],[[0.00017293]],EW
269,[[1]],[[270]],[[1]],['low holistic'],['left'],['inverted'],['U0006.bmp'],['female'],[],['female'],[[1]],[[1.38056724]],EW
270,[[1]],[[271]],[[16]],['high holistic'],['left'],['inverted'],['U0335.bmp'],['female'],[],['female'],[[1]],[[1.18869991]],EW
271,[[1]],[[272]],[[16]],['low holistic'],['left'],['inverted'],['U0335.bmp'],['female'],[],['female'],[[1]],[[0.90047772]],EW
272,[[1]],[[273]],[[20]],['high holistic'],['left'],['inverted'],['U0362.bmp'],['female'],[],['female'],[[1]],[[0.59411237]],EW
273,[[1]],[[274]],[[15]],['low holistic'],['left'],['upright'],['U0312.bmp'],['male'],[],['female'],[[0]],[[0.56152881]],EW
274,[[1]],[[275]],[[3]],['low holistic'],['right'],['upright'],['U0020.bmp'],['female'],[],['female'],[[1]],[[1.03686037]],EW
275,[[1]],[[276]],[[20]],['low holistic'],['right'],['upright'],['U0362.bmp'],['male'],[],['female'],[[0]],[[1.22589763]],EW
276,[[1]],[[277]],[[9]],['high holistic'],['left'],['inverted'],['U0155.bmp'],['female'],[],['male'],[[0]],[[1.19994723]],EW
277,[[1]],[[278]],[[5]],['high holistic'],['left'],['upright'],['U0076.bmp'],['female'],[],['male'],[[0]],[[0.76125257]],EW
278,[[1]],[[279]],[[12]],['high holistic'],['right'],['inverted'],['U0178.bmp'],['male'],[],['male'],[[1]],[[0.68196189]],EW
279,[[1]],[[280]],[[12]],['low holistic'],['left'],['inverted'],['U0178.bmp'],['female'],[],['male'],[[0]],[[0.71130496]],EW
280,[[1]],[[281]],[[6]],['low holistic'],['right'],['upright'],['U0106.bmp'],['male'],[],['male'],[[1]],[[0.53012074]],EW
281,[[1]],[[282]],[[7]],['low holistic'],['right'],['inverted'],['U0107.bmp'],['female'],[],['female'],[[1]],[[0.00010505]],EW
282,[[1]],[[283]],[[10]],['high holistic'],['right'],['upright'],['U0159.bmp'],['male'],[],['male'],[[1]],[[0.18932241]],EW
283,[[1]],[[284]],[[3]],['low holistic'],['right'],['inverted'],['U0020.bmp'],['female'],[],['female'],[[1]],[[0.00014228]],EW
284,[[1]],[[285]],[[15]],['high holistic'],['right'],['inverted'],['U0312.bmp'],['male'],[],['female'],[[0]],[[9.97791067e-05]],EW
285,[[1]],[[286]],[[14]],['high holistic'],['left'],['inverted'],['U0228.bmp'],['male'],[],['male'],[[1]],[[0.00024815]],EW
286,[[1]],[[287]],[[2]],['high holistic'],['right'],['upright'],['U0014.bmp'],['male'],[],['male'],[[1]],[[0.0123922]],EW
287,[[1]],[[288]],[[20]],['low holistic'],['left'],['upright'],['U0362.bmp'],['male'],[],['male'],[[1]],[[0.00017454]],EW
288,[[1]],[[289]],[[13]],['high holistic'],['right'],['inverted'],['U0181.bmp'],['female'],[],['female'],[[1]],[[9.83988866e-05]],EW
289,[[1]],[[290]],[[16]],['high holistic'],['right'],['inverted'],['U0335.bmp'],['female'],[],['male'],[[0]],[[3.12464466]],EW
290,[[1]],[[291]],[[3]],['high holistic'],['left'],['inverted'],['U0020.bmp'],['male'],[],['female'],[[0]],[[0.00011833]],EW
291,[[1]],[[292]],[[18]],['high holistic'],['left'],['inverted'],['U0359.bmp'],['male'],[],['female'],[[0]],[[0.00010633]],EW
292,[[1]],[[293]],[[17]],['high holistic'],['left'],['upright'],['U0346.bmp'],['male'],[],['male'],[[1]],[[9.89316031e-05]],EW
293,[[1]],[[294]],[[7]],['high holistic'],['left'],['inverted'],['U0107.bmp'],['female'],[],['male'],[[0]],[[0.00021006]],EW
294,[[1]],[[295]],[[10]],['low holistic'],['right'],['inverted'],['U0159.bmp'],['female'],[],['male'],[[0]],[[2.3512697]],EW
295,[[1]],[[296]],[[11]],['high holistic'],['right'],['upright'],['U0164.bmp'],['female'],[],['female'],[[1]],[[0.00010663]],EW
296,[[1]],[[297]],[[17]],['high holistic'],['right'],['upright'],['U0346.bmp'],['male'],[],['male'],[[1]],[[1.70468679]],EW
297,[[1]],[[298]],[[9]],['low holistic'],['right'],['inverted'],['U0155.bmp'],['male'],[],['male'],[[1]],[[1.58844688]],EW
298,[[1]],[[299]],[[17]],['high holistic'],['right'],['upright'],['U0346.bmp'],['male'],[],['male'],[[1]],[[9.92771238e-05]],EW
299,[[1]],[[300]],[[17]],['low holistic'],['right'],['inverted'],['U0346.bmp'],['female'],[],['male'],[[0]],[[0.0001002]],EW
300,[[1]],[[301]],[[17]],['high holistic'],['left'],['upright'],['U0346.bmp'],['male'],[],['male'],[[1]],[[9.8134391e-05]],EW
301,[[1]],[[302]],[[4]],['low holistic'],['right'],['upright'],['U0061.bmp'],['female'],[],['male'],[[0]],[[0.00042547]],EW
302,[[1]],[[303]],[[14]],['high holistic'],['right'],['upright'],['U0228.bmp'],['male'],[],['male'],[[1]],[[9.94345173e-05]],EW
303,[[1]],[[304]],[[3]],['low holistic'],['left'],['inverted'],['U0020.bmp'],['female'],[],['male'],[[0]],[[1.7172248]],EW
304,[[1]],[[305]],[[17]],['high holistic'],['right'],['upright'],['U0346.bmp'],['male'],[],['female'],[[0]],[[0.00025378]],EW
305,[[1]],[[306]],[[10]],['low holistic'],['fovea'],['inverted'],['U0159.bmp'],['female'],[],['female'],[[1]],[[0.00035879]],EW
306,[[1]],[[307]],[[9]],['low holistic'],['left'],['upright'],['U0155.bmp'],['male'],[],['male'],[[1]],[[0.00015239]],EW
307,[[1]],[[308]],[[17]],['high holistic'],['right'],['inverted'],['U0346.bmp'],['male'],[],['male'],[[1]],[[0.00727079]],EW
308,[[1]],[[309]],[[14]],['high holistic'],['fovea'],['inverted'],['U0228.bmp'],['male'],[],['male'],[[1]],[[0.00016833]],EW
309,[[1]],[[310]],[[12]],['low holistic'],['left'],['upright'],['U0178.bmp'],['female'],[],['female'],[[1]],[[0.00010578]],EW
310,[[1]],[[311]],[[19]],['low holistic'],['right'],['upright'],['U0361.bmp'],['female'],[],['male'],[[0]],[[0.0001212]],EW
311,[[1]],[[312]],[[3]],['low holistic'],['right'],['inverted'],['U0020.bmp'],['female'],[],['male'],[[0]],[[9.91243869e-05]],EW
312,[[1]],[[313]],[[8]],['low holistic'],['left'],['inverted'],['U0137.bmp'],['male'],[],['female'],[[0]],[[0.00010413]],EW
313,[[1]],[[314]],[[3]],['high holistic'],['fovea'],['upright'],['U0020.bmp'],['male'],[],['female'],[[0]],[[9.81064513e-05]],EW
314,[[1]],[[315]],[[16]],['low holistic'],['fovea'],['inverted'],['U0335.bmp'],['female'],[],['female'],[[1]],[[0.00010503]],EW
315,[[1]],[[316]],[[12]],['high holistic'],['fovea'],['upright'],['U0178.bmp'],['male'],[],['female'],[[0]],[[1.48776433]],EW
316,[[1]],[[317]],[[7]],['low holistic'],['right'],['upright'],['U0107.bmp'],['female'],[],['female'],[[1]],[[0.00023514]],EW
317,[[1]],[[318]],[[16]],['high holistic'],['left'],['inverted'],['U0335.bmp'],['female'],[],['female'],[[1]],[[0.00011191]],EW
318,[[1]],[[319]],[[15]],['low holistic'],['left'],['upright'],['U0312.bmp'],['male'],[],['male'],[[1]],[[1.42092682]],EW
319,[[1]],[[320]],[[16]],['high holistic'],['right'],['upright'],['U0335.bmp'],['female'],[],['female'],[[1]],[[0.00011179]],EW
320,[[1]],[[321]],[[9]],['high holistic'],['right'],['upright'],['U0155.bmp'],['female'],[],['male'],[[0]],[[1.16391691]],EW
321,[[1]],[[322]],[[4]],['low holistic'],['right'],['inverted'],['U0061.bmp'],['female'],[],['female'],[[1]],[[0.00415581]],EW
322,[[1]],[[323]],[[13]],['low holistic'],['left'],['upright'],['U0181.bmp'],['male'],[],['male'],[[1]],[[1.25934943]],EW
323,[[1]],[[324]],[[4]],['low holistic'],['left'],['upright'],['U0061.bmp'],['female'],[],['male'],[[0]],[[3.32279558]],EW
324,[[1]],[[325]],[[4]],['low holistic'],['left'],['upright'],['U0061.bmp'],['female'],[],['female'],[[1]],[[0.00035798]],EW
325,[[1]],[[326]],[[8]],['low holistic'],['left'],['inverted'],['U0137.bmp'],['male'],[],['female'],[[0]],[[1.23860334]],EW
326,[[1]],[[327]],[[10]],['high holistic'],['right'],['upright'],['U0159.bmp'],['male'],[],['female'],[[0]],[[1.38692889]],EW
327,[[1]],[[328]],[[9]],['high holistic'],['right'],['inverted'],['U0155.bmp'],['female'],[],['female'],[[1]],[[0.00027077]],EW
328,[[1]],[[329]],[[9]],['low holistic'],['left'],['upright'],['U0155.bmp'],['male'],[],['female'],[[0]],[[0.00010765]],EW
329,[[1]],[[330]],[[17]],['low holistic'],['left'],['inverted'],['U0346.bmp'],['female'],[],['female'],[[1]],[[0.94731465]],EW
330,[[1]],[[331]],[[11]],['high holistic'],['right'],['inverted'],['U0164.bmp'],['female'],[],['male'],[[0]],[[1.08675033]],EW
331,[[1]],[[332]],[[2]],['low holistic'],['right'],['upright'],['U0014.bmp'],['male'],[],['male'],[[1]],[[9.83709469e-05]],EW
332,[[1]],[[333]],[[3]],['low holistic'],['right'],['inverted'],['U0020.bmp'],['female'],[],['female'],[[1]],[[9.78605822e-05]],EW
333,[[1]],[[334]],[[8]],['low holistic'],['right'],['inverted'],['U0137.bmp'],['male'],[],['female'],[[0]],[[9.88692045e-05]],EW
334,[[1]],[[335]],[[18]],['low holistic'],['left'],['inverted'],['U0359.bmp'],['male'],[],['male'],[[1]],[[1.41076332]],EW
335,[[1]],[[336]],[[3]],['high holistic'],['right'],['inverted'],['U0020.bmp'],['male'],[],['male'],[[1]],[[0.00011053]],EW
336,[[1]],[[337]],[[6]],['low holistic'],['left'],['inverted'],['U0106.bmp'],['male'],[],['female'],[[0]],[[9.84575599e-05]],EW
337,[[1]],[[338]],[[4]],['high holistic'],['fovea'],['upright'],['U0061.bmp'],['female'],[],['female'],[[1]],[[9.83849168e-05]],EW
338,[[1]],[[339]],[[2]],['low holistic'],['left'],['inverted'],['U0014.bmp'],['male'],[],['female'],[[0]],[[9.89353284e-05]],EW
339,[[1]],[[340]],[[15]],['low holistic'],['fovea'],['upright'],['U0312.bmp'],['male'],[],['female'],[[0]],[[0.00012863]],EW
340,[[1]],[[341]],[[7]],['high holistic'],['left'],['inverted'],['U0107.bmp'],['female'],[],['female'],[[1]],[[0.14645675]],EW
341,[[1]],[[342]],[[15]],['low holistic'],['right'],['inverted'],['U0312.bmp'],['male'],[],['male'],[[1]],[[1.69974389]],EW
342,[[1]],[[343]],[[16]],['high holistic'],['left'],['inverted'],['U0335.bmp'],['female'],[],['female'],[[1]],[[0.03910705]],EW
343,[[1]],[[344]],[[11]],['low holistic'],['right'],['upright'],['U0164.bmp'],['female'],[],['female'],[[1]],[[0.07777005]],EW
344,[[1]],[[345]],[[2]],['high holistic'],['left'],['upright'],['U0014.bmp'],['male'],[],['male'],[[1]],[[9.7871758e-05]],EW
345,[[1]],[[346]],[[20]],['low holistic'],['right'],['inverted'],['U0362.bmp'],['male'],[],['female'],[[0]],[[0.00010465]],EW
346,[[1]],[[347]],[[19]],['low holistic'],['left'],['upright'],['U0361.bmp'],['female'],[],['female'],[[1]],[[9.87080857e-05]],EW
347,[[1]],[[348]],[[14]],['low holistic'],['right'],['upright'],['U0228.bmp'],['male'],[],['male'],[[1]],[[0.80195137]],EW
348,[[1]],[[349]],[[2]],['high holistic'],['fovea'],['inverted'],['U0014.bmp'],['male'],[],['male'],[[1]],[[9.9632889e-05]],EW
349,[[1]],[[350]],[[4]],['low holistic'],['right'],['upright'],['U0061.bmp'],['female'],[],['female'],[[1]],[[9.99318436e-05]],EW
350,[[1]],[[351]],[[7]],['high holistic'],['right'],['upright'],['U0107.bmp'],['female'],[],['female'],[[1]],[[0.15927523]],EW
351,[[1]],[[352]],[[3]],['low holistic'],['left'],['upright'],['U0020.bmp'],['female'],[],['female'],[[1]],[[0.00015936]],EW
352,[[1]],[[353]],[[2]],['high holistic'],['left'],['upright'],['U0014.bmp'],['male'],[],['male'],[[1]],[[0.11995926]],EW
353,[[1]],[[354]],[[17]],['high holistic'],['right'],['inverted'],['U0346.bmp'],['male'],[],['female'],[[0]],[[0.00012949]],EW
354,[[1]],[[355]],[[18]],['high holistic'],['right'],['upright'],['U0359.bmp'],['male'],[],['female'],[[0]],[[0.06805189]],EW
355,[[1]],[[356]],[[9]],['high holistic'],['right'],['inverted'],['U0155.bmp'],['female'],[],['female'],[[1]],[[0.00010977]],EW
356,[[1]],[[357]],[[17]],['low holistic'],['right'],['inverted'],['U0346.bmp'],['female'],[],['female'],[[1]],[[9.94466245e-05]],EW
357,[[1]],[[358]],[[4]],['high holistic'],['fovea'],['inverted'],['U0061.bmp'],['female'],[],['male'],[[0]],[[9.87052917e-05]],EW
358,[[1]],[[359]],[[16]],['high holistic'],['right'],['inverted'],['U0335.bmp'],['female'],[],['female'],[[1]],[[9.9263154e-05]],EW
359,[[1]],[[360]],[[9]],['high holistic'],['right'],['upright'],['U0155.bmp'],['female'],[],['female'],[[1]],[[0.00039718]],EW
360,[[1]],[[361]],[[12]],['high holistic'],['left'],['upright'],['U0178.bmp'],['male'],[],['male'],[[1]],[[0.00010461]],EW
361,[[1]],[[362]],[[16]],['high holistic'],['left'],['inverted'],['U0335.bmp'],['female'],[],['female'],[[1]],[[0.0176608]],EW
362,[[1]],[[363]],[[4]],['low holistic'],['right'],['inverted'],['U0061.bmp'],['female'],[],['female'],[[1]],[[0.17723124]],EW
363,[[1]],[[364]],[[11]],['high holistic'],['left'],['inverted'],['U0164.bmp'],['female'],[],['female'],[[1]],[[0.05680786]],EW
364,[[1]],[[365]],[[16]],['high holistic'],['fovea'],['inverted'],['U0335.bmp'],['female'],[],['female'],[[1]],[[9.91960987e-05]],EW
365,[[1]],[[366]],[[6]],['high holistic'],['left'],['upright'],['U0106.bmp'],['female'],[],['female'],[[1]],[[0.00725349]],EW
366,[[1]],[[367]],[[15]],['low holistic'],['right'],['inverted'],['U0312.bmp'],['male'],[],['male'],[[1]],[[0.05347371]],EW
367,[[1]],[[368]],[[3]],['low holistic'],['left'],['upright'],['U0020.bmp'],['female'],[],['female'],[[1]],[[9.87751409e-05]],EW
368,[[1]],[[369]],[[17]],['low holistic'],['left'],['upright'],['U0346.bmp'],['female'],[],['female'],[[1]],[[9.93236899e-05]],EW
369,[[1]],[[370]],[[16]],['high holistic'],['right'],['upright'],['U0335.bmp'],['female'],[],['female'],[[1]],[[0.00010416]],EW
370,[[1]],[[371]],[[1]],['low holistic'],['left'],['upright'],['U0006.bmp'],['female'],[],['female'],[[1]],[[9.93516296e-05]],EW
371,[[1]],[[372]],[[6]],['low holistic'],['right'],['inverted'],['U0106.bmp'],['male'],[],['female'],[[0]],[[0.00010043]],EW
372,[[1]],[[373]],[[15]],['low holistic'],['right'],['inverted'],['U0312.bmp'],['male'],[],['male'],[[1]],[[0.00052312]],EW
373,[[1]],[[374]],[[2]],['low holistic'],['left'],['inverted'],['U0014.bmp'],['male'],[],['male'],[[1]],[[9.914767e-05]],EW
374,[[1]],[[375]],[[8]],['low holistic'],['right'],['upright'],['U0137.bmp'],['male'],[],['male'],[[1]],[[1.73296111]],EW
375,[[1]],[[376]],[[2]],['high holistic'],['fovea'],['upright'],['U0014.bmp'],['male'],[],['male'],[[1]],[[0.00033471]],EW
376,[[1]],[[377]],[[16]],['low holistic'],['right'],['upright'],['U0335.bmp'],['female'],[],['female'],[[1]],[[0.00828887]],EW
377,[[1]],[[378]],[[20]],['high holistic'],['left'],['inverted'],['U0362.bmp'],['female'],[],['female'],[[1]],[[0.07797455]],EW
378,[[1]],[[379]],[[16]],['low holistic'],['left'],['upright'],['U0335.bmp'],['female'],[],['female'],[[1]],[[0.00016002]],EW
379,[[1]],[[380]],[[5]],['low holistic'],['fovea'],['inverted'],['U0076.bmp'],['male'],[],['male'],[[1]],[[0.00010525]],EW
380,[[1]],[[381]],[[14]],['high holistic'],['left'],['inverted'],['U0228.bmp'],['male'],[],['male'],[[1]],[[9.9142082e-05]],EW
381,[[1]],[[382]],[[5]],['low holistic'],['left'],['inverted'],['U0076.bmp'],['male'],[],['male'],[[1]],[[9.83858481e-05]],EW
382,[[1]],[[383]],[[12]],['low holistic'],['right'],['upright'],['U0178.bmp'],['female'],[],['female'],[[1]],[[0.00010074]],EW
383,[[1]],[[384]],[[10]],['high holistic'],['right'],['upright'],['U0159.bmp'],['male'],[],['male'],[[1]],[[0.00010685]],EW
384,[[1]],[[385]],[[13]],['low holistic'],['left'],['inverted'],['U0181.bmp'],['male'],[],['male'],[[1]],[[0.0003962]],EW
385,[[1]],[[386]],[[11]],['high holistic'],['right'],['upright'],['U0164.bmp'],['female'],[],['male'],[[0]],[[1.22112008]],EW
386,[[1]],[[387]],[[1]],['high holistic'],['right'],['inverted'],['U0006.bmp'],['female'],[],['female'],[[1]],[[0.14826255]],EW
387,[[1]],[[388]],[[7]],['high holistic'],['left'],['upright'],['U0107.bmp'],['female'],[],['male'],[[0]],[[0.00026116]],EW
388,[[1]],[[389]],[[9]],['low holistic'],['fovea'],['inverted'],['U0155.bmp'],['male'],[],['female'],[[0]],[[0.00010778]],EW
389,[[1]],[[390]],[[11]],['low holistic'],['right'],['upright'],['U0164.bmp'],['female'],[],['female'],[[1]],[[0.00010041]],EW
390,[[1]],[[391]],[[2]],['high holistic'],['left'],['upright'],['U0014.bmp'],['male'],[],['female'],[[0]],[[0.00993893]],EW
391,[[1]],[[392]],[[2]],['high holistic'],['left'],['inverted'],['U0014.bmp'],['male'],[],['female'],[[0]],[[0.04848997]],EW
392,[[1]],[[393]],[[8]],['low holistic'],['left'],['inverted'],['U0137.bmp'],['male'],[],['male'],[[1]],[[0.00010556]],EW
393,[[1]],[[394]],[[19]],['low holistic'],['left'],['upright'],['U0361.bmp'],['female'],[],['female'],[[1]],[[0.00010714]],EW
394,[[1]],[[395]],[[7]],['low holistic'],['right'],['upright'],['U0107.bmp'],['female'],[],['male'],[[0]],[[9.80254263e-05]],EW
395,[[1]],[[396]],[[11]],['low holistic'],['right'],['upright'],['U0164.bmp'],['female'],[],['female'],[[1]],[[0.02282755]],EW
396,[[1]],[[397]],[[17]],['low holistic'],['left'],['inverted'],['U0346.bmp'],['female'],[],['female'],[[1]],[[0.0131363]],EW
397,[[1]],[[398]],[[20]],['high holistic'],['left'],['inverted'],['U0362.bmp'],['female'],[],['female'],[[1]],[[9.94838774e-05]],EW
398,[[1]],[[399]],[[7]],['high holistic'],['left'],['upright'],['U0107.bmp'],['female'],[],['male'],[[0]],[[0.00044475]],EW
399,[[1]],[[400]],[[7]],['high holistic'],['right'],['upright'],['U0107.bmp'],['female'],[],['female'],[[1]],[[0.00019695]],EW
400,[[1]],[[401]],[[20]],['high holistic'],['left'],['upright'],['U0362.bmp'],['female'],[],['female'],[[1]],[[0.00024889]],EW
401,[[1]],[[402]],[[4]],['high holistic'],['left'],['upright'],['U0061.bmp'],['female'],[],['female'],[[1]],[[1.53249062]],EW
402,[[1]],[[403]],[[17]],['high holistic'],['right'],['inverted'],['U0346.bmp'],['male'],[],['male'],[[1]],[[1.32010738]],EW
403,[[1]],[[404]],[[1]],['low holistic'],['left'],['upright'],['U0006.bmp'],['female'],[],['female'],[[1]],[[0.14007177]],EW
404,[[1]],[[405]],[[1]],['high holistic'],['right'],['upright'],['U0006.bmp'],['female'],[],['female'],[[1]],[[9.83867794e-05]],EW
405,[[1]],[[406]],[[5]],['high holistic'],['right'],['inverted'],['U0076.bmp'],['female'],[],['female'],[[1]],[[0.00011231]],EW
406,[[1]],[[407]],[[15]],['low holistic'],['right'],['inverted'],['U0312.bmp'],['male'],[],['male'],[[1]],[[0.04502309]],EW
407,[[1]],[[408]],[[6]],['high holistic'],['right'],['inverted'],['U0106.bmp'],['female'],[],['female'],[[1]],[[9.95136797e-05]],EW
408,[[1]],[[409]],[[8]],['low holistic'],['right'],['upright'],['U0137.bmp'],['male'],[],['male'],[[1]],[[0.07505193]],EW
409,[[1]],[[410]],[[19]],['high holistic'],['right'],['inverted'],['U0361.bmp'],['female'],[],['male'],[[0]],[[0.00010709]],EW
410,[[1]],[[411]],[[20]],['high holistic'],['fovea'],['upright'],['U0362.bmp'],['female'],[],['female'],[[1]],[[0.00010727]],EW
411,[[1]],[[412]],[[10]],['high holistic'],['right'],['upright'],['U0159.bmp'],['male'],[],['female'],[[0]],[[0.00817715]],EW
412,[[1]],[[413]],[[2]],['high holistic'],['left'],['inverted'],['U0014.bmp'],['male'],[],['female'],[[0]],[[9.98442993e-05]],EW
413,[[1]],[[414]],[[18]],['low holistic'],['left'],['inverted'],['U0359.bmp'],['male'],[],['male'],[[1]],[[0.0001052]],EW
414,[[1]],[[415]],[[20]],['low holistic'],['left'],['upright'],['U0362.bmp'],['male'],[],['male'],[[1]],[[1.41604053]],EW
415,[[1]],[[416]],[[17]],['low holistic'],['left'],['inverted'],['U0346.bmp'],['female'],[],['female'],[[1]],[[0.00010598]],EW
416,[[1]],[[417]],[[3]],['high holistic'],['right'],['upright'],['U0020.bmp'],['male'],[],['male'],[[1]],[[0.00010434]],EW
417,[[1]],[[418]],[[8]],['high holistic'],['right'],['inverted'],['U0137.bmp'],['female'],[],['male'],[[0]],[[9.92594287e-05]],EW
418,[[1]],[[419]],[[12]],['high holistic'],['left'],['inverted'],['U0178.bmp'],['male'],[],['male'],[[1]],[[0.08643028]],EW
419,[[1]],[[420]],[[9]],['low holistic'],['right'],['upright'],['U0155.bmp'],['male'],[],['male'],[[1]],[[9.7698532e-05]],EW
420,[[1]],[[421]],[[4]],['low holistic'],['left'],['inverted'],['U0061.bmp'],['female'],[],['male'],[[0]],[[9.95695591e-05]],EW
421,[[1]],[[422]],[[17]],['low holistic'],['left'],['upright'],['U0346.bmp'],['female'],[],['male'],[[0]],[[0.02757596]],EW
422,[[1]],[[423]],[[1]],['low holistic'],['left'],['inverted'],['U0006.bmp'],['female'],[],['female'],[[1]],[[0.00015668]],EW
423,[[1]],[[424]],[[17]],['high holistic'],['left'],['upright'],['U0346.bmp'],['male'],[],['male'],[[1]],[[0.00012038]],EW
424,[[1]],[[425]],[[10]],['low holistic'],['fovea'],['inverted'],['U0159.bmp'],['female'],[],['female'],[[1]],[[0.00010002]],EW
425,[[1]],[[426]],[[6]],['high holistic'],['right'],['upright'],['U0106.bmp'],['female'],[],['female'],[[1]],[[0.02555719]],EW
426,[[1]],[[427]],[[9]],['low holistic'],['right'],['upright'],['U0155.bmp'],['male'],[],['female'],[[0]],[[0.00010541]],EW
427,[[1]],[[428]],[[8]],['low holistic'],['left'],['inverted'],['U0137.bmp'],['male'],[],['male'],[[1]],[[0.00016869]],EW
428,[[1]],[[429]],[[2]],['low holistic'],['right'],['upright'],['U0014.bmp'],['male'],[],['male'],[[1]],[[0.00923842]],EW
429,[[1]],[[430]],[[14]],['high holistic'],['left'],['inverted'],['U0228.bmp'],['male'],[],['female'],[[0]],[[9.98023897e-05]],EW
430,[[1]],[[431]],[[5]],['high holistic'],['right'],['inverted'],['U0076.bmp'],['female'],[],['male'],[[0]],[[0.00010429]],EW
431,[[1]],[[432]],[[10]],['high holistic'],['right'],['upright'],['U0159.bmp'],['male'],[],['male'],[[1]],[[0.00016735]],EW
432,[[1]],[[433]],[[4]],['low holistic'],['right'],['inverted'],['U0061.bmp'],['female'],[],['female'],[[1]],[[0.00020204]],EW
433,[[1]],[[434]],[[15]],['high holistic'],['right'],['inverted'],['U0312.bmp'],['male'],[],['female'],[[0]],[[9.91933048e-05]],EW
434,[[1]],[[435]],[[19]],['high holistic'],['left'],['upright'],['U0361.bmp'],['female'],[],['male'],[[0]],[[0.00020311]],EW
435,[[1]],[[436]],[[15]],['low holistic'],['right'],['upright'],['U0312.bmp'],['male'],[],['female'],[[0]],[[9.80393961e-05]],EW
436,[[1]],[[437]],[[1]],['high holistic'],['left'],['upright'],['U0006.bmp'],['female'],[],['female'],[[1]],[[0.08239411]],EW
437,[[1]],[[438]],[[14]],['high holistic'],['right'],['inverted'],['U0228.bmp'],['male'],[],['male'],[[1]],[[9.86140221e-05]],EW
438,[[1]],[[439]],[[13]],['high holistic'],['right'],['upright'],['U0181.bmp'],['female'],[],['female'],[[1]],[[0.00010475]],EW
439,[[1]],[[440]],[[20]],['high holistic'],['right'],['upright'],['U0362.bmp'],['female'],[],['female'],[[1]],[[1.23893787]],EW
440,[[1]],[[441]],[[19]],['low holistic'],['right'],['upright'],['U0361.bmp'],['female'],[],['female'],[[1]],[[0.00010512]],EW
441,[[1]],[[442]],[[11]],['low holistic'],['right'],['upright'],['U0164.bmp'],['female'],[],['female'],[[1]],[[9.91960987e-05]],EW
442,[[1]],[[443]],[[3]],['high holistic'],['fovea'],['upright'],['U0020.bmp'],['male'],[],['female'],[[0]],[[1.23677703]],EW
443,[[1]],[[444]],[[13]],['high holistic'],['right'],['inverted'],['U0181.bmp'],['female'],[],['female'],[[1]],[[1.37087174]],EW
444,[[1]],[[445]],[[10]],['high holistic'],['fovea'],['inverted'],['U0159.bmp'],['male'],[],['female'],[[0]],[[0.00010673]],EW
445,[[1]],[[446]],[[11]],['high holistic'],['right'],['inverted'],['U0164.bmp'],['female'],[],['female'],[[1]],[[0.00010537]],EW
446,[[1]],[[447]],[[14]],['high holistic'],['left'],['inverted'],['U0228.bmp'],['male'],[],['female'],[[0]],[[3.04284368]],EW
447,[[1]],[[448]],[[2]],['high holistic'],['right'],['upright'],['U0014.bmp'],['male'],[],['female'],[[0]],[[1.3610867]],EW
448,[[1]],[[449]],[[6]],['high holistic'],['right'],['upright'],['U0106.bmp'],['female'],[],['male'],[[0]],[[1.6361352]],EW
449,[[1]],[[450]],[[6]],['high holistic'],['right'],['inverted'],['U0106.bmp'],['female'],[],['male'],[[0]],[[9.81297344e-05]],EW
450,[[1]],[[451]],[[11]],['high holistic'],['left'],['inverted'],['U0164.bmp'],['female'],[],['female'],[[1]],[[0.08226786]],EW
451,[[1]],[[452]],[[1]],['low holistic'],['right'],['inverted'],['U0006.bmp'],['female'],[],['female'],[[1]],[[0.00010057]],EW
452,[[1]],[[453]],[[6]],['high holistic'],['left'],['inverted'],['U0106.bmp'],['female'],[],['female'],[[1]],[[0.00480192]],EW
453,[[1]],[[454]],[[16]],['low holistic'],['left'],['upright'],['U0335.bmp'],['female'],[],['female'],[[1]],[[9.83858481e-05]],EW
454,[[1]],[[455]],[[20]],['low holistic'],['right'],['upright'],['U0362.bmp'],['male'],[],['female'],[[0]],[[0.07563382]],EW
455,[[1]],[[456]],[[19]],['high holistic'],['left'],['inverted'],['U0361.bmp'],['female'],[],['male'],[[0]],[[0.00030135]],EW
456,[[1]],[[457]],[[20]],['high holistic'],['left'],['inverted'],['U0362.bmp'],['female'],[],['female'],[[1]],[[0.00033922]],EW
457,[[1]],[[458]],[[18]],['high holistic'],['right'],['inverted'],['U0359.bmp'],['male'],[],['female'],[[0]],[[0.00025831]],EW
458,[[1]],[[459]],[[4]],['low holistic'],['left'],['inverted'],['U0061.bmp'],['female'],[],['female'],[[1]],[[0.06678945]],EW
459,[[1]],[[460]],[[20]],['high holistic'],['left'],['inverted'],['U0362.bmp'],['female'],[],['female'],[[1]],[[0.0143561]],EW
460,[[1]],[[461]],[[17]],['low holistic'],['right'],['upright'],['U0346.bmp'],['female'],[],['female'],[[1]],[[0.00010441]],EW
461,[[1]],[[462]],[[13]],['low holistic'],['left'],['inverted'],['U0181.bmp'],['male'],[],['female'],[[0]],[[9.96813178e-05]],EW
462,[[1]],[[463]],[[12]],['low holistic'],['left'],['inverted'],['U0178.bmp'],['female'],[],['male'],[[0]],[[0.10862908]],EW
463,[[1]],[[464]],[[19]],['low holistic'],['left'],['inverted'],['U0361.bmp'],['female'],[],['female'],[[1]],[[9.95732844e-05]],EW
464,[[1]],[[465]],[[17]],['low holistic'],['right'],['inverted'],['U0346.bmp'],['female'],[],['female'],[[1]],[[0.00093926]],EW
465,[[1]],[[466]],[[15]],['low holistic'],['fovea'],['inverted'],['U0312.bmp'],['male'],[],['male'],[[1]],[[12.18413359]],EW
466,[[1]],[[467]],[[5]],['high holistic'],['right'],['inverted'],['U0076.bmp'],['female'],[],['male'],[[0]],[[9.90312546e-05]],EW
467,[[1]],[[468]],[[10]],['high holistic'],['right'],['upright'],['U0159.bmp'],['male'],[],['female'],[[0]],[[1.55329159]],EW
468,[[1]],[[469]],[[3]],['low holistic'],['left'],['inverted'],['U0020.bmp'],['female'],[],['female'],[[1]],[[0.42588447]],EW
469,[[1]],[[470]],[[4]],['low holistic'],['left'],['inverted'],['U0061.bmp'],['female'],[],['female'],[[1]],[[0.00046825]],EW
470,[[1]],[[471]],[[10]],['low holistic'],['right'],['inverted'],['U0159.bmp'],['female'],[],['female'],[[1]],[[9.88803804e-05]],EW
471,[[1]],[[472]],[[19]],['low holistic'],['right'],['inverted'],['U0361.bmp'],['female'],[],['female'],[[1]],[[9.90023836e-05]],EW
472,[[1]],[[473]],[[13]],['high holistic'],['right'],['upright'],['U0181.bmp'],['female'],[],['male'],[[0]],[[0.14491798]],EW
473,[[1]],[[474]],[[3]],['low holistic'],['right'],['upright'],['U0020.bmp'],['female'],[],['female'],[[1]],[[9.86969098e-05]],EW
474,[[1]],[[475]],[[3]],['low holistic'],['left'],['inverted'],['U0020.bmp'],['female'],[],['female'],[[1]],[[1.2268397]],EW
475,[[1]],[[476]],[[8]],['low holistic'],['fovea'],['inverted'],['U0137.bmp'],['male'],[],['male'],[[1]],[[9.88114625e-05]],EW
476,[[1]],[[477]],[[3]],['low holistic'],['fovea'],['inverted'],['U0020.bmp'],['female'],[],['female'],[[1]],[[0.00048086]],EW
477,[[1]],[[478]],[[10]],['high holistic'],['right'],['upright'],['U0159.bmp'],['male'],[],['female'],[[0]],[[1.15695789]],EW
478,[[1]],[[479]],[[14]],['high holistic'],['right'],['upright'],['U0228.bmp'],['male'],[],['male'],[[1]],[[0.00038019]],EW
479,[[1]],[[480]],[[20]],['high holistic'],['left'],['upright'],['U0362.bmp'],['female'],[],['female'],[[1]],[[0.0232089]],EW
480,[[1]],[[481]],[[7]],['high holistic'],['left'],['inverted'],['U0107.bmp'],['female'],[],['female'],[[1]],[[1.33331821]],EW
481,[[1]],[[482]],[[18]],['high holistic'],['left'],['upright'],['U0359.bmp'],['male'],[],['female'],[[0]],[[1.23938948]],EW
482,[[1]],[[483]],[[9]],['low holistic'],['right'],['upright'],['U0155.bmp'],['male'],[],['male'],[[1]],[[0.31872164]],EW
483,[[1]],[[484]],[[11]],['low holistic'],['right'],['upright'],['U0164.bmp'],['female'],[],['female'],[[1]],[[0.22596549]],EW
484,[[1]],[[485]],[[9]],['high holistic'],['right'],['upright'],['U0155.bmp'],['female'],[],['female'],[[1]],[[0.45630283]],EW
485,[[1]],[[486]],[[16]],['low holistic'],['fovea'],['upright'],['U0335.bmp'],['female'],[],['female'],[[1]],[[0.40483521]],EW
486,[[1]],[[487]],[[14]],['low holistic'],['left'],['upright'],['U0228.bmp'],['male'],[],['male'],[[1]],[[0.19794916]],EW
487,[[1]],[[488]],[[14]],['high holistic'],['right'],['upright'],['U0228.bmp'],['male'],[],['male'],[[1]],[[0.16349578]],EW
488,[[1]],[[489]],[[16]],['high holistic'],['left'],['upright'],['U0335.bmp'],['female'],[],['female'],[[1]],[[0.17412696]],EW
489,[[1]],[[490]],[[7]],['high holistic'],['right'],['inverted'],['U0107.bmp'],['female'],[],['male'],[[0]],[[0.26282579]],EW
490,[[1]],[[491]],[[5]],['low holistic'],['left'],['upright'],['U0076.bmp'],['male'],[],['male'],[[1]],[[0.07459688]],EW
491,[[1]],[[492]],[[18]],['high holistic'],['right'],['upright'],['U0359.bmp'],['male'],[],['female'],[[0]],[[0.16807272]],EW
492,[[1]],[[493]],[[8]],['low holistic'],['left'],['upright'],['U0137.bmp'],['male'],[],['male'],[[1]],[[0.94570735]],EW
493,[[1]],[[494]],[[20]],['high holistic'],['right'],['inverted'],['U0362.bmp'],['female'],[],['female'],[[1]],[[0.11645702]],EW
494,[[1]],[[495]],[[20]],['low holistic'],['right'],['upright'],['U0362.bmp'],['male'],[],['male'],[[1]],[[0.1917817]],EW
495,[[1]],[[496]],[[14]],['high holistic'],['right'],['inverted'],['U0228.bmp'],['male'],[],['male'],[[1]],[[0.06342633]],EW
496,[[1]],[[497]],[[13]],['low holistic'],['left'],['upright'],['U0181.bmp'],['male'],[],['male'],[[1]],[[0.17980589]],EW
497,[[1]],[[498]],[[14]],['low holistic'],['left'],['upright'],['U0228.bmp'],['male'],[],['male'],[[1]],[[0.12501413]],EW
498,[[1]],[[499]],[[8]],['high holistic'],['left'],['upright'],['U0137.bmp'],['female'],[],['female'],[[1]],[[0.35071144]],EW
499,[[1]],[[500]],[[2]],['high holistic'],['right'],['inverted'],['U0014.bmp'],['male'],[],['female'],[[0]],[[0.34545564]],EW
500,[[1]],[[501]],[[15]],['low holistic'],['left'],['upright'],['U0312.bmp'],['male'],[],['male'],[[1]],[[0.28417653]],EW
501,[[1]],[[502]],[[18]],['low holistic'],['right'],['upright'],['U0359.bmp'],['male'],[],['male'],[[1]],[[0.79187652]],EW
502,[[1]],[[503]],[[16]],['high holistic'],['left'],['upright'],['U0335.bmp'],['female'],[],['female'],[[1]],[[0.19974676]],EW
503,[[1]],[[504]],[[17]],['high holistic'],['fovea'],['upright'],['U0346.bmp'],['male'],[],['male'],[[1]],[[0.2080605]],EW
504,[[1]],[[505]],[[8]],['high holistic'],['right'],['inverted'],['U0137.bmp'],['female'],[],['female'],[[1]],[[0.35952735]],EW
505,[[1]],[[506]],[[12]],['high holistic'],['right'],['upright'],['U0178.bmp'],['male'],[],['male'],[[1]],[[0.37778121]],EW
506,[[1]],[[507]],[[4]],['high holistic'],['right'],['upright'],['U0061.bmp'],['female'],[],['female'],[[1]],[[0.17814349]],EW
507,[[1]],[[508]],[[4]],['high holistic'],['left'],['upright'],['U0061.bmp'],['female'],[],['female'],[[1]],[[0.10675557]],EW
508,[[1]],[[509]],[[11]],['high holistic'],['left'],['upright'],['U0164.bmp'],['female'],[],['female'],[[1]],[[0.15069037]],EW
509,[[1]],[[510]],[[5]],['high holistic'],['right'],['upright'],['U0076.bmp'],['female'],[],['female'],[[1]],[[0.38447034]],EW
510,[[1]],[[511]],[[20]],['low holistic'],['right'],['inverted'],['U0362.bmp'],['male'],[],['male'],[[1]],[[0.1441869]],EW
511,[[1]],[[512]],[[15]],['low holistic'],['right'],['upright'],['U0312.bmp'],['male'],[],['male'],[[1]],[[0.08301339]],EW
512,[[1]],[[513]],[[13]],['low holistic'],['left'],['upright'],['U0181.bmp'],['male'],[],['male'],[[1]],[[0.09536188]],EW
513,[[1]],[[514]],[[12]],['high holistic'],['right'],['upright'],['U0178.bmp'],['male'],[],['male'],[[1]],[[0.06887023]],EW
514,[[1]],[[515]],[[2]],['low holistic'],['left'],['upright'],['U0014.bmp'],['male'],[],['male'],[[1]],[[0.04944558]],EW
515,[[1]],[[516]],[[15]],['low holistic'],['right'],['upright'],['U0312.bmp'],['male'],[],['male'],[[1]],[[0.0787297]],EW
516,[[1]],[[517]],[[18]],['high holistic'],['right'],['upright'],['U0359.bmp'],['male'],[],['female'],[[0]],[[0.01866086]],EW
517,[[1]],[[518]],[[7]],['high holistic'],['left'],['inverted'],['U0107.bmp'],['female'],[],['male'],[[0]],[[0.07405545]],EW
518,[[1]],[[519]],[[8]],['high holistic'],['left'],['upright'],['U0137.bmp'],['female'],[],['female'],[[1]],[[0.11160579]],EW
519,[[1]],[[520]],[[7]],['low holistic'],['left'],['inverted'],['U0107.bmp'],['female'],[],['female'],[[1]],[[0.03509541]],EW
520,[[1]],[[521]],[[3]],['low holistic'],['left'],['upright'],['U0020.bmp'],['female'],[],['female'],[[1]],[[0.10549531]],EW
521,[[1]],[[522]],[[10]],['low holistic'],['right'],['upright'],['U0159.bmp'],['female'],[],['female'],[[1]],[[9.69264656e-05]],EW
522,[[1]],[[523]],[[16]],['low holistic'],['left'],['upright'],['U0335.bmp'],['female'],[],['female'],[[1]],[[0.00037503]],EW
523,[[1]],[[524]],[[12]],['low holistic'],['right'],['upright'],['U0178.bmp'],['female'],[],['female'],[[1]],[[0.15637042]],EW
524,[[1]],[[525]],[[18]],['low holistic'],['left'],['upright'],['U0359.bmp'],['male'],[],['male'],[[1]],[[0.11770501]],EW
525,[[1]],[[526]],[[15]],['high holistic'],['right'],['inverted'],['U0312.bmp'],['male'],[],['female'],[[0]],[[0.07492712]],EW
526,[[1]],[[527]],[[15]],['high holistic'],['fovea'],['inverted'],['U0312.bmp'],['male'],[],['female'],[[0]],[[9.92733985e-05]],EW
527,[[1]],[[528]],[[11]],['high holistic'],['left'],['upright'],['U0164.bmp'],['female'],[],['female'],[[1]],[[0.000108]],EW
528,[[1]],[[529]],[[4]],['low holistic'],['right'],['inverted'],['U0061.bmp'],['female'],[],['female'],[[1]],[[0.00028163]],EW
529,[[1]],[[530]],[[16]],['high holistic'],['left'],['upright'],['U0335.bmp'],['female'],[],['female'],[[1]],[[0.00014157]],EW
530,[[1]],[[531]],[[5]],['high holistic'],['left'],['upright'],['U0076.bmp'],['female'],[],['female'],[[1]],[[0.01276695]],EW
531,[[1]],[[532]],[[15]],['high holistic'],['left'],['upright'],['U0312.bmp'],['male'],[],['female'],[[0]],[[9.90359113e-05]],EW
532,[[1]],[[533]],[[18]],['low holistic'],['right'],['inverted'],['U0359.bmp'],['male'],[],['female'],[[0]],[[0.00021669]],EW
533,[[1]],[[534]],[[18]],['low holistic'],['right'],['upright'],['U0359.bmp'],['male'],[],['female'],[[0]],[[0.00010493]],EW
534,[[1]],[[535]],[[14]],['low holistic'],['left'],['inverted'],['U0228.bmp'],['male'],[],['female'],[[0]],[[0.06845171]],EW
535,[[1]],[[536]],[[6]],['low holistic'],['left'],['upright'],['U0106.bmp'],['male'],[],['male'],[[1]],[[0.09577243]],EW
536,[[1]],[[537]],[[15]],['high holistic'],['left'],['upright'],['U0312.bmp'],['male'],[],['male'],[[1]],[[9.91560519e-05]],EW
537,[[1]],[[538]],[[10]],['low holistic'],['right'],['upright'],['U0159.bmp'],['female'],[],['female'],[[1]],[[9.82116908e-05]],EW
538,[[1]],[[539]],[[3]],['high holistic'],['right'],['inverted'],['U0020.bmp'],['male'],[],['female'],[[0]],[[0.00042658]],EW
539,[[1]],[[540]],[[4]],['high holistic'],['right'],['inverted'],['U0061.bmp'],['female'],[],['female'],[[1]],[[0.01244399]],EW
540,[[1]],[[541]],[[14]],['high holistic'],['left'],['inverted'],['U0228.bmp'],['male'],[],['male'],[[1]],[[0.00014528]],EW
541,[[1]],[[542]],[[4]],['low holistic'],['right'],['upright'],['U0061.bmp'],['female'],[],['female'],[[1]],[[0.19312412]],EW
542,[[1]],[[543]],[[5]],['low holistic'],['left'],['inverted'],['U0076.bmp'],['male'],[],['male'],[[1]],[[0.1784067]],EW
543,[[1]],[[544]],[[16]],['low holistic'],['right'],['upright'],['U0335.bmp'],['female'],[],['female'],[[1]],[[9.84985381e-05]],EW
544,[[1]],[[545]],[[11]],['low holistic'],['left'],['inverted'],['U0164.bmp'],['female'],[],['female'],[[1]],[[0.00011325]],EW
545,[[1]],[[546]],[[13]],['high holistic'],['right'],['inverted'],['U0181.bmp'],['female'],[],['female'],[[1]],[[0.00011227]],EW
546,[[1]],[[547]],[[4]],['low holistic'],['fovea'],['inverted'],['U0061.bmp'],['female'],[],['female'],[[1]],[[0.01537827]],EW
547,[[1]],[[548]],[[13]],['high holistic'],['left'],['upright'],['U0181.bmp'],['female'],[],['female'],[[1]],[[0.00015568]],EW
548,[[1]],[[549]],[[15]],['low holistic'],['right'],['inverted'],['U0312.bmp'],['male'],[],['male'],[[1]],[[1.21879249]],EW
549,[[1]],[[550]],[[8]],['high holistic'],['right'],['inverted'],['U0137.bmp'],['female'],[],['female'],[[1]],[[1.21564707]],EW
550,[[1]],[[551]],[[20]],['high holistic'],['left'],['inverted'],['U0362.bmp'],['female'],[],['female'],[[1]],[[0.26380438]],EW
551,[[1]],[[552]],[[5]],['high holistic'],['left'],['upright'],['U0076.bmp'],['female'],[],['female'],[[1]],[[0.13215539]],EW
552,[[1]],[[553]],[[19]],['low holistic'],['right'],['inverted'],['U0361.bmp'],['female'],[],['female'],[[1]],[[0.2293479]],EW
553,[[1]],[[554]],[[8]],['low holistic'],['right'],['upright'],['U0137.bmp'],['male'],[],['male'],[[1]],[[0.38821609]],EW
554,[[1]],[[555]],[[5]],['high holistic'],['left'],['upright'],['U0076.bmp'],['female'],[],['female'],[[1]],[[0.12384624]],EW
555,[[1]],[[556]],[[4]],['low holistic'],['left'],['inverted'],['U0061.bmp'],['female'],[],['female'],[[1]],[[0.20784592]],EW
556,[[1]],[[557]],[[9]],['low holistic'],['left'],['upright'],['U0155.bmp'],['male'],[],['female'],[[0]],[[0.28679139]],EW
557,[[1]],[[558]],[[9]],['high holistic'],['fovea'],['upright'],['U0155.bmp'],['female'],[],['female'],[[1]],[[0.53902307]],EW
558,[[1]],[[559]],[[2]],['low holistic'],['left'],['inverted'],['U0014.bmp'],['male'],[],['male'],[[1]],[[1.21310285]],EW
559,[[1]],[[560]],[[9]],['high holistic'],['right'],['inverted'],['U0155.bmp'],['female'],[],['female'],[[1]],[[0.38831288]],EW
560,[[1]],[[561]],[[3]],['low holistic'],['right'],['inverted'],['U0020.bmp'],['female'],[],['female'],[[1]],[[0.1338401]],EW
561,[[1]],[[562]],[[18]],['high holistic'],['right'],['inverted'],['U0359.bmp'],['male'],[],['female'],[[0]],[[0.23157972]],EW
562,[[1]],[[563]],[[8]],['low holistic'],['right'],['inverted'],['U0137.bmp'],['male'],[],['male'],[[1]],[[0.22807742]],EW
563,[[1]],[[564]],[[3]],['low holistic'],['left'],['upright'],['U0020.bmp'],['female'],[],['female'],[[1]],[[0.20307591]],EW
564,[[1]],[[565]],[[7]],['high holistic'],['left'],['inverted'],['U0107.bmp'],['female'],[],['male'],[[0]],[[0.35487796]],EW
565,[[1]],[[566]],[[14]],['high holistic'],['left'],['upright'],['U0228.bmp'],['male'],[],['male'],[[1]],[[0.05166158]],EW
566,[[1]],[[567]],[[18]],['high holistic'],['right'],['inverted'],['U0359.bmp'],['male'],[],['female'],[[0]],[[0.12153002]],EW
567,[[1]],[[568]],[[18]],['low holistic'],['right'],['inverted'],['U0359.bmp'],['male'],[],['male'],[[1]],[[0.95608246]],EW
568,[[1]],[[569]],[[4]],['low holistic'],['left'],['inverted'],['U0061.bmp'],['female'],[],['female'],[[1]],[[0.20619959]],EW
569,[[1]],[[570]],[[20]],['high holistic'],['right'],['inverted'],['U0362.bmp'],['female'],[],['female'],[[1]],[[0.56502779]],EW
570,[[1]],[[571]],[[7]],['low holistic'],['left'],['inverted'],['U0107.bmp'],['female'],[],['female'],[[1]],[[0.19174708]],EW
571,[[1]],[[572]],[[14]],['high holistic'],['left'],['inverted'],['U0228.bmp'],['male'],[],['male'],[[1]],[[0.21410432]],EW
572,[[1]],[[573]],[[13]],['high holistic'],['left'],['upright'],['U0181.bmp'],['female'],[],['female'],[[1]],[[0.21338798]],EW
573,[[1]],[[574]],[[7]],['low holistic'],['left'],['inverted'],['U0107.bmp'],['female'],[],['female'],[[1]],[[1.25173593]],EW
574,[[1]],[[575]],[[18]],['high holistic'],['left'],['upright'],['U0359.bmp'],['male'],[],['female'],[[0]],[[0.37951324]],EW
575,[[1]],[[576]],[[3]],['high holistic'],['left'],['upright'],['U0020.bmp'],['male'],[],['female'],[[0]],[[0.05930485]],EW
576,[[1]],[[577]],[[3]],['high holistic'],['right'],['upright'],['U0020.bmp'],['male'],[],['female'],[[0]],[[0.08834083]],EW
577,[[1]],[[578]],[[4]],['low holistic'],['right'],['inverted'],['U0061.bmp'],['female'],[],['female'],[[1]],[[0.00013482]],EW
578,[[1]],[[579]],[[10]],['high holistic'],['right'],['inverted'],['U0159.bmp'],['male'],[],['female'],[[0]],[[0.06043654]],EW
579,[[1]],[[580]],[[2]],['low holistic'],['left'],['upright'],['U0014.bmp'],['male'],[],['male'],[[1]],[[9.95900482e-05]],EW
580,[[1]],[[581]],[[14]],['high holistic'],['right'],['upright'],['U0228.bmp'],['male'],[],['male'],[[1]],[[0.00010652]],EW
581,[[1]],[[582]],[[16]],['high holistic'],['left'],['upright'],['U0335.bmp'],['female'],[],['female'],[[1]],[[0.10489766]],EW
582,[[1]],[[583]],[[2]],['low holistic'],['right'],['inverted'],['U0014.bmp'],['male'],[],['female'],[[0]],[[0.17150237]],EW
583,[[1]],[[584]],[[15]],['high holistic'],['right'],['inverted'],['U0312.bmp'],['male'],[],['female'],[[0]],[[0.02763107]],EW
584,[[1]],[[585]],[[16]],['high holistic'],['left'],['upright'],['U0335.bmp'],['female'],[],['female'],[[1]],[[0.13041256]],EW
585,[[1]],[[586]],[[11]],['high holistic'],['right'],['upright'],['U0164.bmp'],['female'],[],['female'],[[1]],[[0.39701676]],EW
586,[[1]],[[587]],[[16]],['high holistic'],['left'],['inverted'],['U0335.bmp'],['female'],[],['female'],[[1]],[[0.02189544]],EW
587,[[1]],[[588]],[[20]],['low holistic'],['right'],['upright'],['U0362.bmp'],['male'],[],['male'],[[1]],[[0.22815521]],EW
588,[[1]],[[589]],[[5]],['low holistic'],['right'],['inverted'],['U0076.bmp'],['male'],[],['male'],[[1]],[[0.25186573]],EW
589,[[1]],[[590]],[[9]],['high holistic'],['right'],['inverted'],['U0155.bmp'],['female'],[],['female'],[[1]],[[0.00011053]],EW
590,[[1]],[[591]],[[8]],['high holistic'],['left'],['inverted'],['U0137.bmp'],['female'],[],['female'],[[1]],[[0.08729525]],EW
591,[[1]],[[592]],[[14]],['low holistic'],['right'],['upright'],['U0228.bmp'],['male'],[],['male'],[[1]],[[0.00558083]],EW
592,[[1]],[[593]],[[20]],['low holistic'],['right'],['inverted'],['U0362.bmp'],['male'],[],['male'],[[1]],[[0.2203687]],EW
593,[[1]],[[594]],[[15]],['low holistic'],['right'],['inverted'],['U0312.bmp'],['male'],[],['male'],[[1]],[[0.01818189]],EW
594,[[1]],[[595]],[[13]],['high holistic'],['left'],['inverted'],['U0181.bmp'],['female'],[],['female'],[[1]],[[0.1220723]],EW
595,[[1]],[[596]],[[1]],['low holistic'],['fovea'],['upright'],['U0006.bmp'],['female'],[],['female'],[[1]],[[0.13095119]],EW
596,[[1]],[[597]],[[7]],['low holistic'],['right'],['inverted'],['U0107.bmp'],['female'],[],['female'],[[1]],[[0.1443088]],EW
597,[[1]],[[598]],[[19]],['high holistic'],['left'],['inverted'],['U0361.bmp'],['female'],[],['female'],[[1]],[[0.17707573]],EW
598,[[1]],[[599]],[[4]],['low holistic'],['fovea'],['inverted'],['U0061.bmp'],['female'],[],['female'],[[1]],[[0.13753098]],EW
599,[[1]],[[600]],[[4]],['low holistic'],['right'],['upright'],['U0061.bmp'],['female'],[],['female'],[[1]],[[0.01941709]],EW
600,[[1]],[[601]],[[19]],['low holistic'],['right'],['upright'],['U0361.bmp'],['female'],[],['female'],[[1]],[[0.01801074]],EW
601,[[1]],[[602]],[[20]],['low holistic'],['right'],['upright'],['U0362.bmp'],['male'],[],['male'],[[1]],[[0.25840659]],EW
602,[[1]],[[603]],[[5]],['low holistic'],['fovea'],['inverted'],['U0076.bmp'],['male'],[],['male'],[[1]],[[0.26272718]],EW
603,[[1]],[[604]],[[18]],['high holistic'],['left'],['upright'],['U0359.bmp'],['male'],[],['female'],[[0]],[[0.09291298]],EW
604,[[1]],[[605]],[[11]],['high holistic'],['fovea'],['inverted'],['U0164.bmp'],['female'],[],['female'],[[1]],[[0.00029098]],EW
605,[[1]],[[606]],[[19]],['low holistic'],['right'],['inverted'],['U0361.bmp'],['female'],[],['female'],[[1]],[[0.02258576]],EW
606,[[1]],[[607]],[[20]],['high holistic'],['left'],['inverted'],['U0362.bmp'],['female'],[],['female'],[[1]],[[0.49503135]],EW
607,[[1]],[[608]],[[8]],['low holistic'],['right'],['upright'],['U0137.bmp'],['male'],[],['male'],[[1]],[[0.21815638]],EW
608,[[1]],[[609]],[[8]],['high holistic'],['right'],['upright'],['U0137.bmp'],['female'],[],['female'],[[1]],[[0.17818055]],EW
609,[[1]],[[610]],[[16]],['high holistic'],['right'],['upright'],['U0335.bmp'],['female'],[],['female'],[[1]],[[0.8673963]],EW
610,[[1]],[[611]],[[15]],['low holistic'],['right'],['upright'],['U0312.bmp'],['male'],[],['male'],[[1]],[[0.12593124]],EW
611,[[1]],[[612]],[[2]],['low holistic'],['left'],['inverted'],['U0014.bmp'],['male'],[],['male'],[[1]],[[0.15497441]],EW
612,[[1]],[[613]],[[7]],['high holistic'],['left'],['inverted'],['U0107.bmp'],['female'],[],['female'],[[1]],[[0.16309621]],EW
613,[[1]],[[614]],[[2]],['high holistic'],['left'],['upright'],['U0014.bmp'],['male'],[],['male'],[[1]],[[0.0275936]],EW
614,[[1]],[[615]],[[16]],['low holistic'],['left'],['inverted'],['U0335.bmp'],['female'],[],['female'],[[1]],[[0.29149357]],EW
615,[[1]],[[616]],[[11]],['low holistic'],['left'],['upright'],['U0164.bmp'],['female'],[],['female'],[[1]],[[0.09467337]],EW
616,[[1]],[[617]],[[5]],['low holistic'],['right'],['inverted'],['U0076.bmp'],['male'],[],['male'],[[1]],[[0.03514672]],EW
617,[[1]],[[618]],[[5]],['high holistic'],['right'],['inverted'],['U0076.bmp'],['female'],[],['female'],[[1]],[[0.90461337]],EW
618,[[1]],[[619]],[[16]],['high holistic'],['right'],['inverted'],['U0335.bmp'],['female'],[],['female'],[[1]],[[0.06125043]],EW
619,[[1]],[[620]],[[17]],['high holistic'],['right'],['upright'],['U0346.bmp'],['male'],[],['male'],[[1]],[[0.02727808]],EW
620,[[1]],[[621]],[[17]],['high holistic'],['left'],['upright'],['U0346.bmp'],['male'],[],['male'],[[1]],[[9.69013199e-05]],EW
621,[[1]],[[622]],[[13]],['high holistic'],['left'],['upright'],['U0181.bmp'],['female'],[],['female'],[[1]],[[9.69897956e-05]],EW
622,[[1]],[[623]],[[10]],['low holistic'],['left'],['upright'],['U0159.bmp'],['female'],[],['female'],[[1]],[[0.55254033]],EW
623,[[1]],[[624]],[[10]],['high holistic'],['fovea'],['upright'],['U0159.bmp'],['male'],[],['male'],[[1]],[[0.09662758]],EW
624,[[1]],[[625]],[[4]],['high holistic'],['right'],['upright'],['U0061.bmp'],['female'],[],['female'],[[1]],[[9.92156565e-05]],EW
625,[[1]],[[626]],[[10]],['low holistic'],['left'],['upright'],['U0159.bmp'],['female'],[],['female'],[[1]],[[0.58051457]],EW
626,[[1]],[[627]],[[10]],['low holistic'],['left'],['upright'],['U0159.bmp'],['female'],[],['female'],[[1]],[[0.00040296]],EW
627,[[1]],[[628]],[[9]],['high holistic'],['left'],['upright'],['U0155.bmp'],['female'],[],['female'],[[1]],[[3.88407188]],EW
628,[[1]],[[629]],[[13]],['high holistic'],['left'],['inverted'],['U0181.bmp'],['female'],[],['female'],[[1]],[[0.05861752]],EW
629,[[1]],[[630]],[[8]],['high holistic'],['left'],['upright'],['U0137.bmp'],['female'],[],['female'],[[1]],[[0.09184221]],EW
630,[[1]],[[631]],[[1]],['low holistic'],['right'],['upright'],['U0006.bmp'],['female'],[],['female'],[[1]],[[0.00021321]],EW
631,[[1]],[[632]],[[20]],['high holistic'],['right'],['upright'],['U0362.bmp'],['female'],[],['female'],[[1]],[[0.0405276]],EW
632,[[1]],[[633]],[[12]],['low holistic'],['right'],['inverted'],['U0178.bmp'],['female'],[],['female'],[[1]],[[0.01484385]],EW
633,[[1]],[[634]],[[9]],['low holistic'],['left'],['upright'],['U0155.bmp'],['male'],[],['female'],[[0]],[[0.00011218]],EW
634,[[1]],[[635]],[[5]],['high holistic'],['right'],['inverted'],['U0076.bmp'],['female'],[],['female'],[[1]],[[0.34021259]],EW
635,[[1]],[[636]],[[8]],['high holistic'],['left'],['inverted'],['U0137.bmp'],['female'],[],['female'],[[1]],[[0.02295673]],EW
636,[[1]],[[637]],[[8]],['low holistic'],['fovea'],['upright'],['U0137.bmp'],['male'],[],['male'],[[1]],[[0.01433344]],EW
637,[[1]],[[638]],[[16]],['low holistic'],['right'],['inverted'],['U0335.bmp'],['female'],[],['female'],[[1]],[[0.10099993]],EW
638,[[1]],[[639]],[[5]],['high holistic'],['left'],['upright'],['U0076.bmp'],['female'],[],['female'],[[1]],[[0.05662104]],EW
639,[[1]],[[640]],[[19]],['high holistic'],['left'],['inverted'],['U0361.bmp'],['female'],[],['female'],[[1]],[[0.00021394]],EW
640,[[1]],[[641]],[[15]],['high holistic'],['left'],['inverted'],['U0312.bmp'],['male'],[],['female'],[[0]],[[0.00011865]],EW
641,[[1]],[[642]],[[8]],['high holistic'],['left'],['upright'],['U0137.bmp'],['female'],[],['female'],[[1]],[[9.97334719e-05]],EW
642,[[1]],[[643]],[[15]],['low holistic'],['left'],['inverted'],['U0312.bmp'],['male'],[],['female'],[[0]],[[0.00399069]],EW
643,[[1]],[[644]],[[5]],['low holistic'],['left'],['upright'],['U0076.bmp'],['male'],[],['male'],[[1]],[[1.23590981]],EW
644,[[1]],[[645]],[[5]],['low holistic'],['left'],['upright'],['U0076.bmp'],['male'],[],['male'],[[1]],[[0.00041374]],EW
645,[[1]],[[646]],[[20]],['low holistic'],['left'],['upright'],['U0362.bmp'],['male'],[],['male'],[[1]],[[0.03388808]],EW
646,[[1]],[[647]],[[18]],['high holistic'],['left'],['upright'],['U0359.bmp'],['male'],[],['male'],[[1]],[[0.00026756]],EW
647,[[1]],[[648]],[[7]],['low holistic'],['fovea'],['inverted'],['U0107.bmp'],['female'],[],['female'],[[1]],[[1.56116366]],EW
648,[[1]],[[649]],[[5]],['low holistic'],['right'],['inverted'],['U0076.bmp'],['male'],[],['female'],[[0]],[[9.86689702e-05]],EW
649,[[1]],[[650]],[[19]],['low holistic'],['fovea'],['inverted'],['U0361.bmp'],['female'],[],['female'],[[1]],[[1.22490589]],EW
650,[[1]],[[651]],[[11]],['low holistic'],['left'],['inverted'],['U0164.bmp'],['female'],[],['female'],[[1]],[[0.05100636]],EW
651,[[1]],[[652]],[[18]],['high holistic'],['right'],['inverted'],['U0359.bmp'],['male'],[],['female'],[[0]],[[1.34342753]],EW
652,[[1]],[[653]],[[6]],['low holistic'],['right'],['inverted'],['U0106.bmp'],['male'],[],['female'],[[0]],[[0.08171146]],EW
653,[[1]],[[654]],[[5]],['high holistic'],['right'],['upright'],['U0076.bmp'],['female'],[],['female'],[[1]],[[0.00010008]],EW
654,[[1]],[[655]],[[10]],['low holistic'],['right'],['upright'],['U0159.bmp'],['female'],[],['female'],[[1]],[[0.0001316]],EW
655,[[1]],[[656]],[[7]],['low holistic'],['left'],['upright'],['U0107.bmp'],['female'],[],['female'],[[1]],[[0.00010664]],EW
656,[[1]],[[657]],[[1]],['low holistic'],['left'],['inverted'],['U0006.bmp'],['female'],[],['female'],[[1]],[[1.66030718]],EW
657,[[1]],[[658]],[[18]],['high holistic'],['fovea'],['upright'],['U0359.bmp'],['male'],[],['female'],[[0]],[[0.00010672]],EW
658,[[1]],[[659]],[[11]],['low holistic'],['right'],['inverted'],['U0164.bmp'],['female'],[],['female'],[[1]],[[9.9170953e-05]],EW
659,[[1]],[[660]],[[17]],['low holistic'],['left'],['inverted'],['U0346.bmp'],['female'],[],['female'],[[1]],[[0.19333447]],EW
660,[[1]],[[661]],[[7]],['low holistic'],['right'],['upright'],['U0107.bmp'],['female'],[],['female'],[[1]],[[0.00010477]],EW
661,[[1]],[[662]],[[8]],['high holistic'],['right'],['upright'],['U0137.bmp'],['female'],[],['female'],[[1]],[[0.00016226]],EW
662,[[1]],[[663]],[[12]],['low holistic'],['right'],['inverted'],['U0178.bmp'],['female'],[],['female'],[[1]],[[1.24970977]],EW
663,[[1]],[[664]],[[5]],['high holistic'],['right'],['inverted'],['U0076.bmp'],['female'],[],['female'],[[1]],[[0.00018742]],EW
664,[[1]],[[665]],[[5]],['low holistic'],['right'],['upright'],['U0076.bmp'],['male'],[],['male'],[[1]],[[0.00019497]],EW
665,[[1]],[[666]],[[5]],['low holistic'],['left'],['inverted'],['U0076.bmp'],['male'],[],['male'],[[1]],[[0.01304818]],EW
666,[[1]],[[667]],[[6]],['low holistic'],['left'],['inverted'],['U0106.bmp'],['male'],[],['male'],[[1]],[[0.10135716]],EW
667,[[1]],[[668]],[[7]],['low holistic'],['fovea'],['upright'],['U0107.bmp'],['female'],[],['female'],[[1]],[[1.36710173]],EW
668,[[1]],[[669]],[[15]],['high holistic'],['left'],['upright'],['U0312.bmp'],['male'],[],['male'],[[1]],[[0.70400754]],EW
669,[[1]],[[670]],[[1]],['low holistic'],['left'],['upright'],['U0006.bmp'],['female'],[],['female'],[[1]],[[0.30101778]],EW
670,[[1]],[[671]],[[1]],['high holistic'],['right'],['upright'],['U0006.bmp'],['female'],[],['female'],[[1]],[[0.04842894]],EW
671,[[1]],[[672]],[[3]],['high holistic'],['left'],['upright'],['U0020.bmp'],['male'],[],['female'],[[0]],[[0.29434877]],EW
672,[[1]],[[673]],[[15]],['high holistic'],['right'],['upright'],['U0312.bmp'],['male'],[],['male'],[[1]],[[0.15292806]],EW
673,[[1]],[[674]],[[19]],['high holistic'],['left'],['inverted'],['U0361.bmp'],['female'],[],['male'],[[0]],[[0.13052729]],EW
674,[[1]],[[675]],[[9]],['low holistic'],['right'],['inverted'],['U0155.bmp'],['male'],[],['male'],[[1]],[[0.18174986]],EW
675,[[1]],[[676]],[[2]],['low holistic'],['right'],['upright'],['U0014.bmp'],['male'],[],['male'],[[1]],[[0.000276]],EW
676,[[1]],[[677]],[[8]],['high holistic'],['left'],['upright'],['U0137.bmp'],['female'],[],['female'],[[1]],[[0.17323525]],EW
677,[[1]],[[678]],[[10]],['high holistic'],['left'],['upright'],['U0159.bmp'],['male'],[],['female'],[[0]],[[0.30104699]],EW
678,[[1]],[[679]],[[8]],['high holistic'],['fovea'],['upright'],['U0137.bmp'],['female'],[],['female'],[[1]],[[0.04920531]],EW
679,[[1]],[[680]],[[14]],['high holistic'],['left'],['upright'],['U0228.bmp'],['male'],[],['male'],[[1]],[[0.0307214]],EW
680,[[1]],[[681]],[[3]],['high holistic'],['left'],['inverted'],['U0020.bmp'],['male'],[],['female'],[[0]],[[0.15755393]],EW
681,[[1]],[[682]],[[7]],['low holistic'],['right'],['inverted'],['U0107.bmp'],['female'],[],['female'],[[1]],[[0.08685995]],EW
682,[[1]],[[683]],[[16]],['low holistic'],['left'],['upright'],['U0335.bmp'],['female'],[],['female'],[[1]],[[0.2831351]],EW
683,[[1]],[[684]],[[17]],['high holistic'],['left'],['inverted'],['U0346.bmp'],['male'],[],['male'],[[1]],[[0.20718779]],EW
684,[[1]],[[685]],[[6]],['low holistic'],['fovea'],['inverted'],['U0106.bmp'],['male'],[],['male'],[[1]],[[1.0474048]],EW
685,[[1]],[[686]],[[1]],['low holistic'],['right'],['inverted'],['U0006.bmp'],['female'],[],['female'],[[1]],[[0.30040442]],EW
686,[[1]],[[687]],[[5]],['high holistic'],['left'],['upright'],['U0076.bmp'],['female'],[],['female'],[[1]],[[0.50200565]],EW
687,[[1]],[[688]],[[19]],['low holistic'],['right'],['inverted'],['U0361.bmp'],['female'],[],['female'],[[1]],[[0.22132953]],EW
688,[[1]],[[689]],[[11]],['low holistic'],['right'],['upright'],['U0164.bmp'],['female'],[],['female'],[[1]],[[0.09879886]],EW
689,[[1]],[[690]],[[15]],['low holistic'],['left'],['inverted'],['U0312.bmp'],['male'],[],['male'],[[1]],[[0.09433403]],EW
690,[[1]],[[691]],[[10]],['high holistic'],['left'],['upright'],['U0159.bmp'],['male'],[],['female'],[[0]],[[0.60230839]],EW
691,[[1]],[[692]],[[3]],['low holistic'],['right'],['upright'],['U0020.bmp'],['female'],[],['female'],[[1]],[[0.09769543]],EW
692,[[1]],[[693]],[[6]],['low holistic'],['left'],['inverted'],['U0106.bmp'],['male'],[],['female'],[[0]],[[0.02958085]],EW
693,[[1]],[[694]],[[18]],['high holistic'],['right'],['inverted'],['U0359.bmp'],['male'],[],['male'],[[1]],[[0.37124886]],EW
694,[[1]],[[695]],[[18]],['high holistic'],['left'],['inverted'],['U0359.bmp'],['male'],[],['female'],[[0]],[[0.19666786]],EW
695,[[1]],[[696]],[[5]],['low holistic'],['left'],['inverted'],['U0076.bmp'],['male'],[],['male'],[[1]],[[0.21992608]],EW
696,[[1]],[[697]],[[6]],['low holistic'],['right'],['upright'],['U0106.bmp'],['male'],[],['female'],[[0]],[[0.37922287]],EW
697,[[1]],[[698]],[[11]],['high holistic'],['right'],['upright'],['U0164.bmp'],['female'],[],['female'],[[1]],[[0.05167328]],EW
698,[[1]],[[699]],[[11]],['high holistic'],['left'],['inverted'],['U0164.bmp'],['female'],[],['female'],[[1]],[[0.12856953]],EW
699,[[1]],[[700]],[[1]],['high holistic'],['left'],['upright'],['U0006.bmp'],['female'],[],['female'],[[1]],[[0.00010809]],EW
700,[[1]],[[701]],[[19]],['low holistic'],['left'],['inverted'],['U0361.bmp'],['female'],[],['female'],[[1]],[[0.20390684]],EW
701,[[1]],[[702]],[[12]],['low holistic'],['left'],['inverted'],['U0178.bmp'],['female'],[],['female'],[[1]],[[0.1884696]],EW
702,[[1]],[[703]],[[8]],['high holistic'],['right'],['upright'],['U0137.bmp'],['female'],[],['female'],[[1]],[[0.28397323]],EW
703,[[1]],[[704]],[[6]],['low holistic'],['right'],['upright'],['U0106.bmp'],['male'],[],['female'],[[0]],[[0.41566494]],EW
704,[[1]],[[705]],[[5]],['low holistic'],['left'],['inverted'],['U0076.bmp'],['male'],[],['male'],[[1]],[[0.03115441]],EW
705,[[1]],[[706]],[[18]],['high holistic'],['right'],['upright'],['U0359.bmp'],['male'],[],['female'],[[0]],[[0.07803941]],EW
706,[[1]],[[707]],[[7]],['high holistic'],['right'],['upright'],['U0107.bmp'],['female'],[],['male'],[[0]],[[0.25781615]],EW
707,[[1]],[[708]],[[10]],['high holistic'],['left'],['inverted'],['U0159.bmp'],['male'],[],['female'],[[0]],[[0.14328127]],EW
708,[[1]],[[709]],[[5]],['high holistic'],['left'],['upright'],['U0076.bmp'],['female'],[],['female'],[[1]],[[1.34529001]],EW
709,[[1]],[[710]],[[18]],['high holistic'],['right'],['inverted'],['U0359.bmp'],['male'],[],['female'],[[0]],[[0.20291579]],EW
710,[[1]],[[711]],[[9]],['low holistic'],['left'],['upright'],['U0155.bmp'],['male'],[],['male'],[[1]],[[0.18031098]],EW
711,[[1]],[[712]],[[11]],['high holistic'],['left'],['upright'],['U0164.bmp'],['female'],[],['female'],[[1]],[[0.2523899]],EW
712,[[1]],[[713]],[[14]],['low holistic'],['left'],['upright'],['U0228.bmp'],['male'],[],['male'],[[1]],[[0.04015938]],EW
713,[[1]],[[714]],[[16]],['high holistic'],['left'],['upright'],['U0335.bmp'],['female'],[],['female'],[[1]],[[0.2789168]],EW
714,[[1]],[[715]],[[2]],['low holistic'],['left'],['upright'],['U0014.bmp'],['male'],[],['male'],[[1]],[[0.1631015]],EW
715,[[1]],[[716]],[[20]],['high holistic'],['left'],['upright'],['U0362.bmp'],['female'],[],['female'],[[1]],[[0.1876651]],EW
716,[[1]],[[717]],[[11]],['high holistic'],['left'],['inverted'],['U0164.bmp'],['female'],[],['female'],[[1]],[[1.2126224]],EW
717,[[1]],[[718]],[[10]],['high holistic'],['fovea'],['upright'],['U0159.bmp'],['male'],[],['male'],[[1]],[[0.07604031]],EW
718,[[1]],[[719]],[[2]],['high holistic'],['left'],['inverted'],['U0014.bmp'],['male'],[],['female'],[[0]],[[0.30452643]],EW
719,[[1]],[[720]],[[20]],['low holistic'],['right'],['upright'],['U0362.bmp'],['male'],[],['male'],[[1]],[[0.20462894]],EW
720,[[1]],[[721]],[[16]],['low holistic'],['left'],['upright'],['U0335.bmp'],['female'],[],['female'],[[1]],[[0.18697358]],EW
721,[[1]],[[722]],[[10]],['low holistic'],['left'],['inverted'],['U0159.bmp'],['female'],[],['male'],[[0]],[[0.36428503]],EW
722,[[1]],[[723]],[[16]],['high holistic'],['left'],['inverted'],['U0335.bmp'],['female'],[],['female'],[[1]],[[0.23623907]],EW
723,[[1]],[[724]],[[20]],['low holistic'],['right'],['inverted'],['U0362.bmp'],['male'],[],['male'],[[1]],[[0.13934486]],EW
724,[[1]],[[725]],[[17]],['low holistic'],['right'],['inverted'],['U0346.bmp'],['female'],[],['female'],[[1]],[[0.30046554]],EW
725,[[1]],[[726]],[[16]],['low holistic'],['left'],['inverted'],['U0335.bmp'],['female'],[],['female'],[[1]],[[0.11163916]],EW
726,[[1]],[[727]],[[7]],['low holistic'],['left'],['inverted'],['U0107.bmp'],['female'],[],['female'],[[1]],[[0.00415559]],EW
727,[[1]],[[728]],[[17]],['high holistic'],['right'],['inverted'],['U0346.bmp'],['male'],[],['female'],[[0]],[[0.05074946]],EW
728,[[1]],[[729]],[[3]],['high holistic'],['left'],['inverted'],['U0020.bmp'],['male'],[],['female'],[[0]],[[0.16207033]],EW
729,[[1]],[[730]],[[8]],['high holistic'],['fovea'],['upright'],['U0137.bmp'],['female'],[],['female'],[[1]],[[0.08197273]],EW
730,[[1]],[[731]],[[17]],['low holistic'],['fovea'],['upright'],['U0346.bmp'],['female'],[],['female'],[[1]],[[9.95211303e-05]],EW
731,[[1]],[[732]],[[4]],['high holistic'],['fovea'],['inverted'],['U0061.bmp'],['female'],[],['female'],[[1]],[[0.00027412]],EW
732,[[1]],[[733]],[[2]],['high holistic'],['right'],['inverted'],['U0014.bmp'],['male'],[],['female'],[[0]],[[0.04629205]],EW
733,[[1]],[[734]],[[20]],['high holistic'],['left'],['inverted'],['U0362.bmp'],['female'],[],['female'],[[1]],[[0.00010733]],EW
734,[[1]],[[735]],[[10]],['low holistic'],['left'],['upright'],['U0159.bmp'],['female'],[],['female'],[[1]],[[0.00011336]],EW
735,[[1]],[[736]],[[9]],['high holistic'],['left'],['upright'],['U0155.bmp'],['female'],[],['female'],[[1]],[[1.42725555]],EW
736,[[1]],[[737]],[[7]],['high holistic'],['right'],['inverted'],['U0107.bmp'],['female'],[],['female'],[[1]],[[0.1226207]],EW
737,[[1]],[[738]],[[7]],['low holistic'],['fovea'],['upright'],['U0107.bmp'],['female'],[],['female'],[[1]],[[1.31559506]],EW
738,[[1]],[[739]],[[2]],['low holistic'],['left'],['upright'],['U0014.bmp'],['male'],[],['male'],[[1]],[[0.17387399]],EW
739,[[1]],[[740]],[[2]],['low holistic'],['left'],['inverted'],['U0014.bmp'],['male'],[],['male'],[[1]],[[0.15911563]],EW
740,[[1]],[[741]],[[16]],['high holistic'],['left'],['inverted'],['U0335.bmp'],['female'],[],['female'],[[1]],[[0.01692802]],EW
741,[[1]],[[742]],[[2]],['low holistic'],['right'],['inverted'],['U0014.bmp'],['male'],[],['female'],[[0]],[[0.08823102]],EW
742,[[1]],[[743]],[[18]],['high holistic'],['right'],['inverted'],['U0359.bmp'],['male'],[],['female'],[[0]],[[0.00011053]],EW
743,[[1]],[[744]],[[19]],['low holistic'],['right'],['upright'],['U0361.bmp'],['female'],[],['female'],[[1]],[[9.93646681e-05]],EW
744,[[1]],[[745]],[[7]],['low holistic'],['left'],['upright'],['U0107.bmp'],['female'],[],['female'],[[1]],[[9.81725752e-05]],EW
745,[[1]],[[746]],[[6]],['low holistic'],['right'],['upright'],['U0106.bmp'],['male'],[],['female'],[[0]],[[0.00025984]],EW
746,[[1]],[[747]],[[20]],['high holistic'],['right'],['upright'],['U0362.bmp'],['female'],[],['female'],[[1]],[[0.00015854]],EW
747,[[1]],[[748]],[[16]],['high holistic'],['left'],['upright'],['U0335.bmp'],['female'],[],['female'],[[1]],[[0.00011272]],EW
748,[[1]],[[749]],[[8]],['low holistic'],['right'],['upright'],['U0137.bmp'],['male'],[],['male'],[[1]],[[1.41979784]],EW
749,[[1]],[[750]],[[12]],['low holistic'],['right'],['inverted'],['U0178.bmp'],['female'],[],['female'],[[1]],[[0.00012397]],EW
750,[[1]],[[751]],[[8]],['high holistic'],['left'],['upright'],['U0137.bmp'],['female'],[],['female'],[[1]],[[0.00010004]],EW
751,[[1]],[[752]],[[19]],['low holistic'],['right'],['inverted'],['U0361.bmp'],['female'],[],['female'],[[1]],[[0.00024074]],EW
752,[[1]],[[753]],[[6]],['high holistic'],['right'],['upright'],['U0106.bmp'],['female'],[],['female'],[[1]],[[0.0080631]],EW
753,[[1]],[[754]],[[6]],['low holistic'],['left'],['upright'],['U0106.bmp'],['male'],[],['male'],[[1]],[[0.02326897]],EW
754,[[1]],[[755]],[[1]],['high holistic'],['right'],['upright'],['U0006.bmp'],['female'],[],['female'],[[1]],[[9.86913219e-05]],EW
755,[[1]],[[756]],[[9]],['high holistic'],['fovea'],['inverted'],['U0155.bmp'],['female'],[],['male'],[[0]],[[0.0129114]],EW
756,[[1]],[[757]],[[2]],['low holistic'],['right'],['inverted'],['U0014.bmp'],['male'],[],['male'],[[1]],[[0.00057219]],EW
757,[[1]],[[758]],[[2]],['low holistic'],['fovea'],['upright'],['U0014.bmp'],['male'],[],['male'],[[1]],[[0.0004039]],EW
758,[[1]],[[759]],[[7]],['low holistic'],['left'],['inverted'],['U0107.bmp'],['female'],[],['female'],[[1]],[[0.00010404]],EW
759,[[1]],[[760]],[[19]],['high holistic'],['left'],['upright'],['U0361.bmp'],['female'],[],['female'],[[1]],[[9.90638509e-05]],EW
760,[[1]],[[761]],[[15]],['low holistic'],['right'],['inverted'],['U0312.bmp'],['male'],[],['male'],[[1]],[[0.00010902]],EW
761,[[1]],[[762]],[[13]],['low holistic'],['right'],['inverted'],['U0181.bmp'],['male'],[],['male'],[[1]],[[9.80598852e-05]],EW
762,[[1]],[[763]],[[4]],['high holistic'],['right'],['inverted'],['U0061.bmp'],['female'],[],['male'],[[0]],[[1.12353011]],EW
763,[[1]],[[764]],[[8]],['low holistic'],['left'],['inverted'],['U0137.bmp'],['male'],[],['female'],[[0]],[[0.10073815]],EW
764,[[1]],[[765]],[[18]],['low holistic'],['right'],['inverted'],['U0359.bmp'],['male'],[],['female'],[[0]],[[0.29794708]],EW
765,[[1]],[[766]],[[14]],['high holistic'],['left'],['inverted'],['U0228.bmp'],['male'],[],['male'],[[1]],[[1.19972014]],EW
766,[[1]],[[767]],[[8]],['low holistic'],['left'],['inverted'],['U0137.bmp'],['male'],[],['male'],[[1]],[[0.00011158]],EW
767,[[1]],[[768]],[[5]],['low holistic'],['left'],['upright'],['U0076.bmp'],['male'],[],['male'],[[1]],[[0.20661101]],EW
768,[[1]],[[769]],[[15]],['high holistic'],['right'],['inverted'],['U0312.bmp'],['male'],[],['female'],[[0]],[[0.11798935]],EW
769,[[1]],[[770]],[[18]],['low holistic'],['right'],['inverted'],['U0359.bmp'],['male'],[],['female'],[[0]],[[0.00037385]],EW
770,[[1]],[[771]],[[9]],['low holistic'],['right'],['inverted'],['U0155.bmp'],['male'],[],['female'],[[0]],[[9.92501155e-05]],EW
771,[[1]],[[772]],[[13]],['high holistic'],['left'],['inverted'],['U0181.bmp'],['female'],[],['female'],[[1]],[[0.0001044]],EW
772,[[1]],[[773]],[[8]],['high holistic'],['right'],['inverted'],['U0137.bmp'],['female'],[],['female'],[[1]],[[9.90070403e-05]],EW
773,[[1]],[[774]],[[8]],['low holistic'],['right'],['inverted'],['U0137.bmp'],['male'],[],['male'],[[1]],[[2.38461101]],EW
774,[[1]],[[775]],[[2]],['low holistic'],['left'],['upright'],['U0014.bmp'],['male'],[],['male'],[[1]],[[9.83634964e-05]],EW
775,[[1]],[[776]],[[4]],['low holistic'],['right'],['upright'],['U0061.bmp'],['female'],[],['male'],[[0]],[[0.00021309]],EW
776,[[1]],[[777]],[[11]],['low holistic'],['right'],['upright'],['U0164.bmp'],['female'],[],['female'],[[1]],[[0.03044351]],EW
777,[[1]],[[778]],[[12]],['low holistic'],['right'],['inverted'],['U0178.bmp'],['female'],[],['female'],[[1]],[[0.39665658]],EW
778,[[1]],[[779]],[[11]],['high holistic'],['left'],['inverted'],['U0164.bmp'],['female'],[],['female'],[[1]],[[0.14895781]],EW
779,[[1]],[[780]],[[6]],['low holistic'],['right'],['inverted'],['U0106.bmp'],['male'],[],['male'],[[1]],[[0.11914789]],EW
780,[[1]],[[781]],[[11]],['low holistic'],['right'],['inverted'],['U0164.bmp'],['female'],[],['female'],[[1]],[[0.00042775]],EW
781,[[1]],[[782]],[[7]],['low holistic'],['left'],['inverted'],['U0107.bmp'],['female'],[],['female'],[[1]],[[9.99914482e-05]],EW
782,[[1]],[[783]],[[17]],['high holistic'],['left'],['upright'],['U0346.bmp'],['male'],[],['male'],[[1]],[[0.00010096]],EW
783,[[1]],[[784]],[[4]],['low holistic'],['fovea'],['upright'],['U0061.bmp'],['female'],[],['female'],[[1]],[[9.98545438e-05]],EW
784,[[1]],[[785]],[[6]],['high holistic'],['left'],['upright'],['U0106.bmp'],['female'],[],['female'],[[1]],[[0.00017107]],EW
785,[[1]],[[786]],[[12]],['high holistic'],['right'],['upright'],['U0178.bmp'],['male'],[],['male'],[[1]],[[0.2335158]],EW
786,[[1]],[[787]],[[18]],['low holistic'],['right'],['upright'],['U0359.bmp'],['male'],[],['male'],[[1]],[[0.38107811]],EW
787,[[1]],[[788]],[[20]],['low holistic'],['right'],['upright'],['U0362.bmp'],['male'],[],['male'],[[1]],[[0.00048978]],EW
788,[[1]],[[789]],[[7]],['high holistic'],['right'],['inverted'],['U0107.bmp'],['female'],[],['female'],[[1]],[[0.00010988]],EW
789,[[1]],[[790]],[[8]],['low holistic'],['right'],['upright'],['U0137.bmp'],['male'],[],['male'],[[1]],[[0.03802559]],EW
790,[[1]],[[791]],[[18]],['high holistic'],['left'],['inverted'],['U0359.bmp'],['male'],[],['female'],[[0]],[[9.91225243e-05]],EW
791,[[1]],[[792]],[[18]],['low holistic'],['left'],['inverted'],['U0359.bmp'],['male'],[],['female'],[[0]],[[0.00011803]],EW
792,[[1]],[[793]],[[3]],['low holistic'],['left'],['upright'],['U0020.bmp'],['female'],[],['female'],[[1]],[[9.76221636e-05]],EW
793,[[1]],[[794]],[[14]],['low holistic'],['left'],['upright'],['U0228.bmp'],['male'],[],['male'],[[1]],[[0.09093424]],EW
794,[[1]],[[795]],[[10]],['high holistic'],['left'],['upright'],['U0159.bmp'],['male'],[],['female'],[[0]],[[0.13573659]],EW
