,SUBID,TRIAL,MOONEYID,MOONEYCATEGORY,LOC,COND,MOONEY_NAME,MOONEY_GENDER,ECCENTRICITY,RESPONSE,ACCURACY,RT,SUBINIT
0,[[20]],[[1]],[[9]],['low holistic'],['right'],['upright'],['U0155.bmp'],['male'],[[4]],['male'],[[1]],[[1.10715579]],GHA
1,[[20]],[[2]],[[15]],['high holistic'],['left'],['upright'],['U0312.bmp'],['male'],[[12]],['male'],[[1]],[[0.51806719]],GHA
2,[[20]],[[3]],[[13]],['high holistic'],['left'],['inverted'],['U0181.bmp'],['female'],[[2]],['male'],[[0]],[[0.82639448]],GHA
3,[[20]],[[4]],[[13]],['high holistic'],['right'],['upright'],['U0181.bmp'],['female'],[[12]],['female'],[[1]],[[0.45767591]],GHA
4,[[20]],[[5]],[[3]],['high holistic'],['left'],['inverted'],['U0020.bmp'],['male'],[[4]],['female'],[[0]],[[0.51169037]],GHA
5,[[20]],[[6]],[[8]],['high holistic'],['right'],['inverted'],['U0137.bmp'],['female'],[[10]],['female'],[[1]],[[1.45162572]],GHA
6,[[20]],[[7]],[[19]],['low holistic'],['left'],['inverted'],['U0361.bmp'],['female'],[[2]],['female'],[[1]],[[0.5446615]],GHA
7,[[20]],[[8]],[[2]],['low holistic'],['right'],['upright'],['U0014.bmp'],['male'],[[4]],['male'],[[1]],[[0.41091389]],GHA
8,[[20]],[[9]],[[6]],['low holistic'],['right'],['upright'],['U0106.bmp'],['male'],[[12]],['female'],[[0]],[[0.80397389]],GHA
9,[[20]],[[10]],[[20]],['high holistic'],['left'],['inverted'],['U0362.bmp'],['female'],[[4]],['male'],[[0]],[[0.69199882]],GHA
10,[[20]],[[11]],[[11]],['high holistic'],['right'],['inverted'],['U0164.bmp'],['female'],[[12]],['female'],[[1]],[[1.07201763]],GHA
11,[[20]],[[12]],[[13]],['low holistic'],['left'],['inverted'],['U0181.bmp'],['male'],[[2]],['male'],[[1]],[[0.76596054]],GHA
12,[[20]],[[13]],[[8]],['low holistic'],['left'],['inverted'],['U0137.bmp'],['male'],[[10]],['male'],[[1]],[[1.11085565]],GHA
13,[[20]],[[14]],[[3]],['high holistic'],['right'],['upright'],['U0020.bmp'],['male'],[[4]],['female'],[[0]],[[0.56307194]],GHA
14,[[20]],[[15]],[[13]],['high holistic'],['left'],['upright'],['U0181.bmp'],['female'],[[4]],['female'],[[1]],[[0.91642628]],GHA
15,[[20]],[[16]],[[9]],['low holistic'],['left'],['upright'],['U0155.bmp'],['male'],[[8]],['male'],[[1]],[[0.44805606]],GHA
16,[[20]],[[17]],[[16]],['low holistic'],['right'],['inverted'],['U0335.bmp'],['female'],[[12]],['male'],[[0]],[[0.93513534]],GHA
17,[[20]],[[18]],[[1]],['high holistic'],['right'],['upright'],['U0006.bmp'],['female'],[[6]],['female'],[[1]],[[0.5378106]],GHA
18,[[20]],[[19]],[[20]],['high holistic'],['right'],['inverted'],['U0362.bmp'],['female'],[[2]],['female'],[[1]],[[0.89937323]],GHA
19,[[20]],[[20]],[[6]],['high holistic'],['fovea'],['upright'],['U0106.bmp'],['female'],[[0]],['female'],[[1]],[[0.44873656]],GHA
20,[[20]],[[21]],[[3]],['low holistic'],['left'],['upright'],['U0020.bmp'],['female'],[[12]],['female'],[[1]],[[0.55002974]],GHA
21,[[20]],[[22]],[[20]],['high holistic'],['fovea'],['inverted'],['U0362.bmp'],['female'],[[0]],['male'],[[0]],[[0.56853331]],GHA
22,[[20]],[[23]],[[11]],['high holistic'],['right'],['upright'],['U0164.bmp'],['female'],[[8]],['female'],[[1]],[[0.37023127]],GHA
23,[[20]],[[24]],[[20]],['low holistic'],['left'],['upright'],['U0362.bmp'],['male'],[[2]],['male'],[[1]],[[0.65055933]],GHA
24,[[20]],[[25]],[[17]],['high holistic'],['right'],['inverted'],['U0346.bmp'],['male'],[[6]],['female'],[[0]],[[0.60024449]],GHA
25,[[20]],[[26]],[[20]],['high holistic'],['left'],['inverted'],['U0362.bmp'],['female'],[[8]],['male'],[[0]],[[1.25052819]],GHA
26,[[20]],[[27]],[[14]],['high holistic'],['right'],['upright'],['U0228.bmp'],['male'],[[2]],['male'],[[1]],[[0.55146224]],GHA
27,[[20]],[[28]],[[10]],['low holistic'],['left'],['inverted'],['U0159.bmp'],['female'],[[6]],['female'],[[1]],[[0.24989044]],GHA
28,[[20]],[[29]],[[5]],['low holistic'],['left'],['inverted'],['U0076.bmp'],['male'],[[12]],['female'],[[0]],[[0.82606148]],GHA
29,[[20]],[[30]],[[5]],['high holistic'],['right'],['inverted'],['U0076.bmp'],['female'],[[4]],['female'],[[1]],[[2.08865904]],GHA
30,[[20]],[[31]],[[19]],['low holistic'],['fovea'],['upright'],['U0361.bmp'],['female'],[[0]],['female'],[[1]],[[0.63684177]],GHA
31,[[20]],[[32]],[[12]],['high holistic'],['left'],['upright'],['U0178.bmp'],['male'],[[10]],['male'],[[1]],[[0.42776839]],GHA
32,[[20]],[[33]],[[14]],['high holistic'],['right'],['inverted'],['U0228.bmp'],['male'],[[8]],['female'],[[0]],[[0.60289125]],GHA
33,[[20]],[[34]],[[15]],['low holistic'],['right'],['inverted'],['U0312.bmp'],['male'],[[2]],['male'],[[1]],[[0.46534302]],GHA
34,[[20]],[[35]],[[14]],['high holistic'],['left'],['upright'],['U0228.bmp'],['male'],[[8]],['male'],[[1]],[[0.40669348]],GHA
35,[[20]],[[36]],[[20]],['high holistic'],['left'],['inverted'],['U0362.bmp'],['female'],[[8]],['female'],[[1]],[[0.96815594]],GHA
36,[[20]],[[37]],[[6]],['low holistic'],['left'],['inverted'],['U0106.bmp'],['male'],[[10]],['male'],[[1]],[[0.6014599]],GHA
37,[[20]],[[38]],[[2]],['high holistic'],['right'],['upright'],['U0014.bmp'],['male'],[[12]],['male'],[[1]],[[1.10494942]],GHA
38,[[20]],[[39]],[[13]],['high holistic'],['left'],['inverted'],['U0181.bmp'],['female'],[[6]],['male'],[[0]],[[0.91758233]],GHA
39,[[20]],[[40]],[[5]],['high holistic'],['right'],['inverted'],['U0076.bmp'],['female'],[[6]],['male'],[[0]],[[0.49534801]],GHA
40,[[20]],[[41]],[[18]],['high holistic'],['right'],['upright'],['U0359.bmp'],['male'],[[4]],['female'],[[0]],[[0.32488115]],GHA
41,[[20]],[[42]],[[3]],['high holistic'],['left'],['upright'],['U0020.bmp'],['male'],[[10]],['female'],[[0]],[[0.43022972]],GHA
42,[[20]],[[43]],[[19]],['low holistic'],['right'],['upright'],['U0361.bmp'],['female'],[[12]],['female'],[[1]],[[0.37228792]],GHA
43,[[20]],[[44]],[[1]],['high holistic'],['left'],['upright'],['U0006.bmp'],['female'],[[6]],['female'],[[1]],[[0.36706316]],GHA
44,[[20]],[[45]],[[11]],['low holistic'],['left'],['inverted'],['U0164.bmp'],['female'],[[12]],['female'],[[1]],[[0.5600972]],GHA
45,[[20]],[[46]],[[10]],['high holistic'],['right'],['inverted'],['U0159.bmp'],['male'],[[8]],['female'],[[0]],[[0.3528556]],GHA
46,[[20]],[[47]],[[18]],['high holistic'],['right'],['upright'],['U0359.bmp'],['male'],[[4]],['female'],[[0]],[[0.19559539]],GHA
47,[[20]],[[48]],[[7]],['high holistic'],['right'],['inverted'],['U0107.bmp'],['female'],[[4]],['female'],[[1]],[[4.36401487]],GHA
48,[[20]],[[49]],[[18]],['low holistic'],['left'],['upright'],['U0359.bmp'],['male'],[[10]],['male'],[[1]],[[0.43678595]],GHA
49,[[20]],[[50]],[[4]],['high holistic'],['left'],['inverted'],['U0061.bmp'],['female'],[[8]],['female'],[[1]],[[0.60373081]],GHA
50,[[20]],[[51]],[[5]],['low holistic'],['left'],['inverted'],['U0076.bmp'],['male'],[[10]],['male'],[[1]],[[0.53917457]],GHA
51,[[20]],[[52]],[[3]],['low holistic'],['left'],['upright'],['U0020.bmp'],['female'],[[10]],['female'],[[1]],[[0.4292489]],GHA
52,[[20]],[[53]],[[10]],['low holistic'],['fovea'],['inverted'],['U0159.bmp'],['female'],[[0]],['female'],[[1]],[[0.47560679]],GHA
53,[[20]],[[54]],[[18]],['high holistic'],['right'],['upright'],['U0359.bmp'],['male'],[[6]],['female'],[[0]],[[1.10634253]],GHA
54,[[20]],[[55]],[[3]],['low holistic'],['right'],['upright'],['U0020.bmp'],['female'],[[12]],['female'],[[1]],[[0.74221022]],GHA
55,[[20]],[[56]],[[20]],['high holistic'],['fovea'],['inverted'],['U0362.bmp'],['female'],[[0]],['male'],[[0]],[[0.63237349]],GHA
56,[[20]],[[57]],[[16]],['high holistic'],['right'],['upright'],['U0335.bmp'],['female'],[[8]],['female'],[[1]],[[0.47034994]],GHA
57,[[20]],[[58]],[[20]],['high holistic'],['left'],['upright'],['U0362.bmp'],['female'],[[4]],['female'],[[1]],[[0.65109989]],GHA
58,[[20]],[[59]],[[1]],['low holistic'],['left'],['upright'],['U0006.bmp'],['female'],[[8]],['female'],[[1]],[[0.40102687]],GHA
59,[[20]],[[60]],[[10]],['low holistic'],['right'],['inverted'],['U0159.bmp'],['female'],[[6]],['female'],[[1]],[[0.52913056]],GHA
60,[[20]],[[61]],[[5]],['high holistic'],['left'],['upright'],['U0076.bmp'],['female'],[[6]],['female'],[[1]],[[0.36432763]],GHA
61,[[20]],[[62]],[[6]],['high holistic'],['right'],['inverted'],['U0106.bmp'],['female'],[[10]],['female'],[[1]],[[0.63738636]],GHA
62,[[20]],[[63]],[[17]],['high holistic'],['right'],['upright'],['U0346.bmp'],['male'],[[8]],['male'],[[1]],[[0.32474288]],GHA
63,[[20]],[[64]],[[2]],['high holistic'],['right'],['inverted'],['U0014.bmp'],['male'],[[2]],['male'],[[1]],[[0.35894637]],GHA
64,[[20]],[[65]],[[1]],['low holistic'],['left'],['upright'],['U0006.bmp'],['female'],[[8]],['female'],[[1]],[[0.24962696]],GHA
65,[[20]],[[66]],[[4]],['low holistic'],['fovea'],['inverted'],['U0061.bmp'],['female'],[[0]],['female'],[[1]],[[0.32613316]],GHA
66,[[20]],[[67]],[[14]],['low holistic'],['left'],['inverted'],['U0228.bmp'],['male'],[[12]],['female'],[[0]],[[0.98662391]],GHA
67,[[20]],[[68]],[[13]],['low holistic'],['right'],['upright'],['U0181.bmp'],['male'],[[12]],['male'],[[1]],[[0.21823847]],GHA
68,[[20]],[[69]],[[11]],['high holistic'],['fovea'],['inverted'],['U0164.bmp'],['female'],[[0]],['female'],[[1]],[[0.3686507]],GHA
69,[[20]],[[70]],[[15]],['low holistic'],['left'],['inverted'],['U0312.bmp'],['male'],[[10]],['male'],[[1]],[[0.13904427]],GHA
70,[[20]],[[71]],[[13]],['low holistic'],['right'],['inverted'],['U0181.bmp'],['male'],[[12]],['male'],[[1]],[[0.83741485]],GHA
71,[[20]],[[72]],[[16]],['low holistic'],['left'],['upright'],['U0335.bmp'],['female'],[[12]],['female'],[[1]],[[0.29931254]],GHA
72,[[20]],[[73]],[[15]],['high holistic'],['left'],['upright'],['U0312.bmp'],['male'],[[8]],['male'],[[1]],[[0.27112411]],GHA
73,[[20]],[[74]],[[2]],['low holistic'],['right'],['inverted'],['U0014.bmp'],['male'],[[2]],['male'],[[1]],[[0.29355126]],GHA
74,[[20]],[[75]],[[19]],['high holistic'],['right'],['inverted'],['U0361.bmp'],['female'],[[6]],['male'],[[0]],[[1.0171563]],GHA
75,[[20]],[[76]],[[5]],['low holistic'],['left'],['upright'],['U0076.bmp'],['male'],[[10]],['male'],[[1]],[[0.30535738]],GHA
76,[[20]],[[77]],[[15]],['low holistic'],['left'],['upright'],['U0312.bmp'],['male'],[[4]],['male'],[[1]],[[0.13392435]],GHA
77,[[20]],[[78]],[[18]],['high holistic'],['right'],['upright'],['U0359.bmp'],['male'],[[8]],['male'],[[1]],[[0.19958678]],GHA
78,[[20]],[[79]],[[5]],['high holistic'],['right'],['upright'],['U0076.bmp'],['female'],[[6]],['female'],[[1]],[[0.23046407]],GHA
79,[[20]],[[80]],[[7]],['low holistic'],['right'],['upright'],['U0107.bmp'],['female'],[[4]],['female'],[[1]],[[0.12599093]],GHA
80,[[20]],[[81]],[[6]],['low holistic'],['left'],['upright'],['U0106.bmp'],['male'],[[8]],['male'],[[1]],[[0.18480241]],GHA
81,[[20]],[[82]],[[1]],['high holistic'],['right'],['upright'],['U0006.bmp'],['female'],[[6]],['female'],[[1]],[[0.21730946]],GHA
82,[[20]],[[83]],[[17]],['low holistic'],['right'],['inverted'],['U0346.bmp'],['female'],[[6]],['female'],[[1]],[[0.61629661]],GHA
83,[[20]],[[84]],[[2]],['low holistic'],['right'],['inverted'],['U0014.bmp'],['male'],[[10]],['male'],[[1]],[[0.32022746]],GHA
84,[[20]],[[85]],[[6]],['low holistic'],['left'],['inverted'],['U0106.bmp'],['male'],[[12]],['male'],[[1]],[[0.55634219]],GHA
85,[[20]],[[86]],[[1]],['low holistic'],['left'],['inverted'],['U0006.bmp'],['female'],[[6]],['female'],[[1]],[[0.34917017]],GHA
86,[[20]],[[87]],[[18]],['low holistic'],['right'],['inverted'],['U0359.bmp'],['male'],[[12]],['male'],[[1]],[[0.97462548]],GHA
87,[[20]],[[88]],[[4]],['high holistic'],['left'],['inverted'],['U0061.bmp'],['female'],[[8]],['female'],[[1]],[[0.39943985]],GHA
88,[[20]],[[89]],[[19]],['high holistic'],['left'],['inverted'],['U0361.bmp'],['female'],[[10]],['female'],[[1]],[[0.2884958]],GHA
89,[[20]],[[90]],[[19]],['high holistic'],['right'],['inverted'],['U0361.bmp'],['female'],[[2]],['female'],[[1]],[[0.30918835]],GHA
90,[[20]],[[91]],[[20]],['high holistic'],['left'],['upright'],['U0362.bmp'],['female'],[[2]],['female'],[[1]],[[0.34525386]],GHA
91,[[20]],[[92]],[[18]],['low holistic'],['left'],['upright'],['U0359.bmp'],['male'],[[6]],['male'],[[1]],[[0.31513245]],GHA
92,[[20]],[[93]],[[15]],['high holistic'],['left'],['upright'],['U0312.bmp'],['male'],[[12]],['male'],[[1]],[[0.52639333]],GHA
93,[[20]],[[94]],[[9]],['high holistic'],['left'],['inverted'],['U0155.bmp'],['female'],[[6]],['female'],[[1]],[[0.31316847]],GHA
94,[[20]],[[95]],[[1]],['high holistic'],['right'],['upright'],['U0006.bmp'],['female'],[[8]],['female'],[[1]],[[0.25322733]],GHA
95,[[20]],[[96]],[[12]],['low holistic'],['fovea'],['upright'],['U0178.bmp'],['female'],[[0]],['female'],[[1]],[[0.03456089]],GHA
96,[[20]],[[97]],[[17]],['high holistic'],['right'],['inverted'],['U0346.bmp'],['male'],[[2]],['male'],[[1]],[[0.27387764]],GHA
97,[[20]],[[98]],[[2]],['low holistic'],['left'],['upright'],['U0014.bmp'],['male'],[[8]],['male'],[[1]],[[0.26132305]],GHA
98,[[20]],[[99]],[[2]],['high holistic'],['right'],['upright'],['U0014.bmp'],['male'],[[10]],['male'],[[1]],[[0.37310935]],GHA
99,[[20]],[[100]],[[16]],['high holistic'],['right'],['inverted'],['U0335.bmp'],['female'],[[4]],['male'],[[0]],[[0.47743571]],GHA
100,[[20]],[[101]],[[13]],['high holistic'],['right'],['upright'],['U0181.bmp'],['female'],[[6]],['female'],[[1]],[[0.3625871]],GHA
101,[[20]],[[102]],[[1]],['low holistic'],['right'],['inverted'],['U0006.bmp'],['female'],[[10]],['female'],[[1]],[[0.95468021]],GHA
102,[[20]],[[103]],[[8]],['high holistic'],['left'],['inverted'],['U0137.bmp'],['female'],[[6]],['female'],[[1]],[[0.7093767]],GHA
103,[[20]],[[104]],[[1]],['high holistic'],['left'],['upright'],['U0006.bmp'],['female'],[[4]],['female'],[[1]],[[0.38553092]],GHA
104,[[20]],[[105]],[[4]],['low holistic'],['right'],['inverted'],['U0061.bmp'],['female'],[[8]],['female'],[[1]],[[0.34643959]],GHA
105,[[20]],[[106]],[[1]],['high holistic'],['left'],['upright'],['U0006.bmp'],['female'],[[10]],['female'],[[1]],[[0.26110966]],GHA
106,[[20]],[[107]],[[17]],['low holistic'],['left'],['inverted'],['U0346.bmp'],['female'],[[6]],['female'],[[1]],[[0.202206]],GHA
107,[[20]],[[108]],[[20]],['high holistic'],['left'],['inverted'],['U0362.bmp'],['female'],[[10]],['female'],[[1]],[[0.71418139]],GHA
108,[[20]],[[109]],[[8]],['high holistic'],['left'],['inverted'],['U0137.bmp'],['female'],[[10]],['female'],[[1]],[[0.4132209]],GHA
109,[[20]],[[110]],[[14]],['low holistic'],['right'],['inverted'],['U0228.bmp'],['male'],[[8]],['male'],[[1]],[[0.27754632]],GHA
110,[[20]],[[111]],[[15]],['low holistic'],['left'],['upright'],['U0312.bmp'],['male'],[[2]],['male'],[[1]],[[0.00017282]],GHA
111,[[20]],[[112]],[[19]],['low holistic'],['left'],['inverted'],['U0361.bmp'],['female'],[[8]],['female'],[[1]],[[0.18604458]],GHA
112,[[20]],[[113]],[[7]],['high holistic'],['right'],['upright'],['U0107.bmp'],['female'],[[2]],['female'],[[1]],[[0.38686234]],GHA
113,[[20]],[[114]],[[15]],['high holistic'],['right'],['upright'],['U0312.bmp'],['male'],[[6]],['female'],[[0]],[[0.16358234]],GHA
114,[[20]],[[115]],[[5]],['low holistic'],['right'],['inverted'],['U0076.bmp'],['male'],[[8]],['male'],[[1]],[[0.22040694]],GHA
115,[[20]],[[116]],[[8]],['high holistic'],['left'],['upright'],['U0137.bmp'],['female'],[[2]],['female'],[[1]],[[0.30699108]],GHA
116,[[20]],[[117]],[[4]],['high holistic'],['left'],['upright'],['U0061.bmp'],['female'],[[6]],['female'],[[1]],[[0.0638971]],GHA
117,[[20]],[[118]],[[17]],['high holistic'],['right'],['upright'],['U0346.bmp'],['male'],[[8]],['male'],[[1]],[[0.12486568]],GHA
118,[[20]],[[119]],[[9]],['low holistic'],['right'],['inverted'],['U0155.bmp'],['male'],[[10]],['female'],[[0]],[[0.75197197]],GHA
119,[[20]],[[120]],[[17]],['high holistic'],['left'],['upright'],['U0346.bmp'],['male'],[[12]],['male'],[[1]],[[0.38632772]],GHA
120,[[20]],[[121]],[[8]],['high holistic'],['right'],['upright'],['U0137.bmp'],['female'],[[4]],['female'],[[1]],[[0.13949421]],GHA
121,[[20]],[[122]],[[20]],['high holistic'],['left'],['inverted'],['U0362.bmp'],['female'],[[4]],['male'],[[0]],[[0.14125484]],GHA
122,[[20]],[[123]],[[8]],['high holistic'],['left'],['inverted'],['U0137.bmp'],['female'],[[6]],['female'],[[1]],[[0.36649774]],GHA
123,[[20]],[[124]],[[2]],['high holistic'],['right'],['inverted'],['U0014.bmp'],['male'],[[12]],['female'],[[0]],[[0.35293349]],GHA
124,[[20]],[[125]],[[11]],['high holistic'],['left'],['inverted'],['U0164.bmp'],['female'],[[4]],['female'],[[1]],[[0.29867495]],GHA
125,[[20]],[[126]],[[17]],['high holistic'],['left'],['upright'],['U0346.bmp'],['male'],[[4]],['male'],[[1]],[[0.65284207]],GHA
126,[[20]],[[127]],[[15]],['low holistic'],['left'],['inverted'],['U0312.bmp'],['male'],[[10]],['female'],[[0]],[[0.81299657]],GHA
127,[[20]],[[128]],[[5]],['high holistic'],['right'],['upright'],['U0076.bmp'],['female'],[[10]],['female'],[[1]],[[0.81930665]],GHA
128,[[20]],[[129]],[[20]],['high holistic'],['right'],['upright'],['U0362.bmp'],['female'],[[6]],['female'],[[1]],[[0.40375037]],GHA
129,[[20]],[[130]],[[17]],['low holistic'],['right'],['upright'],['U0346.bmp'],['female'],[[12]],['female'],[[1]],[[0.51474696]],GHA
130,[[20]],[[131]],[[6]],['high holistic'],['left'],['upright'],['U0106.bmp'],['female'],[[12]],['female'],[[1]],[[0.3325191]],GHA
131,[[20]],[[132]],[[11]],['low holistic'],['right'],['inverted'],['U0164.bmp'],['female'],[[6]],['female'],[[1]],[[0.24647361]],GHA
132,[[20]],[[133]],[[13]],['high holistic'],['left'],['inverted'],['U0181.bmp'],['female'],[[12]],['female'],[[1]],[[0.46117082]],GHA
133,[[20]],[[134]],[[5]],['low holistic'],['left'],['upright'],['U0076.bmp'],['male'],[[10]],['male'],[[1]],[[0.22652454]],GHA
134,[[20]],[[135]],[[13]],['high holistic'],['left'],['inverted'],['U0181.bmp'],['female'],[[8]],['female'],[[1]],[[0.64337863]],GHA
135,[[20]],[[136]],[[17]],['high holistic'],['left'],['inverted'],['U0346.bmp'],['male'],[[2]],['male'],[[1]],[[0.4005179]],GHA
136,[[20]],[[137]],[[10]],['high holistic'],['right'],['upright'],['U0159.bmp'],['male'],[[2]],['male'],[[1]],[[0.33594734]],GHA
137,[[20]],[[138]],[[12]],['low holistic'],['left'],['inverted'],['U0178.bmp'],['female'],[[10]],['female'],[[1]],[[0.28181326]],GHA
138,[[20]],[[139]],[[14]],['high holistic'],['left'],['inverted'],['U0228.bmp'],['male'],[[12]],['male'],[[1]],[[0.72111355]],GHA
139,[[20]],[[140]],[[7]],['high holistic'],['left'],['inverted'],['U0107.bmp'],['female'],[[10]],['female'],[[1]],[[0.36231695]],GHA
140,[[20]],[[141]],[[19]],['low holistic'],['right'],['upright'],['U0361.bmp'],['female'],[[12]],['female'],[[1]],[[0.29963406]],GHA
141,[[20]],[[142]],[[18]],['low holistic'],['left'],['upright'],['U0359.bmp'],['male'],[[12]],['male'],[[1]],[[0.2974657]],GHA
142,[[20]],[[143]],[[13]],['high holistic'],['left'],['inverted'],['U0181.bmp'],['female'],[[8]],['male'],[[0]],[[0.2275422]],GHA
143,[[20]],[[144]],[[2]],['high holistic'],['right'],['inverted'],['U0014.bmp'],['male'],[[6]],['female'],[[0]],[[0.26065039]],GHA
144,[[20]],[[145]],[[13]],['high holistic'],['right'],['upright'],['U0181.bmp'],['female'],[[6]],['female'],[[1]],[[0.30493773]],GHA
145,[[20]],[[146]],[[3]],['high holistic'],['right'],['upright'],['U0020.bmp'],['male'],[[10]],['female'],[[0]],[[0.20583774]],GHA
146,[[20]],[[147]],[[9]],['high holistic'],['right'],['inverted'],['U0155.bmp'],['female'],[[6]],['female'],[[1]],[[0.46103882]],GHA
147,[[20]],[[148]],[[15]],['low holistic'],['right'],['upright'],['U0312.bmp'],['male'],[[4]],['male'],[[1]],[[0.79468778]],GHA
148,[[20]],[[149]],[[4]],['low holistic'],['left'],['upright'],['U0061.bmp'],['female'],[[6]],['male'],[[0]],[[0.82553812]],GHA
149,[[20]],[[150]],[[17]],['low holistic'],['right'],['upright'],['U0346.bmp'],['female'],[[8]],['female'],[[1]],[[0.88258176]],GHA
150,[[20]],[[151]],[[17]],['low holistic'],['right'],['upright'],['U0346.bmp'],['female'],[[8]],['male'],[[0]],[[0.3911795]],GHA
151,[[20]],[[152]],[[13]],['high holistic'],['fovea'],['upright'],['U0181.bmp'],['female'],[[0]],['female'],[[1]],[[0.27753948]],GHA
152,[[20]],[[153]],[[19]],['low holistic'],['right'],['upright'],['U0361.bmp'],['female'],[[6]],['female'],[[1]],[[0.35461616]],GHA
153,[[20]],[[154]],[[18]],['high holistic'],['left'],['upright'],['U0359.bmp'],['male'],[[10]],['female'],[[0]],[[0.46102159]],GHA
154,[[20]],[[155]],[[18]],['high holistic'],['left'],['inverted'],['U0359.bmp'],['male'],[[6]],['male'],[[1]],[[0.76229936]],GHA
155,[[20]],[[156]],[[2]],['low holistic'],['left'],['inverted'],['U0014.bmp'],['male'],[[6]],['female'],[[0]],[[1.10032495]],GHA
156,[[20]],[[157]],[[20]],['low holistic'],['right'],['upright'],['U0362.bmp'],['male'],[[6]],['male'],[[1]],[[0.68025282]],GHA
157,[[20]],[[158]],[[10]],['low holistic'],['right'],['inverted'],['U0159.bmp'],['female'],[[12]],['female'],[[1]],[[1.56461614]],GHA
158,[[20]],[[159]],[[6]],['high holistic'],['right'],['upright'],['U0106.bmp'],['female'],[[6]],['female'],[[1]],[[0.5586356]],GHA
159,[[20]],[[160]],[[9]],['low holistic'],['left'],['inverted'],['U0155.bmp'],['male'],[[4]],['female'],[[0]],[[0.58457569]],GHA
160,[[20]],[[161]],[[16]],['low holistic'],['right'],['inverted'],['U0335.bmp'],['female'],[[4]],['female'],[[1]],[[0.34445428]],GHA
161,[[20]],[[162]],[[3]],['low holistic'],['right'],['inverted'],['U0020.bmp'],['female'],[[10]],['female'],[[1]],[[0.42538229]],GHA
162,[[20]],[[163]],[[12]],['high holistic'],['left'],['upright'],['U0178.bmp'],['male'],[[8]],['male'],[[1]],[[0.57018506]],GHA
163,[[20]],[[164]],[[19]],['high holistic'],['left'],['inverted'],['U0361.bmp'],['female'],[[2]],['female'],[[1]],[[0.45922191]],GHA
164,[[20]],[[165]],[[12]],['low holistic'],['fovea'],['inverted'],['U0178.bmp'],['female'],[[0]],['female'],[[1]],[[0.39122573]],GHA
165,[[20]],[[166]],[[10]],['high holistic'],['right'],['inverted'],['U0159.bmp'],['male'],[[8]],['female'],[[0]],[[0.48101513]],GHA
166,[[20]],[[167]],[[8]],['high holistic'],['fovea'],['inverted'],['U0137.bmp'],['female'],[[0]],['female'],[[1]],[[0.37311582]],GHA
167,[[20]],[[168]],[[10]],['high holistic'],['left'],['upright'],['U0159.bmp'],['male'],[[2]],['male'],[[1]],[[0.5191323]],GHA
168,[[20]],[[169]],[[16]],['high holistic'],['left'],['upright'],['U0335.bmp'],['female'],[[10]],['female'],[[1]],[[0.47247533]],GHA
169,[[20]],[[170]],[[19]],['high holistic'],['right'],['inverted'],['U0361.bmp'],['female'],[[10]],['male'],[[0]],[[0.50327602]],GHA
170,[[20]],[[171]],[[11]],['low holistic'],['left'],['inverted'],['U0164.bmp'],['female'],[[12]],['female'],[[1]],[[0.30739119]],GHA
171,[[20]],[[172]],[[7]],['low holistic'],['left'],['upright'],['U0107.bmp'],['female'],[[10]],['female'],[[1]],[[0.32614348]],GHA
172,[[20]],[[173]],[[11]],['high holistic'],['left'],['upright'],['U0164.bmp'],['female'],[[10]],['female'],[[1]],[[0.37039257]],GHA
173,[[20]],[[174]],[[19]],['low holistic'],['right'],['inverted'],['U0361.bmp'],['female'],[[4]],['female'],[[1]],[[0.3553031]],GHA
174,[[20]],[[175]],[[16]],['low holistic'],['right'],['upright'],['U0335.bmp'],['female'],[[4]],['female'],[[1]],[[0.48350527]],GHA
175,[[20]],[[176]],[[16]],['low holistic'],['fovea'],['upright'],['U0335.bmp'],['female'],[[0]],['female'],[[1]],[[0.5700777]],GHA
176,[[20]],[[177]],[[17]],['high holistic'],['left'],['inverted'],['U0346.bmp'],['male'],[[12]],['male'],[[1]],[[0.50614949]],GHA
177,[[20]],[[178]],[[17]],['high holistic'],['right'],['upright'],['U0346.bmp'],['male'],[[12]],['male'],[[1]],[[0.35702051]],GHA
178,[[20]],[[179]],[[11]],['low holistic'],['right'],['upright'],['U0164.bmp'],['female'],[[10]],['female'],[[1]],[[0.36710872]],GHA
179,[[20]],[[180]],[[7]],['high holistic'],['right'],['upright'],['U0107.bmp'],['female'],[[12]],['female'],[[1]],[[0.2973201]],GHA
180,[[20]],[[181]],[[1]],['low holistic'],['right'],['inverted'],['U0006.bmp'],['female'],[[10]],['female'],[[1]],[[0.30931877]],GHA
181,[[20]],[[182]],[[2]],['low holistic'],['right'],['upright'],['U0014.bmp'],['male'],[[2]],['male'],[[1]],[[0.38534047]],GHA
182,[[20]],[[183]],[[4]],['low holistic'],['right'],['inverted'],['U0061.bmp'],['female'],[[4]],['female'],[[1]],[[0.24988598]],GHA
183,[[20]],[[184]],[[18]],['low holistic'],['right'],['inverted'],['U0359.bmp'],['male'],[[4]],['male'],[[1]],[[1.51211239]],GHA
184,[[20]],[[185]],[[10]],['high holistic'],['left'],['inverted'],['U0159.bmp'],['male'],[[8]],['female'],[[0]],[[0.44396607]],GHA
185,[[20]],[[186]],[[7]],['high holistic'],['left'],['upright'],['U0107.bmp'],['female'],[[4]],['female'],[[1]],[[0.304588]],GHA
186,[[20]],[[187]],[[14]],['low holistic'],['left'],['inverted'],['U0228.bmp'],['male'],[[4]],['male'],[[1]],[[0.22851408]],GHA
187,[[20]],[[188]],[[14]],['high holistic'],['left'],['upright'],['U0228.bmp'],['male'],[[6]],['female'],[[0]],[[0.04356012]],GHA
188,[[20]],[[189]],[[1]],['low holistic'],['left'],['upright'],['U0006.bmp'],['female'],[[6]],['female'],[[1]],[[0.02590358]],GHA
189,[[20]],[[190]],[[20]],['high holistic'],['right'],['inverted'],['U0362.bmp'],['female'],[[2]],['female'],[[1]],[[0.37652086]],GHA
190,[[20]],[[191]],[[4]],['high holistic'],['right'],['inverted'],['U0061.bmp'],['female'],[[8]],['female'],[[1]],[[0.17059127]],GHA
191,[[20]],[[192]],[[5]],['low holistic'],['right'],['upright'],['U0076.bmp'],['male'],[[6]],['male'],[[1]],[[0.09057954]],GHA
192,[[20]],[[193]],[[4]],['high holistic'],['right'],['upright'],['U0061.bmp'],['female'],[[2]],['female'],[[1]],[[0.00040624]],GHA
193,[[20]],[[194]],[[19]],['low holistic'],['right'],['inverted'],['U0361.bmp'],['female'],[[12]],['female'],[[1]],[[0.41533627]],GHA
194,[[20]],[[195]],[[4]],['low holistic'],['left'],['inverted'],['U0061.bmp'],['female'],[[2]],['female'],[[1]],[[0.2715658]],GHA
195,[[20]],[[196]],[[12]],['high holistic'],['left'],['upright'],['U0178.bmp'],['male'],[[8]],['male'],[[1]],[[0.49078234]],GHA
196,[[20]],[[197]],[[11]],['low holistic'],['left'],['inverted'],['U0164.bmp'],['female'],[[10]],['female'],[[1]],[[0.25600259]],GHA
197,[[20]],[[198]],[[18]],['high holistic'],['right'],['inverted'],['U0359.bmp'],['male'],[[10]],['female'],[[0]],[[0.19033551]],GHA
198,[[20]],[[199]],[[19]],['high holistic'],['right'],['upright'],['U0361.bmp'],['female'],[[8]],['female'],[[1]],[[0.23154344]],GHA
199,[[20]],[[200]],[[19]],['low holistic'],['right'],['upright'],['U0361.bmp'],['female'],[[6]],['female'],[[1]],[[0.22915946]],GHA
200,[[20]],[[201]],[[2]],['low holistic'],['left'],['inverted'],['U0014.bmp'],['male'],[[8]],['male'],[[1]],[[0.21883357]],GHA
201,[[20]],[[202]],[[17]],['high holistic'],['left'],['inverted'],['U0346.bmp'],['male'],[[2]],['female'],[[0]],[[0.00425313]],GHA
202,[[20]],[[203]],[[1]],['high holistic'],['left'],['upright'],['U0006.bmp'],['female'],[[4]],['female'],[[1]],[[0.03507342]],GHA
203,[[20]],[[204]],[[19]],['low holistic'],['left'],['inverted'],['U0361.bmp'],['female'],[[6]],['female'],[[1]],[[0.06704643]],GHA
204,[[20]],[[205]],[[18]],['high holistic'],['left'],['inverted'],['U0359.bmp'],['male'],[[8]],['male'],[[1]],[[0.2316686]],GHA
205,[[20]],[[206]],[[4]],['high holistic'],['left'],['inverted'],['U0061.bmp'],['female'],[[2]],['female'],[[1]],[[0.09425946]],GHA
206,[[20]],[[207]],[[9]],['high holistic'],['right'],['inverted'],['U0155.bmp'],['female'],[[12]],['female'],[[1]],[[0.29794155]],GHA
207,[[20]],[[208]],[[2]],['low holistic'],['right'],['inverted'],['U0014.bmp'],['male'],[[10]],['male'],[[1]],[[0.23016763]],GHA
208,[[20]],[[209]],[[2]],['low holistic'],['left'],['inverted'],['U0014.bmp'],['male'],[[8]],['male'],[[1]],[[0.18131892]],GHA
209,[[20]],[[210]],[[11]],['high holistic'],['fovea'],['inverted'],['U0164.bmp'],['female'],[[0]],['female'],[[1]],[[0.3020771]],GHA
210,[[20]],[[211]],[[15]],['low holistic'],['right'],['inverted'],['U0312.bmp'],['male'],[[2]],['male'],[[1]],[[0.40951386]],GHA
211,[[20]],[[212]],[[5]],['high holistic'],['fovea'],['inverted'],['U0076.bmp'],['female'],[[0]],['female'],[[1]],[[0.23265237]],GHA
212,[[20]],[[213]],[[11]],['high holistic'],['left'],['inverted'],['U0164.bmp'],['female'],[[12]],['female'],[[1]],[[0.31237268]],GHA
213,[[20]],[[214]],[[14]],['low holistic'],['left'],['inverted'],['U0228.bmp'],['male'],[[12]],['male'],[[1]],[[0.3165592]],GHA
214,[[20]],[[215]],[[19]],['high holistic'],['left'],['inverted'],['U0361.bmp'],['female'],[[4]],['female'],[[1]],[[0.39810081]],GHA
215,[[20]],[[216]],[[18]],['high holistic'],['right'],['inverted'],['U0359.bmp'],['male'],[[4]],['male'],[[1]],[[0.66240911]],GHA
216,[[20]],[[217]],[[13]],['high holistic'],['left'],['inverted'],['U0181.bmp'],['female'],[[12]],['female'],[[1]],[[0.86084236]],GHA
217,[[20]],[[218]],[[17]],['high holistic'],['right'],['upright'],['U0346.bmp'],['male'],[[2]],['male'],[[1]],[[2.04132423]],GHA
218,[[20]],[[219]],[[10]],['low holistic'],['left'],['inverted'],['U0159.bmp'],['female'],[[10]],['female'],[[1]],[[0.51902818]],GHA
219,[[20]],[[220]],[[7]],['low holistic'],['left'],['inverted'],['U0107.bmp'],['female'],[[4]],['female'],[[1]],[[0.29090033]],GHA
220,[[20]],[[221]],[[5]],['low holistic'],['left'],['upright'],['U0076.bmp'],['male'],[[8]],['male'],[[1]],[[0.27956045]],GHA
221,[[20]],[[222]],[[15]],['low holistic'],['right'],['upright'],['U0312.bmp'],['male'],[[8]],['male'],[[1]],[[2.84467818]],GHA
222,[[20]],[[223]],[[14]],['low holistic'],['left'],['upright'],['U0228.bmp'],['male'],[[2]],['male'],[[1]],[[0.26627105]],GHA
223,[[20]],[[224]],[[1]],['high holistic'],['right'],['upright'],['U0006.bmp'],['female'],[[8]],['female'],[[1]],[[0.13694948]],GHA
224,[[20]],[[225]],[[14]],['low holistic'],['right'],['upright'],['U0228.bmp'],['male'],[[8]],['male'],[[1]],[[0.21075094]],GHA
225,[[20]],[[226]],[[18]],['low holistic'],['left'],['upright'],['U0359.bmp'],['male'],[[6]],['female'],[[0]],[[0.3954342]],GHA
226,[[20]],[[227]],[[19]],['low holistic'],['right'],['inverted'],['U0361.bmp'],['female'],[[10]],['female'],[[1]],[[0.42750121]],GHA
227,[[20]],[[228]],[[16]],['low holistic'],['left'],['inverted'],['U0335.bmp'],['female'],[[2]],['female'],[[1]],[[0.37826103]],GHA
228,[[20]],[[229]],[[5]],['high holistic'],['left'],['inverted'],['U0076.bmp'],['female'],[[6]],['female'],[[1]],[[0.37883435]],GHA
229,[[20]],[[230]],[[20]],['high holistic'],['right'],['inverted'],['U0362.bmp'],['female'],[[12]],['male'],[[0]],[[0.74791595]],GHA
230,[[20]],[[231]],[[7]],['low holistic'],['right'],['inverted'],['U0107.bmp'],['female'],[[8]],['female'],[[1]],[[0.42098494]],GHA
231,[[20]],[[232]],[[11]],['high holistic'],['left'],['upright'],['U0164.bmp'],['female'],[[8]],['female'],[[1]],[[0.3575664]],GHA
232,[[20]],[[233]],[[20]],['high holistic'],['left'],['inverted'],['U0362.bmp'],['female'],[[10]],['female'],[[1]],[[0.23852103]],GHA
233,[[20]],[[234]],[[5]],['high holistic'],['left'],['inverted'],['U0076.bmp'],['female'],[[2]],['female'],[[1]],[[0.58787935]],GHA
234,[[20]],[[235]],[[7]],['low holistic'],['right'],['inverted'],['U0107.bmp'],['female'],[[6]],['female'],[[1]],[[0.22059653]],GHA
235,[[20]],[[236]],[[2]],['low holistic'],['left'],['inverted'],['U0014.bmp'],['male'],[[8]],['male'],[[1]],[[0.30071544]],GHA
236,[[20]],[[237]],[[17]],['high holistic'],['left'],['upright'],['U0346.bmp'],['male'],[[2]],['male'],[[1]],[[0.36910145]],GHA
237,[[20]],[[238]],[[11]],['high holistic'],['left'],['upright'],['U0164.bmp'],['female'],[[4]],['female'],[[1]],[[0.23355633]],GHA
238,[[20]],[[239]],[[5]],['low holistic'],['right'],['inverted'],['U0076.bmp'],['male'],[[2]],['male'],[[1]],[[0.23143323]],GHA
239,[[20]],[[240]],[[20]],['high holistic'],['right'],['inverted'],['U0362.bmp'],['female'],[[2]],['female'],[[1]],[[0.43834203]],GHA
240,[[20]],[[241]],[[4]],['low holistic'],['right'],['upright'],['U0061.bmp'],['female'],[[10]],['female'],[[1]],[[0.28522272]],GHA
241,[[20]],[[242]],[[16]],['low holistic'],['right'],['upright'],['U0335.bmp'],['female'],[[12]],['female'],[[1]],[[0.4825313]],GHA
242,[[20]],[[243]],[[18]],['low holistic'],['right'],['inverted'],['U0359.bmp'],['male'],[[4]],['male'],[[1]],[[1.46910828]],GHA
243,[[20]],[[244]],[[9]],['high holistic'],['left'],['upright'],['U0155.bmp'],['female'],[[12]],['female'],[[1]],[[0.65845445]],GHA
244,[[20]],[[245]],[[17]],['high holistic'],['right'],['upright'],['U0346.bmp'],['male'],[[4]],['male'],[[1]],[[0.26543787]],GHA
245,[[20]],[[246]],[[11]],['low holistic'],['right'],['inverted'],['U0164.bmp'],['female'],[[12]],['female'],[[1]],[[0.35609421]],GHA
246,[[20]],[[247]],[[6]],['low holistic'],['left'],['upright'],['U0106.bmp'],['male'],[[12]],['male'],[[1]],[[3.64064798]],GHA
247,[[20]],[[248]],[[18]],['low holistic'],['right'],['upright'],['U0359.bmp'],['male'],[[2]],['male'],[[1]],[[1.49478883]],GHA
248,[[20]],[[249]],[[5]],['low holistic'],['right'],['inverted'],['U0076.bmp'],['male'],[[2]],['male'],[[1]],[[0.27316777]],GHA
249,[[20]],[[250]],[[19]],['low holistic'],['left'],['inverted'],['U0361.bmp'],['female'],[[4]],['female'],[[1]],[[0.25472586]],GHA
250,[[20]],[[251]],[[2]],['low holistic'],['left'],['inverted'],['U0014.bmp'],['male'],[[8]],['male'],[[1]],[[0.27009324]],GHA
251,[[20]],[[252]],[[19]],['low holistic'],['right'],['upright'],['U0361.bmp'],['female'],[[8]],['female'],[[1]],[[0.26687648]],GHA
252,[[20]],[[253]],[[12]],['low holistic'],['left'],['upright'],['U0178.bmp'],['female'],[[12]],['female'],[[1]],[[0.28004581]],GHA
253,[[20]],[[254]],[[7]],['high holistic'],['right'],['inverted'],['U0107.bmp'],['female'],[[2]],['female'],[[1]],[[0.35484256]],GHA
254,[[20]],[[255]],[[11]],['high holistic'],['left'],['inverted'],['U0164.bmp'],['female'],[[8]],['female'],[[1]],[[0.29344701]],GHA
255,[[20]],[[256]],[[19]],['low holistic'],['right'],['upright'],['U0361.bmp'],['female'],[[8]],['female'],[[1]],[[0.20318078]],GHA
256,[[20]],[[257]],[[19]],['high holistic'],['fovea'],['inverted'],['U0361.bmp'],['female'],[[0]],['female'],[[1]],[[0.23442031]],GHA
257,[[20]],[[258]],[[13]],['high holistic'],['right'],['inverted'],['U0181.bmp'],['female'],[[2]],['female'],[[1]],[[0.40186007]],GHA
258,[[20]],[[259]],[[2]],['high holistic'],['left'],['upright'],['U0014.bmp'],['male'],[[10]],['male'],[[1]],[[0.39299958]],GHA
259,[[20]],[[260]],[[19]],['high holistic'],['left'],['upright'],['U0361.bmp'],['female'],[[10]],['female'],[[1]],[[0.65038574]],GHA
260,[[20]],[[261]],[[7]],['high holistic'],['left'],['upright'],['U0107.bmp'],['female'],[[2]],['female'],[[1]],[[0.31026344]],GHA
261,[[20]],[[262]],[[7]],['high holistic'],['fovea'],['upright'],['U0107.bmp'],['female'],[[0]],['female'],[[1]],[[0.17999304]],GHA
262,[[20]],[[263]],[[9]],['high holistic'],['right'],['upright'],['U0155.bmp'],['female'],[[4]],['female'],[[1]],[[0.38942793]],GHA
263,[[20]],[[264]],[[9]],['low holistic'],['left'],['upright'],['U0155.bmp'],['male'],[[4]],['male'],[[1]],[[0.25297957]],GHA
264,[[20]],[[265]],[[18]],['high holistic'],['left'],['inverted'],['U0359.bmp'],['male'],[[2]],['male'],[[1]],[[0.44180916]],GHA
265,[[20]],[[266]],[[7]],['high holistic'],['left'],['inverted'],['U0107.bmp'],['female'],[[2]],['female'],[[1]],[[0.36805732]],GHA
266,[[20]],[[267]],[[11]],['high holistic'],['fovea'],['upright'],['U0164.bmp'],['female'],[[0]],['female'],[[1]],[[0.28939912]],GHA
267,[[20]],[[268]],[[3]],['high holistic'],['left'],['inverted'],['U0020.bmp'],['male'],[[10]],['female'],[[0]],[[0.27882354]],GHA
268,[[20]],[[269]],[[19]],['low holistic'],['left'],['inverted'],['U0361.bmp'],['female'],[[12]],['female'],[[1]],[[0.36275356]],GHA
269,[[20]],[[270]],[[15]],['high holistic'],['right'],['upright'],['U0312.bmp'],['male'],[[10]],['male'],[[1]],[[0.35691125]],GHA
270,[[20]],[[271]],[[18]],['high holistic'],['left'],['inverted'],['U0359.bmp'],['male'],[[6]],['male'],[[1]],[[0.4870915]],GHA
271,[[20]],[[272]],[[20]],['high holistic'],['left'],['upright'],['U0362.bmp'],['female'],[[6]],['female'],[[1]],[[0.81021263]],GHA
272,[[20]],[[273]],[[3]],['low holistic'],['left'],['upright'],['U0020.bmp'],['female'],[[12]],['female'],[[1]],[[0.63477181]],GHA
273,[[20]],[[274]],[[18]],['high holistic'],['right'],['inverted'],['U0359.bmp'],['male'],[[12]],['male'],[[1]],[[0.54457673]],GHA
274,[[20]],[[275]],[[19]],['low holistic'],['right'],['inverted'],['U0361.bmp'],['female'],[[8]],['female'],[[1]],[[0.28255017]],GHA
275,[[20]],[[276]],[[6]],['high holistic'],['right'],['upright'],['U0106.bmp'],['female'],[[8]],['female'],[[1]],[[0.69678859]],GHA
276,[[20]],[[277]],[[12]],['low holistic'],['fovea'],['upright'],['U0178.bmp'],['female'],[[0]],['female'],[[1]],[[0.30708925]],GHA
277,[[20]],[[278]],[[10]],['low holistic'],['left'],['upright'],['U0159.bmp'],['female'],[[6]],['female'],[[1]],[[0.19148013]],GHA
278,[[20]],[[279]],[[19]],['high holistic'],['right'],['inverted'],['U0361.bmp'],['female'],[[12]],['female'],[[1]],[[1.48887396]],GHA
279,[[20]],[[280]],[[1]],['low holistic'],['right'],['inverted'],['U0006.bmp'],['female'],[[6]],['female'],[[1]],[[0.29941968]],GHA
280,[[20]],[[281]],[[17]],['high holistic'],['right'],['inverted'],['U0346.bmp'],['male'],[[6]],['male'],[[1]],[[0.50510669]],GHA
281,[[20]],[[282]],[[1]],['low holistic'],['left'],['inverted'],['U0006.bmp'],['female'],[[6]],['female'],[[1]],[[0.2607018]],GHA
282,[[20]],[[283]],[[11]],['high holistic'],['fovea'],['upright'],['U0164.bmp'],['female'],[[0]],['female'],[[1]],[[0.23382688]],GHA
283,[[20]],[[284]],[[4]],['low holistic'],['right'],['upright'],['U0061.bmp'],['female'],[[12]],['female'],[[1]],[[0.49640567]],GHA
284,[[20]],[[285]],[[7]],['low holistic'],['left'],['inverted'],['U0107.bmp'],['female'],[[2]],['female'],[[1]],[[0.35746664]],GHA
285,[[20]],[[286]],[[9]],['high holistic'],['left'],['upright'],['U0155.bmp'],['female'],[[12]],['male'],[[0]],[[0.40604313]],GHA
286,[[20]],[[287]],[[17]],['high holistic'],['right'],['inverted'],['U0346.bmp'],['male'],[[6]],['male'],[[1]],[[0.23047927]],GHA
287,[[20]],[[288]],[[17]],['low holistic'],['left'],['inverted'],['U0346.bmp'],['female'],[[8]],['female'],[[1]],[[0.24501086]],GHA
288,[[20]],[[289]],[[4]],['high holistic'],['left'],['upright'],['U0061.bmp'],['female'],[[8]],['female'],[[1]],[[0.18006264]],GHA
289,[[20]],[[290]],[[1]],['high holistic'],['left'],['upright'],['U0006.bmp'],['female'],[[2]],['female'],[[1]],[[0.21917502]],GHA
290,[[20]],[[291]],[[1]],['high holistic'],['right'],['inverted'],['U0006.bmp'],['female'],[[2]],['female'],[[1]],[[0.17172784]],GHA
291,[[20]],[[292]],[[7]],['high holistic'],['left'],['upright'],['U0107.bmp'],['female'],[[4]],['female'],[[1]],[[0.26836694]],GHA
292,[[20]],[[293]],[[8]],['low holistic'],['right'],['upright'],['U0137.bmp'],['male'],[[4]],['male'],[[1]],[[0.2577771]],GHA
293,[[20]],[[294]],[[17]],['low holistic'],['left'],['inverted'],['U0346.bmp'],['female'],[[2]],['female'],[[1]],[[0.20642153]],GHA
294,[[20]],[[295]],[[20]],['high holistic'],['left'],['upright'],['U0362.bmp'],['female'],[[12]],['female'],[[1]],[[1.04751639]],GHA
295,[[20]],[[296]],[[16]],['low holistic'],['right'],['inverted'],['U0335.bmp'],['female'],[[10]],['male'],[[0]],[[0.40494193]],GHA
296,[[20]],[[297]],[[13]],['low holistic'],['left'],['upright'],['U0181.bmp'],['male'],[[8]],['male'],[[1]],[[0.35587617]],GHA
297,[[20]],[[298]],[[16]],['low holistic'],['fovea'],['upright'],['U0335.bmp'],['female'],[[0]],['female'],[[1]],[[0.31806647]],GHA
298,[[20]],[[299]],[[10]],['high holistic'],['left'],['inverted'],['U0159.bmp'],['male'],[[12]],['female'],[[0]],[[0.25781718]],GHA
299,[[20]],[[300]],[[11]],['high holistic'],['left'],['inverted'],['U0164.bmp'],['female'],[[4]],['male'],[[0]],[[0.7098243]],GHA
300,[[20]],[[301]],[[6]],['low holistic'],['right'],['inverted'],['U0106.bmp'],['male'],[[6]],['female'],[[0]],[[0.32996706]],GHA
301,[[20]],[[302]],[[10]],['low holistic'],['right'],['inverted'],['U0159.bmp'],['female'],[[4]],['female'],[[1]],[[0.26043295]],GHA
302,[[20]],[[303]],[[18]],['low holistic'],['right'],['inverted'],['U0359.bmp'],['male'],[[4]],['male'],[[1]],[[0.86584572]],GHA
303,[[20]],[[304]],[[5]],['low holistic'],['right'],['upright'],['U0076.bmp'],['male'],[[2]],['male'],[[1]],[[0.47283395]],GHA
304,[[20]],[[305]],[[11]],['high holistic'],['right'],['upright'],['U0164.bmp'],['female'],[[2]],['female'],[[1]],[[0.1816914]],GHA
305,[[20]],[[306]],[[12]],['low holistic'],['left'],['upright'],['U0178.bmp'],['female'],[[6]],['female'],[[1]],[[0.1730144]],GHA
306,[[20]],[[307]],[[7]],['low holistic'],['fovea'],['inverted'],['U0107.bmp'],['female'],[[0]],['female'],[[1]],[[0.29513966]],GHA
307,[[20]],[[308]],[[3]],['high holistic'],['left'],['inverted'],['U0020.bmp'],['male'],[[12]],['female'],[[0]],[[1.81178463]],GHA
308,[[20]],[[309]],[[8]],['high holistic'],['left'],['upright'],['U0137.bmp'],['female'],[[10]],['female'],[[1]],[[0.54674755]],GHA
309,[[20]],[[310]],[[5]],['low holistic'],['fovea'],['upright'],['U0076.bmp'],['male'],[[0]],['male'],[[1]],[[0.29163866]],GHA
310,[[20]],[[311]],[[12]],['high holistic'],['right'],['inverted'],['U0178.bmp'],['male'],[[8]],['female'],[[0]],[[0.22430879]],GHA
311,[[20]],[[312]],[[6]],['low holistic'],['fovea'],['upright'],['U0106.bmp'],['male'],[[0]],['male'],[[1]],[[1.23120581]],GHA
312,[[20]],[[313]],[[4]],['high holistic'],['left'],['inverted'],['U0061.bmp'],['female'],[[12]],['female'],[[1]],[[0.36752767]],GHA
313,[[20]],[[314]],[[10]],['low holistic'],['right'],['inverted'],['U0159.bmp'],['female'],[[8]],['female'],[[1]],[[0.2476501]],GHA
314,[[20]],[[315]],[[5]],['low holistic'],['right'],['inverted'],['U0076.bmp'],['male'],[[10]],['male'],[[1]],[[0.32542436]],GHA
315,[[20]],[[316]],[[11]],['high holistic'],['left'],['inverted'],['U0164.bmp'],['female'],[[2]],['female'],[[1]],[[0.3133127]],GHA
316,[[20]],[[317]],[[2]],['low holistic'],['left'],['upright'],['U0014.bmp'],['male'],[[2]],['male'],[[1]],[[0.28551576]],GHA
317,[[20]],[[318]],[[10]],['low holistic'],['left'],['upright'],['U0159.bmp'],['female'],[[12]],['female'],[[1]],[[0.22353978]],GHA
318,[[20]],[[319]],[[20]],['high holistic'],['fovea'],['inverted'],['U0362.bmp'],['female'],[[0]],['female'],[[1]],[[0.39285628]],GHA
319,[[20]],[[320]],[[15]],['low holistic'],['right'],['inverted'],['U0312.bmp'],['male'],[[10]],['male'],[[1]],[[1.12767351]],GHA
320,[[20]],[[321]],[[11]],['high holistic'],['left'],['inverted'],['U0164.bmp'],['female'],[[2]],['female'],[[1]],[[0.52230721]],GHA
321,[[20]],[[322]],[[3]],['high holistic'],['fovea'],['upright'],['U0020.bmp'],['male'],[[0]],['male'],[[1]],[[0.30154376]],GHA
322,[[20]],[[323]],[[8]],['low holistic'],['right'],['inverted'],['U0137.bmp'],['male'],[[10]],['male'],[[1]],[[0.99356086]],GHA
323,[[20]],[[324]],[[2]],['high holistic'],['left'],['upright'],['U0014.bmp'],['male'],[[8]],['male'],[[1]],[[0.28167296]],GHA
324,[[20]],[[325]],[[14]],['low holistic'],['right'],['upright'],['U0228.bmp'],['male'],[[10]],['male'],[[1]],[[0.50364698]],GHA
325,[[20]],[[326]],[[11]],['high holistic'],['right'],['inverted'],['U0164.bmp'],['female'],[[10]],['male'],[[0]],[[0.62738007]],GHA
326,[[20]],[[327]],[[4]],['high holistic'],['right'],['inverted'],['U0061.bmp'],['female'],[[6]],['female'],[[1]],[[0.32890564]],GHA
327,[[20]],[[328]],[[9]],['high holistic'],['left'],['inverted'],['U0155.bmp'],['female'],[[10]],['female'],[[1]],[[0.46003369]],GHA
328,[[20]],[[329]],[[15]],['low holistic'],['right'],['upright'],['U0312.bmp'],['male'],[[10]],['male'],[[1]],[[0.44067169]],GHA
329,[[20]],[[330]],[[9]],['low holistic'],['fovea'],['upright'],['U0155.bmp'],['male'],[[0]],['male'],[[1]],[[0.42513533]],GHA
330,[[20]],[[331]],[[17]],['low holistic'],['right'],['inverted'],['U0346.bmp'],['female'],[[2]],['female'],[[1]],[[0.40560574]],GHA
331,[[20]],[[332]],[[19]],['low holistic'],['right'],['upright'],['U0361.bmp'],['female'],[[2]],['female'],[[1]],[[0.38396802]],GHA
332,[[20]],[[333]],[[11]],['high holistic'],['right'],['inverted'],['U0164.bmp'],['female'],[[4]],['female'],[[1]],[[0.57583622]],GHA
333,[[20]],[[334]],[[9]],['low holistic'],['right'],['upright'],['U0155.bmp'],['male'],[[6]],['male'],[[1]],[[1.11377709]],GHA
334,[[20]],[[335]],[[4]],['low holistic'],['right'],['upright'],['U0061.bmp'],['female'],[[2]],['female'],[[1]],[[0.33930586]],GHA
335,[[20]],[[336]],[[12]],['low holistic'],['right'],['upright'],['U0178.bmp'],['female'],[[8]],['female'],[[1]],[[0.20677276]],GHA
336,[[20]],[[337]],[[9]],['high holistic'],['fovea'],['upright'],['U0155.bmp'],['female'],[[0]],['female'],[[1]],[[0.12679327]],GHA
337,[[20]],[[338]],[[2]],['high holistic'],['left'],['inverted'],['U0014.bmp'],['male'],[[6]],['male'],[[1]],[[0.16807933]],GHA
338,[[20]],[[339]],[[8]],['high holistic'],['left'],['upright'],['U0137.bmp'],['female'],[[4]],['female'],[[1]],[[0.38546336]],GHA
339,[[20]],[[340]],[[6]],['low holistic'],['right'],['inverted'],['U0106.bmp'],['male'],[[8]],['male'],[[1]],[[0.26787669]],GHA
340,[[20]],[[341]],[[8]],['high holistic'],['right'],['inverted'],['U0137.bmp'],['female'],[[6]],['female'],[[1]],[[0.24698088]],GHA
341,[[20]],[[342]],[[11]],['high holistic'],['fovea'],['inverted'],['U0164.bmp'],['female'],[[0]],['female'],[[1]],[[0.16517053]],GHA
342,[[20]],[[343]],[[16]],['high holistic'],['fovea'],['inverted'],['U0335.bmp'],['female'],[[0]],['male'],[[0]],[[0.31954813]],GHA
343,[[20]],[[344]],[[8]],['low holistic'],['left'],['upright'],['U0137.bmp'],['male'],[[6]],['male'],[[1]],[[0.26673678]],GHA
344,[[20]],[[345]],[[20]],['high holistic'],['left'],['inverted'],['U0362.bmp'],['female'],[[10]],['female'],[[1]],[[2.00729521]],GHA
345,[[20]],[[346]],[[7]],['low holistic'],['right'],['inverted'],['U0107.bmp'],['female'],[[2]],['female'],[[1]],[[0.39984346]],GHA
346,[[20]],[[347]],[[7]],['high holistic'],['left'],['upright'],['U0107.bmp'],['female'],[[10]],['male'],[[0]],[[0.24790128]],GHA
347,[[20]],[[348]],[[16]],['low holistic'],['right'],['inverted'],['U0335.bmp'],['female'],[[8]],['female'],[[1]],[[0.26985408]],GHA
348,[[20]],[[349]],[[2]],['low holistic'],['left'],['inverted'],['U0014.bmp'],['male'],[[2]],['male'],[[1]],[[0.45806758]],GHA
349,[[20]],[[350]],[[5]],['high holistic'],['right'],['upright'],['U0076.bmp'],['female'],[[4]],['female'],[[1]],[[0.40913921]],GHA
350,[[20]],[[351]],[[6]],['low holistic'],['right'],['inverted'],['U0106.bmp'],['male'],[[10]],['male'],[[1]],[[0.86533923]],GHA
351,[[20]],[[352]],[[20]],['high holistic'],['left'],['upright'],['U0362.bmp'],['female'],[[6]],['female'],[[1]],[[0.80627293]],GHA
352,[[20]],[[353]],[[10]],['high holistic'],['left'],['upright'],['U0159.bmp'],['male'],[[6]],['male'],[[1]],[[0.51678545]],GHA
353,[[20]],[[354]],[[13]],['high holistic'],['right'],['upright'],['U0181.bmp'],['female'],[[4]],['female'],[[1]],[[0.11096727]],GHA
354,[[20]],[[355]],[[20]],['low holistic'],['left'],['inverted'],['U0362.bmp'],['male'],[[10]],['male'],[[1]],[[0.19618958]],GHA
355,[[20]],[[356]],[[14]],['high holistic'],['right'],['inverted'],['U0228.bmp'],['male'],[[8]],['male'],[[1]],[[0.71643855]],GHA
356,[[20]],[[357]],[[14]],['low holistic'],['right'],['upright'],['U0228.bmp'],['male'],[[2]],['male'],[[1]],[[0.37530722]],GHA
357,[[20]],[[358]],[[10]],['high holistic'],['left'],['inverted'],['U0159.bmp'],['male'],[[12]],['female'],[[0]],[[1.23295875]],GHA
358,[[20]],[[359]],[[13]],['high holistic'],['right'],['upright'],['U0181.bmp'],['female'],[[10]],['female'],[[1]],[[0.34369122]],GHA
359,[[20]],[[360]],[[2]],['high holistic'],['left'],['upright'],['U0014.bmp'],['male'],[[2]],['male'],[[1]],[[0.38670479]],GHA
360,[[20]],[[361]],[[18]],['low holistic'],['left'],['upright'],['U0359.bmp'],['male'],[[10]],['male'],[[1]],[[1.64938386]],GHA
361,[[20]],[[362]],[[8]],['low holistic'],['left'],['upright'],['U0137.bmp'],['male'],[[6]],['male'],[[1]],[[0.44751374]],GHA
362,[[20]],[[363]],[[20]],['low holistic'],['left'],['inverted'],['U0362.bmp'],['male'],[[12]],['male'],[[1]],[[1.10291073]],GHA
363,[[20]],[[364]],[[13]],['low holistic'],['right'],['inverted'],['U0181.bmp'],['male'],[[10]],['male'],[[1]],[[1.97035277]],GHA
364,[[20]],[[365]],[[7]],['low holistic'],['left'],['inverted'],['U0107.bmp'],['female'],[[2]],['female'],[[1]],[[0.37128135]],GHA
365,[[20]],[[366]],[[6]],['high holistic'],['right'],['inverted'],['U0106.bmp'],['female'],[[4]],['female'],[[1]],[[0.36426307]],GHA
366,[[20]],[[367]],[[18]],['low holistic'],['left'],['inverted'],['U0359.bmp'],['male'],[[12]],['male'],[[1]],[[0.3414089]],GHA
367,[[20]],[[368]],[[12]],['high holistic'],['right'],['upright'],['U0178.bmp'],['male'],[[10]],['female'],[[0]],[[0.79312168]],GHA
368,[[20]],[[369]],[[4]],['low holistic'],['right'],['upright'],['U0061.bmp'],['female'],[[4]],['female'],[[1]],[[0.37714931]],GHA
369,[[20]],[[370]],[[1]],['low holistic'],['right'],['inverted'],['U0006.bmp'],['female'],[[10]],['female'],[[1]],[[1.03260572]],GHA
370,[[20]],[[371]],[[20]],['low holistic'],['right'],['upright'],['U0362.bmp'],['male'],[[6]],['male'],[[1]],[[0.53531436]],GHA
371,[[20]],[[372]],[[11]],['low holistic'],['right'],['inverted'],['U0164.bmp'],['female'],[[4]],['female'],[[1]],[[0.41115565]],GHA
372,[[20]],[[373]],[[18]],['low holistic'],['left'],['upright'],['U0359.bmp'],['male'],[[4]],['male'],[[1]],[[1.84141195]],GHA
373,[[20]],[[374]],[[20]],['high holistic'],['left'],['upright'],['U0362.bmp'],['female'],[[2]],['female'],[[1]],[[0.4966178]],GHA
374,[[20]],[[375]],[[3]],['high holistic'],['right'],['inverted'],['U0020.bmp'],['male'],[[4]],['female'],[[0]],[[1.39658917]],GHA
375,[[20]],[[376]],[[4]],['low holistic'],['left'],['inverted'],['U0061.bmp'],['female'],[[10]],['female'],[[1]],[[0.4296315]],GHA
376,[[20]],[[377]],[[3]],['low holistic'],['right'],['upright'],['U0020.bmp'],['female'],[[10]],['female'],[[1]],[[0.43581124]],GHA
377,[[20]],[[378]],[[6]],['low holistic'],['left'],['upright'],['U0106.bmp'],['male'],[[4]],['male'],[[1]],[[0.4088992]],GHA
378,[[20]],[[379]],[[4]],['low holistic'],['left'],['inverted'],['U0061.bmp'],['female'],[[2]],['female'],[[1]],[[0.42431343]],GHA
379,[[20]],[[380]],[[5]],['high holistic'],['right'],['upright'],['U0076.bmp'],['female'],[[10]],['male'],[[0]],[[0.82352084]],GHA
380,[[20]],[[381]],[[6]],['high holistic'],['right'],['inverted'],['U0106.bmp'],['female'],[[4]],['female'],[[1]],[[0.41529175]],GHA
381,[[20]],[[382]],[[10]],['high holistic'],['right'],['upright'],['U0159.bmp'],['male'],[[6]],['male'],[[1]],[[0.43047541]],GHA
382,[[20]],[[383]],[[15]],['high holistic'],['right'],['inverted'],['U0312.bmp'],['male'],[[6]],['female'],[[0]],[[0.4059153]],GHA
383,[[20]],[[384]],[[6]],['high holistic'],['right'],['inverted'],['U0106.bmp'],['female'],[[10]],['female'],[[1]],[[0.3809335]],GHA
384,[[20]],[[385]],[[7]],['high holistic'],['right'],['inverted'],['U0107.bmp'],['female'],[[8]],['female'],[[1]],[[0.43085934]],GHA
385,[[20]],[[386]],[[8]],['high holistic'],['left'],['upright'],['U0137.bmp'],['female'],[[6]],['female'],[[1]],[[0.78841903]],GHA
386,[[20]],[[387]],[[13]],['low holistic'],['left'],['upright'],['U0181.bmp'],['male'],[[12]],['male'],[[1]],[[0.40590099]],GHA
387,[[20]],[[388]],[[2]],['low holistic'],['left'],['upright'],['U0014.bmp'],['male'],[[6]],['male'],[[1]],[[1.44521813]],GHA
388,[[20]],[[389]],[[16]],['high holistic'],['right'],['upright'],['U0335.bmp'],['female'],[[4]],['female'],[[1]],[[0.43479493]],GHA
389,[[20]],[[390]],[[11]],['high holistic'],['left'],['upright'],['U0164.bmp'],['female'],[[6]],['female'],[[1]],[[0.71238985]],GHA
390,[[20]],[[391]],[[15]],['low holistic'],['right'],['upright'],['U0312.bmp'],['male'],[[6]],['male'],[[1]],[[0.56702961]],GHA
391,[[20]],[[392]],[[10]],['high holistic'],['right'],['inverted'],['U0159.bmp'],['male'],[[4]],['female'],[[0]],[[0.34467302]],GHA
392,[[20]],[[393]],[[20]],['low holistic'],['left'],['upright'],['U0362.bmp'],['male'],[[6]],['male'],[[1]],[[0.01833384]],GHA
393,[[20]],[[394]],[[19]],['low holistic'],['left'],['inverted'],['U0361.bmp'],['female'],[[4]],['female'],[[1]],[[9.98526812e-05]],GHA
394,[[20]],[[395]],[[11]],['low holistic'],['fovea'],['upright'],['U0164.bmp'],['female'],[[0]],['female'],[[1]],[[0.08067413]],GHA
395,[[20]],[[396]],[[11]],['low holistic'],['right'],['inverted'],['U0164.bmp'],['female'],[[10]],['female'],[[1]],[[0.22207986]],GHA
396,[[20]],[[397]],[[16]],['high holistic'],['right'],['inverted'],['U0335.bmp'],['female'],[[10]],['female'],[[1]],[[0.26821386]],GHA
397,[[20]],[[398]],[[6]],['low holistic'],['right'],['inverted'],['U0106.bmp'],['male'],[[2]],['male'],[[1]],[[0.14570969]],GHA
398,[[20]],[[399]],[[19]],['low holistic'],['left'],['inverted'],['U0361.bmp'],['female'],[[2]],['female'],[[1]],[[0.10743919]],GHA
399,[[20]],[[400]],[[2]],['low holistic'],['right'],['inverted'],['U0014.bmp'],['male'],[[6]],['male'],[[1]],[[0.36130995]],GHA
400,[[20]],[[401]],[[12]],['low holistic'],['left'],['inverted'],['U0178.bmp'],['female'],[[12]],['female'],[[1]],[[0.3460786]],GHA
401,[[20]],[[402]],[[6]],['high holistic'],['fovea'],['inverted'],['U0106.bmp'],['female'],[[0]],['female'],[[1]],[[0.274749]],GHA
402,[[20]],[[403]],[[14]],['low holistic'],['left'],['upright'],['U0228.bmp'],['male'],[[12]],['male'],[[1]],[[0.27285635]],GHA
403,[[20]],[[404]],[[8]],['low holistic'],['right'],['upright'],['U0137.bmp'],['male'],[[12]],['male'],[[1]],[[0.1508326]],GHA
404,[[20]],[[405]],[[9]],['high holistic'],['right'],['upright'],['U0155.bmp'],['female'],[[10]],['female'],[[1]],[[0.3348577]],GHA
405,[[20]],[[406]],[[1]],['high holistic'],['right'],['inverted'],['U0006.bmp'],['female'],[[4]],['female'],[[1]],[[0.29813088]],GHA
406,[[20]],[[407]],[[11]],['low holistic'],['fovea'],['inverted'],['U0164.bmp'],['female'],[[0]],['female'],[[1]],[[0.28659729]],GHA
407,[[20]],[[408]],[[15]],['low holistic'],['left'],['inverted'],['U0312.bmp'],['male'],[[6]],['male'],[[1]],[[0.3944152]],GHA
408,[[20]],[[409]],[[11]],['high holistic'],['left'],['inverted'],['U0164.bmp'],['female'],[[8]],['male'],[[0]],[[0.93935289]],GHA
409,[[20]],[[410]],[[3]],['low holistic'],['right'],['inverted'],['U0020.bmp'],['female'],[[6]],['female'],[[1]],[[0.28400406]],GHA
410,[[20]],[[411]],[[19]],['high holistic'],['right'],['upright'],['U0361.bmp'],['female'],[[12]],['male'],[[0]],[[0.57661715]],GHA
411,[[20]],[[412]],[[16]],['high holistic'],['left'],['upright'],['U0335.bmp'],['female'],[[10]],['female'],[[1]],[[0.31416675]],GHA
412,[[20]],[[413]],[[6]],['high holistic'],['left'],['upright'],['U0106.bmp'],['female'],[[4]],['female'],[[1]],[[0.8940343]],GHA
413,[[20]],[[414]],[[6]],['low holistic'],['left'],['upright'],['U0106.bmp'],['male'],[[6]],['male'],[[1]],[[0.69842574]],GHA
414,[[20]],[[415]],[[4]],['low holistic'],['left'],['upright'],['U0061.bmp'],['female'],[[6]],['female'],[[1]],[[0.34201971]],GHA
415,[[20]],[[416]],[[18]],['high holistic'],['right'],['upright'],['U0359.bmp'],['male'],[[10]],['male'],[[1]],[[0.38542429]],GHA
416,[[20]],[[417]],[[2]],['high holistic'],['right'],['upright'],['U0014.bmp'],['male'],[[4]],['male'],[[1]],[[0.40920394]],GHA
417,[[20]],[[418]],[[19]],['high holistic'],['right'],['upright'],['U0361.bmp'],['female'],[[6]],['female'],[[1]],[[0.2493157]],GHA
418,[[20]],[[419]],[[12]],['low holistic'],['right'],['inverted'],['U0178.bmp'],['female'],[[12]],['female'],[[1]],[[0.31832787]],GHA
419,[[20]],[[420]],[[17]],['high holistic'],['left'],['inverted'],['U0346.bmp'],['male'],[[4]],['male'],[[1]],[[0.44974378]],GHA
420,[[20]],[[421]],[[17]],['high holistic'],['left'],['upright'],['U0346.bmp'],['male'],[[2]],['male'],[[1]],[[0.4470721]],GHA
421,[[20]],[[422]],[[16]],['high holistic'],['right'],['inverted'],['U0335.bmp'],['female'],[[6]],['female'],[[1]],[[0.28468168]],GHA
422,[[20]],[[423]],[[20]],['high holistic'],['fovea'],['upright'],['U0362.bmp'],['female'],[[0]],['female'],[[1]],[[0.36756334]],GHA
423,[[20]],[[424]],[[16]],['high holistic'],['left'],['inverted'],['U0335.bmp'],['female'],[[2]],['female'],[[1]],[[0.48144518]],GHA
424,[[20]],[[425]],[[11]],['high holistic'],['right'],['upright'],['U0164.bmp'],['female'],[[4]],['female'],[[1]],[[0.26188272]],GHA
425,[[20]],[[426]],[[4]],['high holistic'],['left'],['inverted'],['U0061.bmp'],['female'],[[4]],['female'],[[1]],[[0.25138945]],GHA
426,[[20]],[[427]],[[5]],['low holistic'],['right'],['inverted'],['U0076.bmp'],['male'],[[4]],['male'],[[1]],[[0.24916606]],GHA
427,[[20]],[[428]],[[5]],['low holistic'],['right'],['upright'],['U0076.bmp'],['male'],[[10]],['male'],[[1]],[[0.30192562]],GHA
428,[[20]],[[429]],[[20]],['low holistic'],['right'],['inverted'],['U0362.bmp'],['male'],[[8]],['male'],[[1]],[[0.27382779]],GHA
429,[[20]],[[430]],[[18]],['low holistic'],['left'],['inverted'],['U0359.bmp'],['male'],[[8]],['male'],[[1]],[[1.35270416]],GHA
430,[[20]],[[431]],[[17]],['low holistic'],['right'],['inverted'],['U0346.bmp'],['female'],[[6]],['female'],[[1]],[[0.64124295]],GHA
431,[[20]],[[432]],[[11]],['low holistic'],['left'],['inverted'],['U0164.bmp'],['female'],[[12]],['female'],[[1]],[[0.59162012]],GHA
432,[[20]],[[433]],[[1]],['low holistic'],['left'],['upright'],['U0006.bmp'],['female'],[[2]],['female'],[[1]],[[0.34487826]],GHA
433,[[20]],[[434]],[[2]],['high holistic'],['left'],['upright'],['U0014.bmp'],['male'],[[2]],['male'],[[1]],[[0.24186422]],GHA
434,[[20]],[[435]],[[1]],['high holistic'],['right'],['inverted'],['U0006.bmp'],['female'],[[12]],['female'],[[1]],[[0.48119831]],GHA
435,[[20]],[[436]],[[10]],['high holistic'],['right'],['inverted'],['U0159.bmp'],['male'],[[6]],['female'],[[0]],[[0.19702004]],GHA
436,[[20]],[[437]],[[4]],['high holistic'],['left'],['inverted'],['U0061.bmp'],['female'],[[10]],['female'],[[1]],[[1.42070105]],GHA
437,[[20]],[[438]],[[16]],['low holistic'],['right'],['upright'],['U0335.bmp'],['female'],[[8]],['female'],[[1]],[[0.33196025]],GHA
438,[[20]],[[439]],[[1]],['high holistic'],['right'],['upright'],['U0006.bmp'],['female'],[[4]],['female'],[[1]],[[0.25594744]],GHA
439,[[20]],[[440]],[[7]],['low holistic'],['left'],['inverted'],['U0107.bmp'],['female'],[[4]],['female'],[[1]],[[0.276264]],GHA
440,[[20]],[[441]],[[17]],['low holistic'],['right'],['inverted'],['U0346.bmp'],['female'],[[6]],['female'],[[1]],[[0.19293371]],GHA
441,[[20]],[[442]],[[5]],['low holistic'],['right'],['inverted'],['U0076.bmp'],['male'],[[2]],['male'],[[1]],[[0.20049376]],GHA
442,[[20]],[[443]],[[5]],['low holistic'],['fovea'],['upright'],['U0076.bmp'],['male'],[[0]],['male'],[[1]],[[0.32141984]],GHA
443,[[20]],[[444]],[[20]],['high holistic'],['left'],['inverted'],['U0362.bmp'],['female'],[[12]],['male'],[[0]],[[0.60364001]],GHA
444,[[20]],[[445]],[[16]],['low holistic'],['fovea'],['upright'],['U0335.bmp'],['female'],[[0]],['female'],[[1]],[[0.30799249]],GHA
445,[[20]],[[446]],[[10]],['high holistic'],['left'],['upright'],['U0159.bmp'],['male'],[[4]],['male'],[[1]],[[0.25437088]],GHA
446,[[20]],[[447]],[[7]],['high holistic'],['left'],['upright'],['U0107.bmp'],['female'],[[12]],['male'],[[0]],[[0.26925344]],GHA
447,[[20]],[[448]],[[17]],['low holistic'],['left'],['inverted'],['U0346.bmp'],['female'],[[10]],['female'],[[1]],[[0.27409283]],GHA
448,[[20]],[[449]],[[10]],['low holistic'],['fovea'],['upright'],['U0159.bmp'],['female'],[[0]],['female'],[[1]],[[0.28668015]],GHA
449,[[20]],[[450]],[[19]],['low holistic'],['left'],['inverted'],['U0361.bmp'],['female'],[[6]],['female'],[[1]],[[0.03628331]],GHA
450,[[20]],[[451]],[[19]],['high holistic'],['right'],['inverted'],['U0361.bmp'],['female'],[[12]],['male'],[[0]],[[9.99327749e-05]],GHA
451,[[20]],[[452]],[[20]],['high holistic'],['right'],['upright'],['U0362.bmp'],['female'],[[8]],['male'],[[0]],[[0.57620481]],GHA
452,[[20]],[[453]],[[18]],['high holistic'],['right'],['inverted'],['U0359.bmp'],['male'],[[6]],['male'],[[1]],[[1.18552947]],GHA
453,[[20]],[[454]],[[4]],['low holistic'],['right'],['upright'],['U0061.bmp'],['female'],[[2]],['female'],[[1]],[[0.28332276]],GHA
454,[[20]],[[455]],[[8]],['low holistic'],['right'],['inverted'],['U0137.bmp'],['male'],[[12]],['male'],[[1]],[[0.00010605]],GHA
455,[[20]],[[456]],[[20]],['low holistic'],['right'],['upright'],['U0362.bmp'],['male'],[[10]],['male'],[[1]],[[0.1028736]],GHA
456,[[20]],[[457]],[[20]],['high holistic'],['right'],['upright'],['U0362.bmp'],['female'],[[6]],['female'],[[1]],[[0.30583736]],GHA
457,[[20]],[[458]],[[5]],['high holistic'],['left'],['upright'],['U0076.bmp'],['female'],[[8]],['female'],[[1]],[[0.2131382]],GHA
458,[[20]],[[459]],[[5]],['high holistic'],['left'],['inverted'],['U0076.bmp'],['female'],[[10]],['male'],[[0]],[[0.60445953]],GHA
459,[[20]],[[460]],[[13]],['low holistic'],['left'],['inverted'],['U0181.bmp'],['male'],[[12]],['male'],[[1]],[[0.1878108]],GHA
460,[[20]],[[461]],[[4]],['high holistic'],['right'],['inverted'],['U0061.bmp'],['female'],[[12]],['female'],[[1]],[[2.7151055]],GHA
461,[[20]],[[462]],[[8]],['high holistic'],['left'],['inverted'],['U0137.bmp'],['female'],[[2]],['female'],[[1]],[[0.50203773]],GHA
462,[[20]],[[463]],[[12]],['low holistic'],['right'],['upright'],['U0178.bmp'],['female'],[[12]],['female'],[[1]],[[0.25939548]],GHA
463,[[20]],[[464]],[[4]],['high holistic'],['left'],['inverted'],['U0061.bmp'],['female'],[[6]],['female'],[[1]],[[0.24734409]],GHA
464,[[20]],[[465]],[[17]],['high holistic'],['left'],['upright'],['U0346.bmp'],['male'],[[8]],['male'],[[1]],[[0.22899379]],GHA
465,[[20]],[[466]],[[6]],['low holistic'],['right'],['upright'],['U0106.bmp'],['male'],[[12]],['male'],[[1]],[[0.2673442]],GHA
466,[[20]],[[467]],[[19]],['low holistic'],['left'],['inverted'],['U0361.bmp'],['female'],[[10]],['female'],[[1]],[[0.29550008]],GHA
467,[[20]],[[468]],[[18]],['high holistic'],['right'],['inverted'],['U0359.bmp'],['male'],[[8]],['female'],[[0]],[[0.38963828]],GHA
468,[[20]],[[469]],[[17]],['high holistic'],['left'],['upright'],['U0346.bmp'],['male'],[[12]],['male'],[[1]],[[1.10214326]],GHA
469,[[20]],[[470]],[[7]],['high holistic'],['left'],['upright'],['U0107.bmp'],['female'],[[8]],['female'],[[1]],[[0.42305526]],GHA
470,[[20]],[[471]],[[6]],['low holistic'],['right'],['upright'],['U0106.bmp'],['male'],[[10]],['male'],[[1]],[[1.08728969]],GHA
471,[[20]],[[472]],[[1]],['high holistic'],['left'],['inverted'],['U0006.bmp'],['female'],[[10]],['female'],[[1]],[[0.42745269]],GHA
472,[[20]],[[473]],[[11]],['low holistic'],['left'],['upright'],['U0164.bmp'],['female'],[[4]],['female'],[[1]],[[0.17689779]],GHA
473,[[20]],[[474]],[[3]],['high holistic'],['right'],['inverted'],['U0020.bmp'],['male'],[[8]],['female'],[[0]],[[0.32340389]],GHA
474,[[20]],[[475]],[[19]],['low holistic'],['right'],['upright'],['U0361.bmp'],['female'],[[4]],['female'],[[1]],[[0.21377278]],GHA
475,[[20]],[[476]],[[7]],['low holistic'],['right'],['upright'],['U0107.bmp'],['female'],[[4]],['female'],[[1]],[[9.76826996e-05]],GHA
476,[[20]],[[477]],[[2]],['low holistic'],['right'],['inverted'],['U0014.bmp'],['male'],[[2]],['male'],[[1]],[[0.27604404]],GHA
477,[[20]],[[478]],[[19]],['high holistic'],['left'],['inverted'],['U0361.bmp'],['female'],[[6]],['female'],[[1]],[[0.20114633]],GHA
478,[[20]],[[479]],[[13]],['low holistic'],['left'],['upright'],['U0181.bmp'],['male'],[[6]],['male'],[[1]],[[0.06488872]],GHA
479,[[20]],[[480]],[[3]],['high holistic'],['right'],['upright'],['U0020.bmp'],['male'],[[10]],['female'],[[0]],[[0.46102045]],GHA
480,[[20]],[[481]],[[6]],['high holistic'],['right'],['upright'],['U0106.bmp'],['female'],[[4]],['female'],[[1]],[[0.4511179]],GHA
481,[[20]],[[482]],[[12]],['low holistic'],['left'],['upright'],['U0178.bmp'],['female'],[[8]],['female'],[[1]],[[0.22422816]],GHA
482,[[20]],[[483]],[[20]],['low holistic'],['left'],['upright'],['U0362.bmp'],['male'],[[8]],['male'],[[1]],[[0.24772583]],GHA
483,[[20]],[[484]],[[18]],['high holistic'],['right'],['upright'],['U0359.bmp'],['male'],[[12]],['female'],[[0]],[[0.2772418]],GHA
484,[[20]],[[485]],[[16]],['low holistic'],['left'],['inverted'],['U0335.bmp'],['female'],[[4]],['female'],[[1]],[[0.27449382]],GHA
485,[[20]],[[486]],[[2]],['high holistic'],['right'],['inverted'],['U0014.bmp'],['male'],[[2]],['male'],[[1]],[[0.24005118]],GHA
486,[[20]],[[487]],[[5]],['low holistic'],['right'],['inverted'],['U0076.bmp'],['male'],[[4]],['male'],[[1]],[[0.18211029]],GHA
487,[[20]],[[488]],[[6]],['low holistic'],['right'],['upright'],['U0106.bmp'],['male'],[[6]],['male'],[[1]],[[0.38158152]],GHA
488,[[20]],[[489]],[[12]],['low holistic'],['right'],['upright'],['U0178.bmp'],['female'],[[4]],['female'],[[1]],[[0.25453853]],GHA
489,[[20]],[[490]],[[18]],['high holistic'],['right'],['inverted'],['U0359.bmp'],['male'],[[12]],['male'],[[1]],[[0.68324611]],GHA
490,[[20]],[[491]],[[6]],['high holistic'],['right'],['upright'],['U0106.bmp'],['female'],[[12]],['male'],[[0]],[[0.19852033]],GHA
491,[[20]],[[492]],[[3]],['high holistic'],['left'],['upright'],['U0020.bmp'],['male'],[[12]],['female'],[[0]],[[0.56033943]],GHA
492,[[20]],[[493]],[[6]],['high holistic'],['left'],['upright'],['U0106.bmp'],['female'],[[12]],['female'],[[1]],[[0.44092208]],GHA
493,[[20]],[[494]],[[8]],['low holistic'],['fovea'],['inverted'],['U0137.bmp'],['male'],[[0]],['male'],[[1]],[[0.42325517]],GHA
494,[[20]],[[495]],[[4]],['low holistic'],['left'],['inverted'],['U0061.bmp'],['female'],[[4]],['female'],[[1]],[[0.22872053]],GHA
495,[[20]],[[496]],[[5]],['low holistic'],['left'],['inverted'],['U0076.bmp'],['male'],[[6]],['male'],[[1]],[[0.21100891]],GHA
496,[[20]],[[497]],[[3]],['low holistic'],['right'],['upright'],['U0020.bmp'],['female'],[[4]],['female'],[[1]],[[0.14632074]],GHA
497,[[20]],[[498]],[[1]],['high holistic'],['fovea'],['inverted'],['U0006.bmp'],['female'],[[0]],['female'],[[1]],[[0.44437435]],GHA
498,[[20]],[[499]],[[2]],['high holistic'],['fovea'],['upright'],['U0014.bmp'],['male'],[[0]],['male'],[[1]],[[0.17996292]],GHA
499,[[20]],[[500]],[[6]],['low holistic'],['right'],['upright'],['U0106.bmp'],['male'],[[4]],['male'],[[1]],[[0.19564329]],GHA
500,[[20]],[[501]],[[6]],['high holistic'],['fovea'],['upright'],['U0106.bmp'],['female'],[[0]],['female'],[[1]],[[0.12378088]],GHA
501,[[20]],[[502]],[[1]],['high holistic'],['left'],['upright'],['U0006.bmp'],['female'],[[4]],['female'],[[1]],[[0.00017328]],GHA
502,[[20]],[[503]],[[13]],['high holistic'],['right'],['inverted'],['U0181.bmp'],['female'],[[4]],['female'],[[1]],[[0.0001177]],GHA
503,[[20]],[[504]],[[8]],['low holistic'],['right'],['upright'],['U0137.bmp'],['male'],[[2]],['male'],[[1]],[[0.00017922]],GHA
504,[[20]],[[505]],[[9]],['low holistic'],['fovea'],['inverted'],['U0155.bmp'],['male'],[[0]],['male'],[[1]],[[0.13253349]],GHA
505,[[20]],[[506]],[[7]],['high holistic'],['right'],['upright'],['U0107.bmp'],['female'],[[4]],['female'],[[1]],[[0.06314355]],GHA
506,[[20]],[[507]],[[4]],['high holistic'],['left'],['upright'],['U0061.bmp'],['female'],[[2]],['female'],[[1]],[[0.11672587]],GHA
507,[[20]],[[508]],[[19]],['low holistic'],['right'],['inverted'],['U0361.bmp'],['female'],[[12]],['female'],[[1]],[[2.95276808]],GHA
508,[[20]],[[509]],[[1]],['low holistic'],['left'],['upright'],['U0006.bmp'],['female'],[[12]],['female'],[[1]],[[0.14654444]],GHA
509,[[20]],[[510]],[[4]],['high holistic'],['right'],['inverted'],['U0061.bmp'],['female'],[[10]],['female'],[[1]],[[0.20263008]],GHA
510,[[20]],[[511]],[[3]],['high holistic'],['right'],['inverted'],['U0020.bmp'],['male'],[[12]],['female'],[[0]],[[0.21969351]],GHA
511,[[20]],[[512]],[[4]],['low holistic'],['left'],['inverted'],['U0061.bmp'],['female'],[[2]],['female'],[[1]],[[0.00010066]],GHA
512,[[20]],[[513]],[[16]],['high holistic'],['fovea'],['inverted'],['U0335.bmp'],['female'],[[0]],['female'],[[1]],[[0.04976973]],GHA
513,[[20]],[[514]],[[2]],['high holistic'],['left'],['inverted'],['U0014.bmp'],['male'],[[4]],['male'],[[1]],[[0.1592328]],GHA
514,[[20]],[[515]],[[7]],['low holistic'],['left'],['inverted'],['U0107.bmp'],['female'],[[12]],['female'],[[1]],[[0.02438175]],GHA
515,[[20]],[[516]],[[5]],['low holistic'],['right'],['inverted'],['U0076.bmp'],['male'],[[6]],['male'],[[1]],[[0.0148505]],GHA
516,[[20]],[[517]],[[17]],['low holistic'],['right'],['inverted'],['U0346.bmp'],['female'],[[12]],['female'],[[1]],[[0.47771283]],GHA
517,[[20]],[[518]],[[2]],['high holistic'],['right'],['upright'],['U0014.bmp'],['male'],[[6]],['male'],[[1]],[[0.05144558]],GHA
518,[[20]],[[519]],[[19]],['high holistic'],['left'],['inverted'],['U0361.bmp'],['female'],[[6]],['female'],[[1]],[[0.12138437]],GHA
519,[[20]],[[520]],[[11]],['high holistic'],['right'],['upright'],['U0164.bmp'],['female'],[[6]],['male'],[[0]],[[0.00012472]],GHA
520,[[20]],[[521]],[[1]],['high holistic'],['right'],['upright'],['U0006.bmp'],['female'],[[8]],['female'],[[1]],[[0.97016173]],GHA
521,[[20]],[[522]],[[17]],['high holistic'],['left'],['upright'],['U0346.bmp'],['male'],[[6]],['male'],[[1]],[[0.13662647]],GHA
522,[[20]],[[523]],[[10]],['low holistic'],['right'],['inverted'],['U0159.bmp'],['female'],[[4]],['female'],[[1]],[[0.00018406]],GHA
523,[[20]],[[524]],[[11]],['low holistic'],['left'],['upright'],['U0164.bmp'],['female'],[[4]],['female'],[[1]],[[0.0001987]],GHA
524,[[20]],[[525]],[[15]],['low holistic'],['right'],['inverted'],['U0312.bmp'],['male'],[[2]],['male'],[[1]],[[0.65182617]],GHA
525,[[20]],[[526]],[[2]],['low holistic'],['left'],['upright'],['U0014.bmp'],['male'],[[12]],['male'],[[1]],[[0.40984612]],GHA
526,[[20]],[[527]],[[1]],['high holistic'],['right'],['inverted'],['U0006.bmp'],['female'],[[8]],['male'],[[0]],[[0.00012477]],GHA
527,[[20]],[[528]],[[7]],['low holistic'],['right'],['upright'],['U0107.bmp'],['female'],[[6]],['female'],[[1]],[[0.02584586]],GHA
528,[[20]],[[529]],[[20]],['low holistic'],['right'],['upright'],['U0362.bmp'],['male'],[[8]],['male'],[[1]],[[0.05621248]],GHA
529,[[20]],[[530]],[[19]],['high holistic'],['right'],['inverted'],['U0361.bmp'],['female'],[[2]],['female'],[[1]],[[0.02890525]],GHA
530,[[20]],[[531]],[[2]],['low holistic'],['left'],['inverted'],['U0014.bmp'],['male'],[[12]],['male'],[[1]],[[0.50775074]],GHA
531,[[20]],[[532]],[[5]],['high holistic'],['left'],['inverted'],['U0076.bmp'],['female'],[[8]],['female'],[[1]],[[0.52704508]],GHA
532,[[20]],[[533]],[[4]],['low holistic'],['right'],['upright'],['U0061.bmp'],['female'],[[10]],['female'],[[1]],[[0.31213876]],GHA
533,[[20]],[[534]],[[19]],['low holistic'],['left'],['upright'],['U0361.bmp'],['female'],[[2]],['female'],[[1]],[[0.49353957]],GHA
534,[[20]],[[535]],[[3]],['low holistic'],['left'],['upright'],['U0020.bmp'],['female'],[[6]],['female'],[[1]],[[0.00652597]],GHA
535,[[20]],[[536]],[[2]],['high holistic'],['right'],['upright'],['U0014.bmp'],['male'],[[12]],['male'],[[1]],[[0.00010396]],GHA
536,[[20]],[[537]],[[2]],['high holistic'],['right'],['inverted'],['U0014.bmp'],['male'],[[12]],['male'],[[1]],[[0.1423708]],GHA
537,[[20]],[[538]],[[9]],['low holistic'],['right'],['upright'],['U0155.bmp'],['male'],[[10]],['male'],[[1]],[[0.20266482]],GHA
538,[[20]],[[539]],[[5]],['low holistic'],['left'],['inverted'],['U0076.bmp'],['male'],[[10]],['male'],[[1]],[[0.00879753]],GHA
539,[[20]],[[540]],[[11]],['high holistic'],['left'],['upright'],['U0164.bmp'],['female'],[[4]],['female'],[[1]],[[0.00011371]],GHA
540,[[20]],[[541]],[[10]],['high holistic'],['right'],['inverted'],['U0159.bmp'],['male'],[[2]],['male'],[[1]],[[1.23226406]],GHA
541,[[20]],[[542]],[[2]],['low holistic'],['right'],['upright'],['U0014.bmp'],['male'],[[6]],['male'],[[1]],[[0.63750338]],GHA
542,[[20]],[[543]],[[20]],['low holistic'],['right'],['upright'],['U0362.bmp'],['male'],[[12]],['male'],[[1]],[[0.09175974]],GHA
543,[[20]],[[544]],[[19]],['low holistic'],['fovea'],['inverted'],['U0361.bmp'],['female'],[[0]],['female'],[[1]],[[0.20041869]],GHA
544,[[20]],[[545]],[[1]],['low holistic'],['left'],['upright'],['U0006.bmp'],['female'],[[2]],['female'],[[1]],[[2.76720683]],GHA
545,[[20]],[[546]],[[4]],['high holistic'],['left'],['upright'],['U0061.bmp'],['female'],[[8]],['female'],[[1]],[[0.1295888]],GHA
546,[[20]],[[547]],[[14]],['high holistic'],['right'],['upright'],['U0228.bmp'],['male'],[[6]],['female'],[[0]],[[0.04243561]],GHA
547,[[20]],[[548]],[[2]],['high holistic'],['right'],['inverted'],['U0014.bmp'],['male'],[[2]],['male'],[[1]],[[0.24930349]],GHA
548,[[20]],[[549]],[[13]],['low holistic'],['right'],['upright'],['U0181.bmp'],['male'],[[8]],['male'],[[1]],[[0.18348353]],GHA
549,[[20]],[[550]],[[8]],['low holistic'],['right'],['upright'],['U0137.bmp'],['male'],[[12]],['male'],[[1]],[[1.00736995]],GHA
550,[[20]],[[551]],[[9]],['high holistic'],['left'],['upright'],['U0155.bmp'],['female'],[[4]],['female'],[[1]],[[0.2548441]],GHA
551,[[20]],[[552]],[[10]],['low holistic'],['left'],['upright'],['U0159.bmp'],['female'],[[10]],['female'],[[1]],[[0.25971222]],GHA
552,[[20]],[[553]],[[11]],['low holistic'],['right'],['inverted'],['U0164.bmp'],['female'],[[4]],['female'],[[1]],[[0.385637]],GHA
553,[[20]],[[554]],[[20]],['high holistic'],['left'],['inverted'],['U0362.bmp'],['female'],[[12]],['female'],[[1]],[[1.19444344]],GHA
554,[[20]],[[555]],[[3]],['high holistic'],['left'],['upright'],['U0020.bmp'],['male'],[[2]],['male'],[[1]],[[0.50517215]],GHA
555,[[20]],[[556]],[[16]],['low holistic'],['left'],['inverted'],['U0335.bmp'],['female'],[[6]],['male'],[[0]],[[0.84400936]],GHA
556,[[20]],[[557]],[[7]],['high holistic'],['left'],['inverted'],['U0107.bmp'],['female'],[[10]],['female'],[[1]],[[0.66023686]],GHA
557,[[20]],[[558]],[[10]],['high holistic'],['left'],['upright'],['U0159.bmp'],['male'],[[12]],['male'],[[1]],[[1.47196511]],GHA
558,[[20]],[[559]],[[11]],['high holistic'],['left'],['inverted'],['U0164.bmp'],['female'],[[4]],['female'],[[1]],[[0.42813241]],GHA
559,[[20]],[[560]],[[18]],['low holistic'],['left'],['upright'],['U0359.bmp'],['male'],[[2]],['male'],[[1]],[[0.64405783]],GHA
560,[[20]],[[561]],[[16]],['low holistic'],['left'],['inverted'],['U0335.bmp'],['female'],[[4]],['female'],[[1]],[[0.26562007]],GHA
561,[[20]],[[562]],[[16]],['low holistic'],['fovea'],['inverted'],['U0335.bmp'],['female'],[[0]],['female'],[[1]],[[1.36679544]],GHA
562,[[20]],[[563]],[[18]],['low holistic'],['right'],['inverted'],['U0359.bmp'],['male'],[[4]],['male'],[[1]],[[0.66437478]],GHA
563,[[20]],[[564]],[[17]],['high holistic'],['right'],['inverted'],['U0346.bmp'],['male'],[[8]],['male'],[[1]],[[0.38166439]],GHA
564,[[20]],[[565]],[[8]],['high holistic'],['fovea'],['upright'],['U0137.bmp'],['female'],[[0]],['female'],[[1]],[[0.30817813]],GHA
565,[[20]],[[566]],[[5]],['high holistic'],['fovea'],['inverted'],['U0076.bmp'],['female'],[[0]],['female'],[[1]],[[0.70424876]],GHA
566,[[20]],[[567]],[[13]],['low holistic'],['left'],['inverted'],['U0181.bmp'],['male'],[[2]],['male'],[[1]],[[0.13090155]],GHA
567,[[20]],[[568]],[[19]],['high holistic'],['right'],['inverted'],['U0361.bmp'],['female'],[[8]],['female'],[[1]],[[0.46259292]],GHA
568,[[20]],[[569]],[[9]],['high holistic'],['left'],['upright'],['U0155.bmp'],['female'],[[12]],['female'],[[1]],[[0.80370501]],GHA
569,[[20]],[[570]],[[13]],['low holistic'],['right'],['inverted'],['U0181.bmp'],['male'],[[12]],['male'],[[1]],[[0.49098948]],GHA
570,[[20]],[[571]],[[20]],['low holistic'],['right'],['upright'],['U0362.bmp'],['male'],[[6]],['male'],[[1]],[[0.28702004]],GHA
571,[[20]],[[572]],[[14]],['high holistic'],['left'],['inverted'],['U0228.bmp'],['male'],[[4]],['male'],[[1]],[[0.77879168]],GHA
572,[[20]],[[573]],[[3]],['high holistic'],['right'],['inverted'],['U0020.bmp'],['male'],[[6]],['male'],[[1]],[[1.29225992]],GHA
573,[[20]],[[574]],[[9]],['low holistic'],['right'],['upright'],['U0155.bmp'],['male'],[[8]],['male'],[[1]],[[0.42409463]],GHA
574,[[20]],[[575]],[[17]],['high holistic'],['right'],['upright'],['U0346.bmp'],['male'],[[6]],['male'],[[1]],[[0.25484123]],GHA
575,[[20]],[[576]],[[2]],['low holistic'],['left'],['upright'],['U0014.bmp'],['male'],[[10]],['male'],[[1]],[[0.22873121]],GHA
576,[[20]],[[577]],[[13]],['low holistic'],['right'],['inverted'],['U0181.bmp'],['male'],[[12]],['male'],[[1]],[[0.26740247]],GHA
577,[[20]],[[578]],[[19]],['low holistic'],['left'],['upright'],['U0361.bmp'],['female'],[[8]],['female'],[[1]],[[0.31937865]],GHA
578,[[20]],[[579]],[[1]],['high holistic'],['right'],['inverted'],['U0006.bmp'],['female'],[[4]],['female'],[[1]],[[0.3139358]],GHA
579,[[20]],[[580]],[[5]],['high holistic'],['right'],['upright'],['U0076.bmp'],['female'],[[6]],['female'],[[1]],[[0.45421731]],GHA
580,[[20]],[[581]],[[17]],['high holistic'],['right'],['upright'],['U0346.bmp'],['male'],[[10]],['male'],[[1]],[[0.01257403]],GHA
581,[[20]],[[582]],[[13]],['low holistic'],['right'],['upright'],['U0181.bmp'],['male'],[[2]],['male'],[[1]],[[0.1308832]],GHA
582,[[20]],[[583]],[[1]],['low holistic'],['left'],['upright'],['U0006.bmp'],['female'],[[2]],['female'],[[1]],[[0.00418127]],GHA
583,[[20]],[[584]],[[1]],['high holistic'],['left'],['inverted'],['U0006.bmp'],['female'],[[2]],['female'],[[1]],[[0.05211298]],GHA
584,[[20]],[[585]],[[4]],['high holistic'],['right'],['inverted'],['U0061.bmp'],['female'],[[2]],['female'],[[1]],[[0.00035146]],GHA
585,[[20]],[[586]],[[1]],['high holistic'],['right'],['upright'],['U0006.bmp'],['female'],[[12]],['female'],[[1]],[[0.13000323]],GHA
586,[[20]],[[587]],[[4]],['low holistic'],['right'],['inverted'],['U0061.bmp'],['female'],[[6]],['female'],[[1]],[[0.06821868]],GHA
587,[[20]],[[588]],[[20]],['low holistic'],['right'],['inverted'],['U0362.bmp'],['male'],[[2]],['male'],[[1]],[[0.02558524]],GHA
588,[[20]],[[589]],[[10]],['low holistic'],['left'],['inverted'],['U0159.bmp'],['female'],[[6]],['female'],[[1]],[[9.88710672e-05]],GHA
589,[[20]],[[590]],[[9]],['high holistic'],['right'],['inverted'],['U0155.bmp'],['female'],[[10]],['male'],[[0]],[[0.35297304]],GHA
590,[[20]],[[591]],[[13]],['high holistic'],['right'],['upright'],['U0181.bmp'],['female'],[[4]],['female'],[[1]],[[9.99141484e-05]],GHA
591,[[20]],[[592]],[[10]],['high holistic'],['left'],['upright'],['U0159.bmp'],['male'],[[10]],['female'],[[0]],[[0.02541741]],GHA
592,[[20]],[[593]],[[3]],['low holistic'],['right'],['upright'],['U0020.bmp'],['female'],[[12]],['female'],[[1]],[[0.04006095]],GHA
593,[[20]],[[594]],[[11]],['high holistic'],['left'],['inverted'],['U0164.bmp'],['female'],[[2]],['female'],[[1]],[[0.08529768]],GHA
594,[[20]],[[595]],[[9]],['high holistic'],['fovea'],['upright'],['U0155.bmp'],['female'],[[0]],['female'],[[1]],[[0.00010925]],GHA
595,[[20]],[[596]],[[20]],['low holistic'],['right'],['upright'],['U0362.bmp'],['male'],[[10]],['male'],[[1]],[[0.09792046]],GHA
596,[[20]],[[597]],[[4]],['low holistic'],['fovea'],['upright'],['U0061.bmp'],['female'],[[0]],['female'],[[1]],[[0.00048411]],GHA
597,[[20]],[[598]],[[18]],['low holistic'],['right'],['upright'],['U0359.bmp'],['male'],[[4]],['male'],[[1]],[[0.30091765]],GHA
598,[[20]],[[599]],[[15]],['low holistic'],['left'],['upright'],['U0312.bmp'],['male'],[[6]],['male'],[[1]],[[0.12170729]],GHA
599,[[20]],[[600]],[[12]],['high holistic'],['right'],['inverted'],['U0178.bmp'],['male'],[[12]],['female'],[[0]],[[0.11629548]],GHA
600,[[20]],[[601]],[[16]],['low holistic'],['left'],['inverted'],['U0335.bmp'],['female'],[[2]],['female'],[[1]],[[0.07888642]],GHA
601,[[20]],[[602]],[[17]],['low holistic'],['left'],['upright'],['U0346.bmp'],['female'],[[4]],['female'],[[1]],[[0.19434561]],GHA
602,[[20]],[[603]],[[13]],['low holistic'],['right'],['upright'],['U0181.bmp'],['male'],[[12]],['male'],[[1]],[[0.0001954]],GHA
603,[[20]],[[604]],[[11]],['low holistic'],['left'],['inverted'],['U0164.bmp'],['female'],[[12]],['female'],[[1]],[[0.03429522]],GHA
604,[[20]],[[605]],[[12]],['low holistic'],['fovea'],['upright'],['U0178.bmp'],['female'],[[0]],['female'],[[1]],[[0.00010628]],GHA
605,[[20]],[[606]],[[7]],['low holistic'],['left'],['inverted'],['U0107.bmp'],['female'],[[10]],['female'],[[1]],[[0.00010571]],GHA
606,[[20]],[[607]],[[18]],['low holistic'],['left'],['inverted'],['U0359.bmp'],['male'],[[8]],['male'],[[1]],[[0.20897322]],GHA
607,[[20]],[[608]],[[5]],['low holistic'],['right'],['inverted'],['U0076.bmp'],['male'],[[12]],['male'],[[1]],[[0.22361019]],GHA
608,[[20]],[[609]],[[12]],['high holistic'],['left'],['upright'],['U0178.bmp'],['male'],[[10]],['male'],[[1]],[[0.14170573]],GHA
609,[[20]],[[610]],[[6]],['high holistic'],['left'],['inverted'],['U0106.bmp'],['female'],[[8]],['female'],[[1]],[[0.26458785]],GHA
610,[[20]],[[611]],[[6]],['low holistic'],['right'],['upright'],['U0106.bmp'],['male'],[[2]],['male'],[[1]],[[0.0001342]],GHA
611,[[20]],[[612]],[[2]],['low holistic'],['right'],['upright'],['U0014.bmp'],['male'],[[4]],['male'],[[1]],[[0.00496756]],GHA
612,[[20]],[[613]],[[5]],['high holistic'],['right'],['inverted'],['U0076.bmp'],['female'],[[6]],['male'],[[0]],[[0.13159236]],GHA
613,[[20]],[[614]],[[20]],['high holistic'],['left'],['upright'],['U0362.bmp'],['female'],[[4]],['female'],[[1]],[[0.05538507]],GHA
614,[[20]],[[615]],[[2]],['low holistic'],['left'],['inverted'],['U0014.bmp'],['male'],[[4]],['male'],[[1]],[[0.22084224]],GHA
615,[[20]],[[616]],[[2]],['low holistic'],['right'],['upright'],['U0014.bmp'],['male'],[[2]],['male'],[[1]],[[0.00035303]],GHA
616,[[20]],[[617]],[[19]],['high holistic'],['left'],['upright'],['U0361.bmp'],['female'],[[12]],['male'],[[0]],[[0.13955369]],GHA
617,[[20]],[[618]],[[15]],['high holistic'],['left'],['upright'],['U0312.bmp'],['male'],[[10]],['male'],[[1]],[[0.16411998]],GHA
618,[[20]],[[619]],[[5]],['low holistic'],['left'],['upright'],['U0076.bmp'],['male'],[[2]],['male'],[[1]],[[0.11101279]],GHA
619,[[20]],[[620]],[[2]],['low holistic'],['left'],['upright'],['U0014.bmp'],['male'],[[8]],['male'],[[1]],[[0.03337216]],GHA
620,[[20]],[[621]],[[17]],['low holistic'],['right'],['upright'],['U0346.bmp'],['female'],[[2]],['male'],[[0]],[[0.0001047]],GHA
621,[[20]],[[622]],[[5]],['high holistic'],['right'],['inverted'],['U0076.bmp'],['female'],[[6]],['male'],[[0]],[[0.00733725]],GHA
622,[[20]],[[623]],[[2]],['high holistic'],['left'],['inverted'],['U0014.bmp'],['male'],[[6]],['female'],[[0]],[[9.78391618e-05]],GHA
623,[[20]],[[624]],[[4]],['low holistic'],['right'],['inverted'],['U0061.bmp'],['female'],[[2]],['female'],[[1]],[[9.85227525e-05]],GHA
624,[[20]],[[625]],[[15]],['high holistic'],['right'],['upright'],['U0312.bmp'],['male'],[[12]],['male'],[[1]],[[0.11630337]],GHA
625,[[20]],[[626]],[[12]],['high holistic'],['left'],['inverted'],['U0178.bmp'],['male'],[[6]],['female'],[[0]],[[0.2567466]],GHA
626,[[20]],[[627]],[[15]],['low holistic'],['left'],['inverted'],['U0312.bmp'],['male'],[[12]],['male'],[[1]],[[0.35774827]],GHA
627,[[20]],[[628]],[[13]],['low holistic'],['left'],['upright'],['U0181.bmp'],['male'],[[2]],['male'],[[1]],[[0.22332291]],GHA
628,[[20]],[[629]],[[19]],['high holistic'],['fovea'],['upright'],['U0361.bmp'],['female'],[[0]],['female'],[[1]],[[0.18193101]],GHA
629,[[20]],[[630]],[[1]],['high holistic'],['left'],['inverted'],['U0006.bmp'],['female'],[[12]],['male'],[[0]],[[0.64598515]],GHA
630,[[20]],[[631]],[[15]],['high holistic'],['left'],['upright'],['U0312.bmp'],['male'],[[6]],['male'],[[1]],[[0.5708192]],GHA
631,[[20]],[[632]],[[2]],['high holistic'],['right'],['inverted'],['U0014.bmp'],['male'],[[8]],['male'],[[1]],[[0.20416165]],GHA
632,[[20]],[[633]],[[4]],['low holistic'],['left'],['upright'],['U0061.bmp'],['female'],[[8]],['female'],[[1]],[[9.8856166e-05]],GHA
633,[[20]],[[634]],[[16]],['low holistic'],['left'],['upright'],['U0335.bmp'],['female'],[[4]],['female'],[[1]],[[9.98731703e-05]],GHA
634,[[20]],[[635]],[[20]],['low holistic'],['left'],['upright'],['U0362.bmp'],['male'],[[4]],['male'],[[1]],[[0.0277587]],GHA
635,[[20]],[[636]],[[10]],['high holistic'],['left'],['upright'],['U0159.bmp'],['male'],[[12]],['male'],[[1]],[[0.29896733]],GHA
636,[[20]],[[637]],[[13]],['high holistic'],['left'],['inverted'],['U0181.bmp'],['female'],[[4]],['female'],[[1]],[[0.13294129]],GHA
637,[[20]],[[638]],[[18]],['low holistic'],['left'],['inverted'],['U0359.bmp'],['male'],[[2]],['male'],[[1]],[[0.24871903]],GHA
638,[[20]],[[639]],[[4]],['high holistic'],['fovea'],['upright'],['U0061.bmp'],['female'],[[0]],['female'],[[1]],[[0.00024884]],GHA
639,[[20]],[[640]],[[13]],['high holistic'],['left'],['inverted'],['U0181.bmp'],['female'],[[12]],['male'],[[0]],[[0.00545628]],GHA
640,[[20]],[[641]],[[19]],['high holistic'],['left'],['upright'],['U0361.bmp'],['female'],[[8]],['female'],[[1]],[[0.29930494]],GHA
641,[[20]],[[642]],[[4]],['high holistic'],['right'],['upright'],['U0061.bmp'],['female'],[[12]],['female'],[[1]],[[0.16135481]],GHA
642,[[20]],[[643]],[[3]],['high holistic'],['left'],['upright'],['U0020.bmp'],['male'],[[2]],['male'],[[1]],[[0.29767063]],GHA
643,[[20]],[[644]],[[4]],['low holistic'],['left'],['inverted'],['U0061.bmp'],['female'],[[4]],['female'],[[1]],[[0.02903537]],GHA
644,[[20]],[[645]],[[12]],['low holistic'],['left'],['upright'],['U0178.bmp'],['female'],[[4]],['female'],[[1]],[[2.63598508]],GHA
645,[[20]],[[646]],[[19]],['high holistic'],['right'],['upright'],['U0361.bmp'],['female'],[[4]],['female'],[[1]],[[0.21727896]],GHA
646,[[20]],[[647]],[[4]],['high holistic'],['left'],['upright'],['U0061.bmp'],['female'],[[10]],['female'],[[1]],[[0.00010917]],GHA
647,[[20]],[[648]],[[4]],['high holistic'],['left'],['inverted'],['U0061.bmp'],['female'],[[2]],['female'],[[1]],[[9.89772379e-05]],GHA
648,[[20]],[[649]],[[18]],['low holistic'],['left'],['upright'],['U0359.bmp'],['male'],[[2]],['female'],[[0]],[[0.00010519]],GHA
649,[[20]],[[650]],[[3]],['low holistic'],['right'],['inverted'],['U0020.bmp'],['female'],[[8]],['female'],[[1]],[[0.52830645]],GHA
650,[[20]],[[651]],[[11]],['low holistic'],['right'],['upright'],['U0164.bmp'],['female'],[[6]],['female'],[[1]],[[0.16972786]],GHA
651,[[20]],[[652]],[[9]],['high holistic'],['left'],['upright'],['U0155.bmp'],['female'],[[8]],['female'],[[1]],[[0.07365482]],GHA
652,[[20]],[[653]],[[4]],['low holistic'],['left'],['upright'],['U0061.bmp'],['female'],[[4]],['female'],[[1]],[[1.49400981]],GHA
653,[[20]],[[654]],[[8]],['high holistic'],['right'],['upright'],['U0137.bmp'],['female'],[[12]],['female'],[[1]],[[0.24340443]],GHA
654,[[20]],[[655]],[[6]],['high holistic'],['left'],['inverted'],['U0106.bmp'],['female'],[[10]],['female'],[[1]],[[0.05568235]],GHA
655,[[20]],[[656]],[[6]],['high holistic'],['right'],['inverted'],['U0106.bmp'],['female'],[[6]],['female'],[[1]],[[9.84929502e-05]],GHA
656,[[20]],[[657]],[[4]],['high holistic'],['right'],['upright'],['U0061.bmp'],['female'],[[8]],['female'],[[1]],[[0.206032]],GHA
657,[[20]],[[658]],[[9]],['high holistic'],['right'],['upright'],['U0155.bmp'],['female'],[[10]],['female'],[[1]],[[0.00022916]],GHA
658,[[20]],[[659]],[[16]],['low holistic'],['right'],['inverted'],['U0335.bmp'],['female'],[[2]],['female'],[[1]],[[0.00010615]],GHA
659,[[20]],[[660]],[[14]],['low holistic'],['left'],['upright'],['U0228.bmp'],['male'],[[12]],['male'],[[1]],[[0.06875219]],GHA
660,[[20]],[[661]],[[5]],['low holistic'],['left'],['upright'],['U0076.bmp'],['male'],[[2]],['male'],[[1]],[[0.00016976]],GHA
661,[[20]],[[662]],[[2]],['low holistic'],['left'],['inverted'],['U0014.bmp'],['male'],[[4]],['female'],[[0]],[[0.0010019]],GHA
662,[[20]],[[663]],[[9]],['high holistic'],['left'],['inverted'],['U0155.bmp'],['female'],[[10]],['female'],[[1]],[[0.03201461]],GHA
663,[[20]],[[664]],[[18]],['high holistic'],['left'],['upright'],['U0359.bmp'],['male'],[[8]],['male'],[[1]],[[0.30367782]],GHA
664,[[20]],[[665]],[[2]],['low holistic'],['left'],['upright'],['U0014.bmp'],['male'],[[4]],['male'],[[1]],[[0.00010052]],GHA
665,[[20]],[[666]],[[2]],['high holistic'],['right'],['inverted'],['U0014.bmp'],['male'],[[12]],['female'],[[0]],[[0.24203807]],GHA
666,[[20]],[[667]],[[9]],['low holistic'],['left'],['upright'],['U0155.bmp'],['male'],[[10]],['female'],[[0]],[[0.02504745]],GHA
667,[[20]],[[668]],[[4]],['high holistic'],['left'],['upright'],['U0061.bmp'],['female'],[[10]],['male'],[[0]],[[0.00010249]],GHA
668,[[20]],[[669]],[[13]],['high holistic'],['fovea'],['inverted'],['U0181.bmp'],['female'],[[0]],['female'],[[1]],[[0.35105497]],GHA
669,[[20]],[[670]],[[4]],['high holistic'],['fovea'],['inverted'],['U0061.bmp'],['female'],[[0]],['female'],[[1]],[[9.93236899e-05]],GHA
670,[[20]],[[671]],[[15]],['low holistic'],['left'],['inverted'],['U0312.bmp'],['male'],[[4]],['male'],[[1]],[[0.3682489]],GHA
671,[[20]],[[672]],[[20]],['high holistic'],['right'],['inverted'],['U0362.bmp'],['female'],[[12]],['female'],[[1]],[[0.88085323]],GHA
672,[[20]],[[673]],[[1]],['low holistic'],['left'],['upright'],['U0006.bmp'],['female'],[[4]],['female'],[[1]],[[0.21350985]],GHA
673,[[20]],[[674]],[[15]],['low holistic'],['right'],['upright'],['U0312.bmp'],['male'],[[10]],['male'],[[1]],[[0.59519747]],GHA
674,[[20]],[[675]],[[2]],['low holistic'],['left'],['upright'],['U0014.bmp'],['male'],[[8]],['male'],[[1]],[[0.25155533]],GHA
675,[[20]],[[676]],[[9]],['high holistic'],['right'],['inverted'],['U0155.bmp'],['female'],[[4]],['female'],[[1]],[[0.19447326]],GHA
676,[[20]],[[677]],[[18]],['low holistic'],['right'],['inverted'],['U0359.bmp'],['male'],[[12]],['male'],[[1]],[[0.32883343]],GHA
677,[[20]],[[678]],[[19]],['high holistic'],['left'],['upright'],['U0361.bmp'],['female'],[[4]],['female'],[[1]],[[9.98806208e-05]],GHA
678,[[20]],[[679]],[[17]],['low holistic'],['left'],['upright'],['U0346.bmp'],['female'],[[6]],['female'],[[1]],[[1.65274574]],GHA
679,[[20]],[[680]],[[16]],['high holistic'],['right'],['upright'],['U0335.bmp'],['female'],[[2]],['female'],[[1]],[[0.48085]],GHA
680,[[20]],[[681]],[[7]],['high holistic'],['left'],['upright'],['U0107.bmp'],['female'],[[8]],['female'],[[1]],[[0.29356651]],GHA
681,[[20]],[[682]],[[19]],['high holistic'],['right'],['inverted'],['U0361.bmp'],['female'],[[12]],['female'],[[1]],[[0.10393886]],GHA
682,[[20]],[[683]],[[4]],['high holistic'],['right'],['upright'],['U0061.bmp'],['female'],[[10]],['female'],[[1]],[[0.00022421]],GHA
683,[[20]],[[684]],[[1]],['high holistic'],['right'],['inverted'],['U0006.bmp'],['female'],[[4]],['female'],[[1]],[[0.06100159]],GHA
684,[[20]],[[685]],[[19]],['low holistic'],['right'],['upright'],['U0361.bmp'],['female'],[[10]],['female'],[[1]],[[0.04100332]],GHA
685,[[20]],[[686]],[[11]],['high holistic'],['fovea'],['upright'],['U0164.bmp'],['female'],[[0]],['female'],[[1]],[[9.9638477e-05]],GHA
686,[[20]],[[687]],[[20]],['high holistic'],['right'],['inverted'],['U0362.bmp'],['female'],[[12]],['female'],[[1]],[[4.18281778]],GHA
687,[[20]],[[688]],[[8]],['low holistic'],['right'],['upright'],['U0137.bmp'],['male'],[[10]],['male'],[[1]],[[0.34414797]],GHA
688,[[20]],[[689]],[[17]],['high holistic'],['right'],['inverted'],['U0346.bmp'],['male'],[[10]],['male'],[[1]],[[0.32077033]],GHA
689,[[20]],[[690]],[[2]],['high holistic'],['left'],['upright'],['U0014.bmp'],['male'],[[10]],['male'],[[1]],[[0.11562319]],GHA
690,[[20]],[[691]],[[7]],['low holistic'],['fovea'],['upright'],['U0107.bmp'],['female'],[[0]],['female'],[[1]],[[0.13473044]],GHA
691,[[20]],[[692]],[[14]],['high holistic'],['left'],['inverted'],['U0228.bmp'],['male'],[[10]],['male'],[[1]],[[0.41650129]],GHA
692,[[20]],[[693]],[[20]],['low holistic'],['left'],['inverted'],['U0362.bmp'],['male'],[[6]],['male'],[[1]],[[0.24780683]],GHA
693,[[20]],[[694]],[[5]],['low holistic'],['right'],['upright'],['U0076.bmp'],['male'],[[6]],['male'],[[1]],[[0.10236076]],GHA
694,[[20]],[[695]],[[19]],['low holistic'],['right'],['inverted'],['U0361.bmp'],['female'],[[2]],['female'],[[1]],[[0.05014553]],GHA
695,[[20]],[[696]],[[2]],['low holistic'],['right'],['upright'],['U0014.bmp'],['male'],[[6]],['male'],[[1]],[[0.18275395]],GHA
696,[[20]],[[697]],[[7]],['high holistic'],['left'],['upright'],['U0107.bmp'],['female'],[[2]],['female'],[[1]],[[0.11143767]],GHA
697,[[20]],[[698]],[[1]],['low holistic'],['right'],['upright'],['U0006.bmp'],['female'],[[8]],['female'],[[1]],[[0.48271748]],GHA
698,[[20]],[[699]],[[18]],['low holistic'],['right'],['inverted'],['U0359.bmp'],['male'],[[8]],['male'],[[1]],[[0.58448815]],GHA
699,[[20]],[[700]],[[5]],['high holistic'],['left'],['upright'],['U0076.bmp'],['female'],[[2]],['female'],[[1]],[[0.33681279]],GHA
700,[[20]],[[701]],[[4]],['low holistic'],['left'],['upright'],['U0061.bmp'],['female'],[[8]],['female'],[[1]],[[9.94876027e-05]],GHA
701,[[20]],[[702]],[[9]],['low holistic'],['right'],['inverted'],['U0155.bmp'],['male'],[[8]],['male'],[[1]],[[0.2574835]],GHA
702,[[20]],[[703]],[[19]],['low holistic'],['left'],['inverted'],['U0361.bmp'],['female'],[[6]],['female'],[[1]],[[0.13359302]],GHA
703,[[20]],[[704]],[[17]],['high holistic'],['left'],['upright'],['U0346.bmp'],['male'],[[12]],['male'],[[1]],[[0.25638049]],GHA
704,[[20]],[[705]],[[16]],['high holistic'],['right'],['inverted'],['U0335.bmp'],['female'],[[8]],['male'],[[0]],[[0.1272312]],GHA
705,[[20]],[[706]],[[8]],['high holistic'],['right'],['inverted'],['U0137.bmp'],['female'],[[6]],['female'],[[1]],[[0.18470234]],GHA
706,[[20]],[[707]],[[9]],['low holistic'],['right'],['upright'],['U0155.bmp'],['male'],[[8]],['male'],[[1]],[[0.29901163]],GHA
707,[[20]],[[708]],[[15]],['low holistic'],['right'],['inverted'],['U0312.bmp'],['male'],[[6]],['female'],[[0]],[[0.2381323]],GHA
708,[[20]],[[709]],[[6]],['high holistic'],['left'],['inverted'],['U0106.bmp'],['female'],[[2]],['female'],[[1]],[[0.55602468]],GHA
709,[[20]],[[710]],[[11]],['high holistic'],['left'],['inverted'],['U0164.bmp'],['female'],[[8]],['female'],[[1]],[[1.18131961]],GHA
710,[[20]],[[711]],[[1]],['low holistic'],['left'],['inverted'],['U0006.bmp'],['female'],[[6]],['female'],[[1]],[[0.28429035]],GHA
711,[[20]],[[712]],[[7]],['low holistic'],['left'],['upright'],['U0107.bmp'],['female'],[[12]],['female'],[[1]],[[1.37824176]],GHA
712,[[20]],[[713]],[[4]],['high holistic'],['right'],['inverted'],['U0061.bmp'],['female'],[[6]],['female'],[[1]],[[0.73001296]],GHA
713,[[20]],[[714]],[[16]],['low holistic'],['left'],['inverted'],['U0335.bmp'],['female'],[[2]],['female'],[[1]],[[0.49963045]],GHA
714,[[20]],[[715]],[[18]],['high holistic'],['left'],['inverted'],['U0359.bmp'],['male'],[[12]],['male'],[[1]],[[0.47108648]],GHA
715,[[20]],[[716]],[[19]],['low holistic'],['left'],['upright'],['U0361.bmp'],['female'],[[6]],['female'],[[1]],[[0.45985341]],GHA
716,[[20]],[[717]],[[6]],['high holistic'],['right'],['upright'],['U0106.bmp'],['female'],[[4]],['female'],[[1]],[[0.27478244]],GHA
717,[[20]],[[718]],[[20]],['high holistic'],['left'],['inverted'],['U0362.bmp'],['female'],[[4]],['female'],[[1]],[[0.04700153]],GHA
718,[[20]],[[719]],[[3]],['low holistic'],['left'],['inverted'],['U0020.bmp'],['female'],[[6]],['female'],[[1]],[[0.06857815]],GHA
719,[[20]],[[720]],[[3]],['high holistic'],['right'],['inverted'],['U0020.bmp'],['male'],[[4]],['female'],[[0]],[[0.00866419]],GHA
720,[[20]],[[721]],[[10]],['low holistic'],['left'],['upright'],['U0159.bmp'],['female'],[[4]],['female'],[[1]],[[0.00010644]],GHA
721,[[20]],[[722]],[[13]],['low holistic'],['fovea'],['inverted'],['U0181.bmp'],['male'],[[0]],['male'],[[1]],[[0.14335197]],GHA
722,[[20]],[[723]],[[8]],['high holistic'],['right'],['upright'],['U0137.bmp'],['female'],[[2]],['female'],[[1]],[[0.06661066]],GHA
723,[[20]],[[724]],[[19]],['low holistic'],['left'],['upright'],['U0361.bmp'],['female'],[[10]],['female'],[[1]],[[0.10205805]],GHA
724,[[20]],[[725]],[[14]],['low holistic'],['left'],['upright'],['U0228.bmp'],['male'],[[6]],['male'],[[1]],[[0.0578437]],GHA
725,[[20]],[[726]],[[14]],['low holistic'],['left'],['upright'],['U0228.bmp'],['male'],[[12]],['male'],[[1]],[[0.07180403]],GHA
726,[[20]],[[727]],[[17]],['high holistic'],['right'],['upright'],['U0346.bmp'],['male'],[[12]],['male'],[[1]],[[0.17309164]],GHA
727,[[20]],[[728]],[[6]],['low holistic'],['left'],['inverted'],['U0106.bmp'],['male'],[[12]],['male'],[[1]],[[0.26900313]],GHA
728,[[20]],[[729]],[[4]],['low holistic'],['fovea'],['upright'],['U0061.bmp'],['female'],[[0]],['female'],[[1]],[[0.05853623]],GHA
729,[[20]],[[730]],[[3]],['high holistic'],['right'],['inverted'],['U0020.bmp'],['male'],[[10]],['male'],[[1]],[[0.30354527]],GHA
730,[[20]],[[731]],[[11]],['high holistic'],['left'],['inverted'],['U0164.bmp'],['female'],[[10]],['male'],[[0]],[[1.0516038]],GHA
731,[[20]],[[732]],[[1]],['low holistic'],['right'],['upright'],['U0006.bmp'],['female'],[[6]],['female'],[[1]],[[0.09741888]],GHA
732,[[20]],[[733]],[[5]],['high holistic'],['right'],['upright'],['U0076.bmp'],['female'],[[2]],['female'],[[1]],[[0.00285975]],GHA
733,[[20]],[[734]],[[1]],['low holistic'],['left'],['upright'],['U0006.bmp'],['female'],[[10]],['female'],[[1]],[[0.0049107]],GHA
734,[[20]],[[735]],[[5]],['high holistic'],['left'],['upright'],['U0076.bmp'],['female'],[[2]],['female'],[[1]],[[9.97558236e-05]],GHA
735,[[20]],[[736]],[[13]],['high holistic'],['left'],['upright'],['U0181.bmp'],['female'],[[2]],['female'],[[1]],[[2.79358068]],GHA
736,[[20]],[[737]],[[18]],['high holistic'],['right'],['upright'],['U0359.bmp'],['male'],[[8]],['male'],[[1]],[[0.26873038]],GHA
737,[[20]],[[738]],[[12]],['high holistic'],['right'],['upright'],['U0178.bmp'],['male'],[[2]],['female'],[[0]],[[0.66447082]],GHA
738,[[20]],[[739]],[[9]],['high holistic'],['right'],['upright'],['U0155.bmp'],['female'],[[4]],['female'],[[1]],[[0.25970952]],GHA
739,[[20]],[[740]],[[6]],['high holistic'],['right'],['upright'],['U0106.bmp'],['female'],[[6]],['female'],[[1]],[[0.00030607]],GHA
740,[[20]],[[741]],[[20]],['high holistic'],['right'],['upright'],['U0362.bmp'],['female'],[[8]],['female'],[[1]],[[0.55348925]],GHA
741,[[20]],[[742]],[[10]],['high holistic'],['right'],['upright'],['U0159.bmp'],['male'],[[10]],['male'],[[1]],[[0.33153739]],GHA
742,[[20]],[[743]],[[15]],['high holistic'],['left'],['inverted'],['U0312.bmp'],['male'],[[6]],['female'],[[0]],[[0.13402377]],GHA
743,[[20]],[[744]],[[11]],['high holistic'],['right'],['upright'],['U0164.bmp'],['female'],[[12]],['male'],[[0]],[[0.02329114]],GHA
744,[[20]],[[745]],[[2]],['low holistic'],['right'],['inverted'],['U0014.bmp'],['male'],[[8]],['male'],[[1]],[[0.19105527]],GHA
745,[[20]],[[746]],[[6]],['high holistic'],['right'],['upright'],['U0106.bmp'],['female'],[[8]],['female'],[[1]],[[0.06936089]],GHA
746,[[20]],[[747]],[[13]],['low holistic'],['right'],['upright'],['U0181.bmp'],['male'],[[6]],['female'],[[0]],[[0.00010576]],GHA
747,[[20]],[[748]],[[1]],['low holistic'],['left'],['inverted'],['U0006.bmp'],['female'],[[8]],['female'],[[1]],[[0.08261303]],GHA
748,[[20]],[[749]],[[18]],['low holistic'],['right'],['upright'],['U0359.bmp'],['male'],[[8]],['male'],[[1]],[[0.25471639]],GHA
749,[[20]],[[750]],[[12]],['low holistic'],['right'],['inverted'],['U0178.bmp'],['female'],[[10]],['female'],[[1]],[[0.28512834]],GHA
750,[[20]],[[751]],[[19]],['low holistic'],['right'],['upright'],['U0361.bmp'],['female'],[[10]],['female'],[[1]],[[0.59160193]],GHA
751,[[20]],[[752]],[[1]],['low holistic'],['left'],['upright'],['U0006.bmp'],['female'],[[4]],['female'],[[1]],[[0.08859556]],GHA
752,[[20]],[[753]],[[16]],['high holistic'],['left'],['inverted'],['U0335.bmp'],['female'],[[4]],['male'],[[0]],[[0.21338495]],GHA
753,[[20]],[[754]],[[16]],['high holistic'],['right'],['inverted'],['U0335.bmp'],['female'],[[8]],['male'],[[0]],[[0.34128469]],GHA
754,[[20]],[[755]],[[6]],['high holistic'],['right'],['inverted'],['U0106.bmp'],['female'],[[8]],['female'],[[1]],[[0.20416994]],GHA
755,[[20]],[[756]],[[11]],['high holistic'],['left'],['upright'],['U0164.bmp'],['female'],[[6]],['female'],[[1]],[[0.35724143]],GHA
756,[[20]],[[757]],[[11]],['low holistic'],['left'],['inverted'],['U0164.bmp'],['female'],[[4]],['female'],[[1]],[[0.17365476]],GHA
757,[[20]],[[758]],[[20]],['low holistic'],['left'],['inverted'],['U0362.bmp'],['male'],[[12]],['male'],[[1]],[[0.09591853]],GHA
758,[[20]],[[759]],[[15]],['high holistic'],['right'],['inverted'],['U0312.bmp'],['male'],[[2]],['female'],[[0]],[[0.00025033]],GHA
759,[[20]],[[760]],[[18]],['high holistic'],['right'],['inverted'],['U0359.bmp'],['male'],[[2]],['male'],[[1]],[[0.5390772]],GHA
760,[[20]],[[761]],[[16]],['low holistic'],['right'],['upright'],['U0335.bmp'],['female'],[[2]],['female'],[[1]],[[0.17148093]],GHA
761,[[20]],[[762]],[[15]],['low holistic'],['left'],['inverted'],['U0312.bmp'],['male'],[[2]],['male'],[[1]],[[0.42154919]],GHA
762,[[20]],[[763]],[[7]],['high holistic'],['right'],['inverted'],['U0107.bmp'],['female'],[[6]],['female'],[[1]],[[0.48382763]],GHA
763,[[20]],[[764]],[[14]],['low holistic'],['left'],['inverted'],['U0228.bmp'],['male'],[[12]],['male'],[[1]],[[0.40686134]],GHA
764,[[20]],[[765]],[[1]],['low holistic'],['fovea'],['inverted'],['U0006.bmp'],['female'],[[0]],['female'],[[1]],[[0.09491972]],GHA
