,SUBID,TRIAL,MOONEYID,MOONEYCATEGORY,LOC,COND,MOONEY_NAME,MOONEY_GENDER,ECCENTRICITY,RESPONSE,ACCURACY,RT,SUBINIT
0,[[2]],[[1]],[[9]],['low holistic'],['left'],['upright'],['U0155.bmp'],['male'],[[10]],['female'],[[0]],[[0.46311903]],GK
1,[[2]],[[2]],[[14]],['low holistic'],['right'],['upright'],['U0228.bmp'],['male'],[[10]],['female'],[[0]],[[0.78035235]],GK
2,[[2]],[[3]],[[19]],['high holistic'],['right'],['upright'],['U0361.bmp'],['female'],[[8]],['female'],[[1]],[[0.26922596]],GK
3,[[2]],[[4]],[[17]],['low holistic'],['right'],['upright'],['U0346.bmp'],['female'],[[8]],['male'],[[0]],[[0.32297478]],GK
4,[[2]],[[5]],[[10]],['high holistic'],['left'],['inverted'],['U0159.bmp'],['male'],[[4]],['male'],[[1]],[[0.71830509]],GK
5,[[2]],[[6]],[[16]],['low holistic'],['right'],['inverted'],['U0335.bmp'],['female'],[[10]],['male'],[[0]],[[0.32082153]],GK
6,[[2]],[[7]],[[9]],['high holistic'],['right'],['inverted'],['U0155.bmp'],['female'],[[8]],['female'],[[1]],[[0.74856069]],GK
7,[[2]],[[8]],[[20]],['high holistic'],['right'],['upright'],['U0362.bmp'],['female'],[[6]],['female'],[[1]],[[0.76593587]],GK
8,[[2]],[[9]],[[20]],['high holistic'],['right'],['inverted'],['U0362.bmp'],['female'],[[6]],['female'],[[1]],[[0.37468786]],GK
9,[[2]],[[10]],[[18]],['high holistic'],['right'],['upright'],['U0359.bmp'],['male'],[[12]],['female'],[[0]],[[0.40111704]],GK
10,[[2]],[[11]],[[8]],['low holistic'],['fovea'],['upright'],['U0137.bmp'],['male'],[[0]],['male'],[[1]],[[0.19365529]],GK
11,[[2]],[[12]],[[10]],['low holistic'],['left'],['upright'],['U0159.bmp'],['female'],[[12]],['female'],[[1]],[[0.35396592]],GK
12,[[2]],[[13]],[[5]],['low holistic'],['right'],['inverted'],['U0076.bmp'],['male'],[[6]],['female'],[[0]],[[0.26723906]],GK
13,[[2]],[[14]],[[16]],['low holistic'],['left'],['inverted'],['U0335.bmp'],['female'],[[6]],['female'],[[1]],[[0.85623675]],GK
14,[[2]],[[15]],[[18]],['low holistic'],['left'],['upright'],['U0359.bmp'],['male'],[[6]],['male'],[[1]],[[0.33505471]],GK
15,[[2]],[[16]],[[19]],['high holistic'],['left'],['inverted'],['U0361.bmp'],['female'],[[12]],['male'],[[0]],[[0.35347651]],GK
16,[[2]],[[17]],[[12]],['low holistic'],['left'],['inverted'],['U0178.bmp'],['female'],[[10]],['male'],[[0]],[[0.3477167]],GK
17,[[2]],[[18]],[[12]],['low holistic'],['right'],['inverted'],['U0178.bmp'],['female'],[[4]],['female'],[[1]],[[0.10907023]],GK
18,[[2]],[[19]],[[3]],['low holistic'],['right'],['upright'],['U0020.bmp'],['female'],[[4]],['female'],[[1]],[[0.41808736]],GK
19,[[2]],[[20]],[[18]],['high holistic'],['left'],['inverted'],['U0359.bmp'],['male'],[[10]],['male'],[[1]],[[0.56925987]],GK
20,[[2]],[[21]],[[10]],['low holistic'],['right'],['inverted'],['U0159.bmp'],['female'],[[2]],['female'],[[1]],[[0.53868555]],GK
21,[[2]],[[22]],[[5]],['high holistic'],['right'],['inverted'],['U0076.bmp'],['female'],[[2]],['female'],[[1]],[[0.25104999]],GK
22,[[2]],[[23]],[[18]],['low holistic'],['left'],['inverted'],['U0359.bmp'],['male'],[[12]],['male'],[[1]],[[0.35536161]],GK
23,[[2]],[[24]],[[16]],['high holistic'],['left'],['upright'],['U0335.bmp'],['female'],[[10]],['male'],[[0]],[[0.45424696]],GK
24,[[2]],[[25]],[[18]],['high holistic'],['left'],['upright'],['U0359.bmp'],['male'],[[6]],['male'],[[1]],[[0.32370196]],GK
25,[[2]],[[26]],[[6]],['low holistic'],['right'],['inverted'],['U0106.bmp'],['male'],[[4]],['male'],[[1]],[[0.32565016]],GK
26,[[2]],[[27]],[[14]],['high holistic'],['left'],['upright'],['U0228.bmp'],['male'],[[10]],['male'],[[1]],[[0.36218827]],GK
27,[[2]],[[28]],[[14]],['high holistic'],['right'],['inverted'],['U0228.bmp'],['male'],[[2]],['male'],[[1]],[[0.38051358]],GK
28,[[2]],[[29]],[[3]],['high holistic'],['right'],['upright'],['U0020.bmp'],['male'],[[2]],['male'],[[1]],[[0.37202537]],GK
29,[[2]],[[30]],[[9]],['low holistic'],['left'],['inverted'],['U0155.bmp'],['male'],[[4]],['male'],[[1]],[[0.44615632]],GK
30,[[2]],[[31]],[[6]],['low holistic'],['left'],['upright'],['U0106.bmp'],['male'],[[12]],['female'],[[0]],[[0.40379478]],GK
31,[[2]],[[32]],[[15]],['low holistic'],['right'],['upright'],['U0312.bmp'],['male'],[[2]],['male'],[[1]],[[0.30932554]],GK
32,[[2]],[[33]],[[6]],['low holistic'],['right'],['upright'],['U0106.bmp'],['male'],[[6]],['female'],[[0]],[[0.41588406]],GK
33,[[2]],[[34]],[[18]],['high holistic'],['right'],['upright'],['U0359.bmp'],['male'],[[2]],['female'],[[0]],[[0.44131535]],GK
34,[[2]],[[35]],[[17]],['high holistic'],['fovea'],['upright'],['U0346.bmp'],['male'],[[0]],['male'],[[1]],[[0.47068189]],GK
35,[[2]],[[36]],[[8]],['low holistic'],['right'],['upright'],['U0137.bmp'],['male'],[[10]],['male'],[[1]],[[0.0597304]],GK
36,[[2]],[[37]],[[10]],['high holistic'],['left'],['inverted'],['U0159.bmp'],['male'],[[12]],['male'],[[1]],[[0.07318617]],GK
37,[[2]],[[38]],[[14]],['high holistic'],['left'],['inverted'],['U0228.bmp'],['male'],[[4]],['male'],[[1]],[[0.00010357]],GK
38,[[2]],[[39]],[[17]],['high holistic'],['left'],['upright'],['U0346.bmp'],['male'],[[8]],['male'],[[1]],[[0.00032605]],GK
39,[[2]],[[40]],[[13]],['low holistic'],['right'],['inverted'],['U0181.bmp'],['male'],[[6]],['male'],[[1]],[[0.03131535]],GK
40,[[2]],[[41]],[[12]],['low holistic'],['left'],['inverted'],['U0178.bmp'],['female'],[[6]],['male'],[[0]],[[0.27071621]],GK
41,[[2]],[[42]],[[7]],['high holistic'],['left'],['upright'],['U0107.bmp'],['female'],[[12]],['male'],[[0]],[[0.06707709]],GK
42,[[2]],[[43]],[[10]],['high holistic'],['fovea'],['inverted'],['U0159.bmp'],['male'],[[0]],['female'],[[0]],[[0.00011112]],GK
43,[[2]],[[44]],[[15]],['low holistic'],['right'],['inverted'],['U0312.bmp'],['male'],[[10]],['male'],[[1]],[[0.00021836]],GK
44,[[2]],[[45]],[[18]],['high holistic'],['right'],['upright'],['U0359.bmp'],['male'],[[12]],['female'],[[0]],[[0.1014484]],GK
45,[[2]],[[46]],[[15]],['low holistic'],['right'],['inverted'],['U0312.bmp'],['male'],[[12]],['female'],[[0]],[[0.01737387]],GK
46,[[2]],[[47]],[[1]],['low holistic'],['left'],['upright'],['U0006.bmp'],['female'],[[4]],['female'],[[1]],[[0.00010684]],GK
47,[[2]],[[48]],[[14]],['low holistic'],['right'],['inverted'],['U0228.bmp'],['male'],[[4]],['male'],[[1]],[[0.00012877]],GK
48,[[2]],[[49]],[[9]],['high holistic'],['right'],['upright'],['U0155.bmp'],['female'],[[2]],['male'],[[0]],[[9.74029826e-05]],GK
49,[[2]],[[50]],[[9]],['low holistic'],['left'],['inverted'],['U0155.bmp'],['male'],[[8]],['female'],[[0]],[[0.06415525]],GK
50,[[2]],[[51]],[[3]],['high holistic'],['right'],['inverted'],['U0020.bmp'],['male'],[[8]],['female'],[[0]],[[0.05429803]],GK
51,[[2]],[[52]],[[17]],['low holistic'],['left'],['inverted'],['U0346.bmp'],['female'],[[8]],['male'],[[0]],[[0.00014353]],GK
52,[[2]],[[53]],[[7]],['low holistic'],['left'],['inverted'],['U0107.bmp'],['female'],[[4]],['male'],[[0]],[[19.28349628]],GK
53,[[2]],[[54]],[[5]],['high holistic'],['right'],['inverted'],['U0076.bmp'],['female'],[[8]],['female'],[[1]],[[0.30962804]],GK
54,[[2]],[[55]],[[7]],['low holistic'],['left'],['upright'],['U0107.bmp'],['female'],[[12]],['male'],[[0]],[[0.33930562]],GK
55,[[2]],[[56]],[[8]],['high holistic'],['right'],['upright'],['U0137.bmp'],['female'],[[12]],['female'],[[1]],[[0.00011178]],GK
56,[[2]],[[57]],[[11]],['high holistic'],['right'],['inverted'],['U0164.bmp'],['female'],[[10]],['male'],[[0]],[[0.00033204]],GK
57,[[2]],[[58]],[[12]],['high holistic'],['right'],['inverted'],['U0178.bmp'],['male'],[[2]],['male'],[[1]],[[0.00023169]],GK
58,[[2]],[[59]],[[8]],['low holistic'],['fovea'],['upright'],['U0137.bmp'],['male'],[[0]],['male'],[[1]],[[0.41482148]],GK
59,[[2]],[[60]],[[8]],['high holistic'],['right'],['inverted'],['U0137.bmp'],['female'],[[6]],['female'],[[1]],[[0.0543412]],GK
60,[[2]],[[61]],[[11]],['high holistic'],['right'],['upright'],['U0164.bmp'],['female'],[[6]],['female'],[[1]],[[0.01151951]],GK
61,[[2]],[[62]],[[14]],['high holistic'],['right'],['inverted'],['U0228.bmp'],['male'],[[4]],['male'],[[1]],[[0.03461801]],GK
62,[[2]],[[63]],[[20]],['low holistic'],['right'],['inverted'],['U0362.bmp'],['male'],[[12]],['male'],[[1]],[[0.00012606]],GK
63,[[2]],[[64]],[[15]],['low holistic'],['left'],['inverted'],['U0312.bmp'],['male'],[[8]],['male'],[[1]],[[0.00019848]],GK
64,[[2]],[[65]],[[9]],['low holistic'],['left'],['upright'],['U0155.bmp'],['male'],[[8]],['female'],[[0]],[[0.10730005]],GK
65,[[2]],[[66]],[[17]],['high holistic'],['right'],['inverted'],['U0346.bmp'],['male'],[[4]],['male'],[[1]],[[0.28695971]],GK
66,[[2]],[[67]],[[3]],['high holistic'],['left'],['inverted'],['U0020.bmp'],['male'],[[4]],['male'],[[1]],[[0.05968701]],GK
67,[[2]],[[68]],[[2]],['high holistic'],['left'],['upright'],['U0014.bmp'],['male'],[[12]],['male'],[[1]],[[0.18622651]],GK
68,[[2]],[[69]],[[2]],['high holistic'],['right'],['upright'],['U0014.bmp'],['male'],[[12]],['female'],[[0]],[[0.25137105]],GK
69,[[2]],[[70]],[[4]],['low holistic'],['fovea'],['inverted'],['U0061.bmp'],['female'],[[0]],['female'],[[1]],[[0.00011371]],GK
70,[[2]],[[71]],[[7]],['high holistic'],['left'],['upright'],['U0107.bmp'],['female'],[[12]],['male'],[[0]],[[0.07205867]],GK
71,[[2]],[[72]],[[7]],['high holistic'],['right'],['inverted'],['U0107.bmp'],['female'],[[10]],['male'],[[0]],[[0.11051446]],GK
72,[[2]],[[73]],[[1]],['high holistic'],['right'],['inverted'],['U0006.bmp'],['female'],[[8]],['male'],[[0]],[[0.00912012]],GK
73,[[2]],[[74]],[[11]],['high holistic'],['right'],['inverted'],['U0164.bmp'],['female'],[[2]],['male'],[[0]],[[0.06558836]],GK
74,[[2]],[[75]],[[2]],['low holistic'],['left'],['upright'],['U0014.bmp'],['male'],[[2]],['male'],[[1]],[[9.95079754e-05]],GK
75,[[2]],[[76]],[[3]],['low holistic'],['fovea'],['inverted'],['U0020.bmp'],['female'],[[0]],['female'],[[1]],[[0.00014194]],GK
76,[[2]],[[77]],[[13]],['low holistic'],['right'],['inverted'],['U0181.bmp'],['male'],[[6]],['male'],[[1]],[[0.09573218]],GK
77,[[2]],[[78]],[[18]],['low holistic'],['right'],['upright'],['U0359.bmp'],['male'],[[8]],['female'],[[0]],[[0.11559661]],GK
78,[[2]],[[79]],[[20]],['low holistic'],['right'],['upright'],['U0362.bmp'],['male'],[[6]],['male'],[[1]],[[0.00017374]],GK
79,[[2]],[[80]],[[12]],['low holistic'],['left'],['inverted'],['U0178.bmp'],['female'],[[8]],['male'],[[0]],[[0.00025457]],GK
80,[[2]],[[81]],[[20]],['high holistic'],['left'],['upright'],['U0362.bmp'],['female'],[[12]],['male'],[[0]],[[0.08083102]],GK
81,[[2]],[[82]],[[12]],['high holistic'],['right'],['inverted'],['U0178.bmp'],['male'],[[6]],['female'],[[0]],[[0.06807072]],GK
82,[[2]],[[83]],[[11]],['low holistic'],['left'],['inverted'],['U0164.bmp'],['female'],[[12]],['female'],[[1]],[[0.161818]],GK
83,[[2]],[[84]],[[7]],['high holistic'],['right'],['inverted'],['U0107.bmp'],['female'],[[10]],['female'],[[1]],[[0.09117043]],GK
84,[[2]],[[85]],[[9]],['high holistic'],['left'],['inverted'],['U0155.bmp'],['female'],[[8]],['female'],[[1]],[[0.07090187]],GK
85,[[2]],[[86]],[[10]],['high holistic'],['right'],['upright'],['U0159.bmp'],['male'],[[6]],['male'],[[1]],[[0.2671794]],GK
86,[[2]],[[87]],[[2]],['high holistic'],['right'],['upright'],['U0014.bmp'],['male'],[[10]],['female'],[[0]],[[1.18529026]],GK
87,[[2]],[[88]],[[18]],['high holistic'],['left'],['inverted'],['U0359.bmp'],['male'],[[6]],['female'],[[0]],[[0.0809482]],GK
88,[[2]],[[89]],[[2]],['high holistic'],['right'],['upright'],['U0014.bmp'],['male'],[[8]],['male'],[[1]],[[0.0466352]],GK
89,[[2]],[[90]],[[9]],['high holistic'],['right'],['inverted'],['U0155.bmp'],['female'],[[8]],['male'],[[0]],[[0.38000103]],GK
90,[[2]],[[91]],[[17]],['high holistic'],['left'],['upright'],['U0346.bmp'],['male'],[[2]],['male'],[[1]],[[0.0002269]],GK
91,[[2]],[[92]],[[8]],['high holistic'],['fovea'],['inverted'],['U0137.bmp'],['female'],[[0]],['female'],[[1]],[[1.44185498]],GK
92,[[2]],[[93]],[[13]],['low holistic'],['right'],['inverted'],['U0181.bmp'],['male'],[[8]],['male'],[[1]],[[0.00041008]],GK
93,[[2]],[[94]],[[17]],['high holistic'],['left'],['upright'],['U0346.bmp'],['male'],[[12]],['female'],[[0]],[[0.09380802]],GK
94,[[2]],[[95]],[[18]],['low holistic'],['left'],['upright'],['U0359.bmp'],['male'],[[10]],['female'],[[0]],[[0.00016161]],GK
95,[[2]],[[96]],[[19]],['high holistic'],['right'],['upright'],['U0361.bmp'],['female'],[[8]],['male'],[[0]],[[0.07266706]],GK
96,[[2]],[[97]],[[4]],['low holistic'],['left'],['inverted'],['U0061.bmp'],['female'],[[6]],['female'],[[1]],[[0.19765099]],GK
97,[[2]],[[98]],[[6]],['high holistic'],['right'],['upright'],['U0106.bmp'],['female'],[[10]],['male'],[[0]],[[0.00025171]],GK
98,[[2]],[[99]],[[18]],['high holistic'],['left'],['upright'],['U0359.bmp'],['male'],[[6]],['female'],[[0]],[[0.26665536]],GK
99,[[2]],[[100]],[[12]],['high holistic'],['right'],['inverted'],['U0178.bmp'],['male'],[[12]],['female'],[[0]],[[0.13147719]],GK
100,[[2]],[[101]],[[11]],['high holistic'],['right'],['inverted'],['U0164.bmp'],['female'],[[12]],['male'],[[0]],[[0.04679861]],GK
101,[[2]],[[102]],[[13]],['low holistic'],['right'],['inverted'],['U0181.bmp'],['male'],[[4]],['female'],[[0]],[[0.00021507]],GK
102,[[2]],[[103]],[[17]],['low holistic'],['right'],['inverted'],['U0346.bmp'],['female'],[[2]],['female'],[[1]],[[0.02239507]],GK
103,[[2]],[[104]],[[11]],['high holistic'],['right'],['inverted'],['U0164.bmp'],['female'],[[10]],['female'],[[1]],[[0.31057324]],GK
104,[[2]],[[105]],[[5]],['high holistic'],['right'],['inverted'],['U0076.bmp'],['female'],[[8]],['female'],[[1]],[[0.01841649]],GK
105,[[2]],[[106]],[[10]],['low holistic'],['left'],['upright'],['U0159.bmp'],['female'],[[8]],['male'],[[0]],[[0.00022811]],GK
106,[[2]],[[107]],[[9]],['low holistic'],['right'],['upright'],['U0155.bmp'],['male'],[[6]],['male'],[[1]],[[0.18331893]],GK
107,[[2]],[[108]],[[20]],['low holistic'],['right'],['upright'],['U0362.bmp'],['male'],[[10]],['male'],[[1]],[[0.03950058]],GK
108,[[2]],[[109]],[[13]],['high holistic'],['left'],['inverted'],['U0181.bmp'],['female'],[[2]],['female'],[[1]],[[0.10278584]],GK
109,[[2]],[[110]],[[14]],['high holistic'],['left'],['inverted'],['U0228.bmp'],['male'],[[4]],['female'],[[0]],[[0.05167367]],GK
110,[[2]],[[111]],[[15]],['high holistic'],['right'],['inverted'],['U0312.bmp'],['male'],[[6]],['female'],[[0]],[[0.10581773]],GK
111,[[2]],[[112]],[[7]],['low holistic'],['left'],['upright'],['U0107.bmp'],['female'],[[4]],['female'],[[1]],[[0.07624112]],GK
112,[[2]],[[113]],[[11]],['low holistic'],['right'],['upright'],['U0164.bmp'],['female'],[[6]],['female'],[[1]],[[0.00037291]],GK
113,[[2]],[[114]],[[12]],['low holistic'],['left'],['inverted'],['U0178.bmp'],['female'],[[8]],['female'],[[1]],[[0.00036619]],GK
114,[[2]],[[115]],[[4]],['high holistic'],['right'],['upright'],['U0061.bmp'],['female'],[[12]],['female'],[[1]],[[0.21153171]],GK
115,[[2]],[[116]],[[12]],['high holistic'],['left'],['upright'],['U0178.bmp'],['male'],[[12]],['female'],[[0]],[[0.00034762]],GK
116,[[2]],[[117]],[[14]],['high holistic'],['right'],['upright'],['U0228.bmp'],['male'],[[2]],['male'],[[1]],[[0.10675103]],GK
117,[[2]],[[118]],[[9]],['high holistic'],['fovea'],['upright'],['U0155.bmp'],['female'],[[0]],['female'],[[1]],[[0.03839472]],GK
118,[[2]],[[119]],[[17]],['high holistic'],['left'],['inverted'],['U0346.bmp'],['male'],[[10]],['male'],[[1]],[[0.00018311]],GK
119,[[2]],[[120]],[[15]],['high holistic'],['left'],['inverted'],['U0312.bmp'],['male'],[[6]],['female'],[[0]],[[0.2371675]],GK
120,[[2]],[[121]],[[8]],['high holistic'],['left'],['upright'],['U0137.bmp'],['female'],[[8]],['female'],[[1]],[[0.22741911]],GK
121,[[2]],[[122]],[[10]],['low holistic'],['right'],['inverted'],['U0159.bmp'],['female'],[[12]],['male'],[[0]],[[0.00016091]],GK
122,[[2]],[[123]],[[8]],['low holistic'],['right'],['inverted'],['U0137.bmp'],['male'],[[10]],['male'],[[1]],[[0.09031811]],GK
123,[[2]],[[124]],[[16]],['high holistic'],['right'],['inverted'],['U0335.bmp'],['female'],[[4]],['male'],[[0]],[[0.20648132]],GK
124,[[2]],[[125]],[[15]],['high holistic'],['left'],['inverted'],['U0312.bmp'],['male'],[[2]],['female'],[[0]],[[0.25342612]],GK
125,[[2]],[[126]],[[9]],['low holistic'],['right'],['inverted'],['U0155.bmp'],['male'],[[12]],['female'],[[0]],[[0.00016184]],GK
126,[[2]],[[127]],[[14]],['high holistic'],['right'],['inverted'],['U0228.bmp'],['male'],[[8]],['male'],[[1]],[[0.1018855]],GK
127,[[2]],[[128]],[[19]],['high holistic'],['right'],['inverted'],['U0361.bmp'],['female'],[[6]],['female'],[[1]],[[0.00048653]],GK
128,[[2]],[[129]],[[16]],['high holistic'],['right'],['inverted'],['U0335.bmp'],['female'],[[10]],['female'],[[1]],[[0.00010136]],GK
129,[[2]],[[130]],[[15]],['high holistic'],['left'],['inverted'],['U0312.bmp'],['male'],[[2]],['male'],[[1]],[[0.12935769]],GK
130,[[2]],[[131]],[[3]],['low holistic'],['right'],['upright'],['U0020.bmp'],['female'],[[6]],['female'],[[1]],[[0.05936208]],GK
131,[[2]],[[132]],[[8]],['high holistic'],['fovea'],['inverted'],['U0137.bmp'],['female'],[[0]],['male'],[[0]],[[0.00012892]],GK
132,[[2]],[[133]],[[12]],['low holistic'],['left'],['upright'],['U0178.bmp'],['female'],[[2]],['male'],[[0]],[[0.00271748]],GK
133,[[2]],[[134]],[[10]],['high holistic'],['left'],['inverted'],['U0159.bmp'],['male'],[[10]],['male'],[[1]],[[1.29340619]],GK
134,[[2]],[[135]],[[2]],['low holistic'],['fovea'],['upright'],['U0014.bmp'],['male'],[[0]],['male'],[[1]],[[0.00027166]],GK
135,[[2]],[[136]],[[5]],['high holistic'],['right'],['upright'],['U0076.bmp'],['female'],[[8]],['male'],[[0]],[[0.13579635]],GK
136,[[2]],[[137]],[[17]],['high holistic'],['left'],['upright'],['U0346.bmp'],['male'],[[8]],['male'],[[1]],[[0.00033524]],GK
137,[[2]],[[138]],[[1]],['low holistic'],['right'],['inverted'],['U0006.bmp'],['female'],[[6]],['female'],[[1]],[[9.73280112e-05]],GK
138,[[2]],[[139]],[[18]],['low holistic'],['right'],['upright'],['U0359.bmp'],['male'],[[4]],['female'],[[0]],[[0.00038323]],GK
139,[[2]],[[140]],[[2]],['low holistic'],['right'],['inverted'],['U0014.bmp'],['male'],[[10]],['female'],[[0]],[[0.24294616]],GK
140,[[2]],[[141]],[[14]],['high holistic'],['left'],['inverted'],['U0228.bmp'],['male'],[[6]],['male'],[[1]],[[0.00019931]],GK
141,[[2]],[[142]],[[11]],['high holistic'],['right'],['inverted'],['U0164.bmp'],['female'],[[8]],['male'],[[0]],[[0.01002765]],GK
142,[[2]],[[143]],[[5]],['low holistic'],['left'],['upright'],['U0076.bmp'],['male'],[[2]],['male'],[[1]],[[0.00020283]],GK
143,[[2]],[[144]],[[12]],['high holistic'],['left'],['inverted'],['U0178.bmp'],['male'],[[4]],['male'],[[1]],[[0.000258]],GK
144,[[2]],[[145]],[[3]],['high holistic'],['right'],['inverted'],['U0020.bmp'],['male'],[[12]],['female'],[[0]],[[0.00027525]],GK
145,[[2]],[[146]],[[14]],['high holistic'],['left'],['upright'],['U0228.bmp'],['male'],[[6]],['male'],[[1]],[[0.00037579]],GK
146,[[2]],[[147]],[[12]],['high holistic'],['right'],['upright'],['U0178.bmp'],['male'],[[12]],['male'],[[1]],[[0.40281831]],GK
147,[[2]],[[148]],[[2]],['low holistic'],['left'],['upright'],['U0014.bmp'],['male'],[[8]],['female'],[[0]],[[0.00041704]],GK
148,[[2]],[[149]],[[2]],['high holistic'],['left'],['inverted'],['U0014.bmp'],['male'],[[2]],['female'],[[0]],[[0.0437582]],GK
149,[[2]],[[150]],[[4]],['high holistic'],['left'],['upright'],['U0061.bmp'],['female'],[[6]],['female'],[[1]],[[0.02647609]],GK
150,[[2]],[[151]],[[1]],['high holistic'],['right'],['inverted'],['U0006.bmp'],['female'],[[12]],['female'],[[1]],[[0.00018624]],GK
151,[[2]],[[152]],[[9]],['high holistic'],['right'],['inverted'],['U0155.bmp'],['female'],[[4]],['female'],[[1]],[[0.00033725]],GK
152,[[2]],[[153]],[[17]],['high holistic'],['right'],['upright'],['U0346.bmp'],['male'],[[4]],['male'],[[1]],[[0.00835747]],GK
153,[[2]],[[154]],[[13]],['low holistic'],['left'],['upright'],['U0181.bmp'],['male'],[[2]],['male'],[[1]],[[0.00026334]],GK
154,[[2]],[[155]],[[11]],['low holistic'],['right'],['upright'],['U0164.bmp'],['female'],[[12]],['female'],[[1]],[[0.08802145]],GK
155,[[2]],[[156]],[[18]],['high holistic'],['left'],['inverted'],['U0359.bmp'],['male'],[[12]],['male'],[[1]],[[0.08454753]],GK
156,[[2]],[[157]],[[2]],['low holistic'],['right'],['upright'],['U0014.bmp'],['male'],[[4]],['male'],[[1]],[[0.00011427]],GK
157,[[2]],[[158]],[[19]],['low holistic'],['left'],['upright'],['U0361.bmp'],['female'],[[12]],['male'],[[0]],[[0.00032911]],GK
158,[[2]],[[159]],[[3]],['low holistic'],['left'],['inverted'],['U0020.bmp'],['female'],[[8]],['female'],[[1]],[[0.03639843]],GK
159,[[2]],[[160]],[[11]],['low holistic'],['left'],['inverted'],['U0164.bmp'],['female'],[[6]],['female'],[[1]],[[0.00026061]],GK
160,[[2]],[[161]],[[3]],['low holistic'],['left'],['upright'],['U0020.bmp'],['female'],[[12]],['female'],[[1]],[[0.12344828]],GK
161,[[2]],[[162]],[[12]],['high holistic'],['right'],['upright'],['U0178.bmp'],['male'],[[10]],['male'],[[1]],[[0.0004078]],GK
162,[[2]],[[163]],[[1]],['high holistic'],['fovea'],['inverted'],['U0006.bmp'],['female'],[[0]],['male'],[[0]],[[0.00029603]],GK
163,[[2]],[[164]],[[16]],['low holistic'],['left'],['inverted'],['U0335.bmp'],['female'],[[2]],['male'],[[0]],[[0.0293991]],GK
164,[[2]],[[165]],[[17]],['high holistic'],['left'],['inverted'],['U0346.bmp'],['male'],[[10]],['female'],[[0]],[[0.0003026]],GK
165,[[2]],[[166]],[[19]],['high holistic'],['left'],['inverted'],['U0361.bmp'],['female'],[[4]],['male'],[[0]],[[0.01283938]],GK
166,[[2]],[[167]],[[20]],['low holistic'],['right'],['inverted'],['U0362.bmp'],['male'],[[8]],['male'],[[1]],[[0.29087346]],GK
167,[[2]],[[168]],[[11]],['high holistic'],['left'],['inverted'],['U0164.bmp'],['female'],[[6]],['male'],[[0]],[[0.1116163]],GK
168,[[2]],[[169]],[[6]],['high holistic'],['fovea'],['upright'],['U0106.bmp'],['female'],[[0]],['female'],[[1]],[[0.05926562]],GK
169,[[2]],[[170]],[[3]],['high holistic'],['right'],['inverted'],['U0020.bmp'],['male'],[[10]],['female'],[[0]],[[0.00020561]],GK
170,[[2]],[[171]],[[11]],['low holistic'],['right'],['upright'],['U0164.bmp'],['female'],[[2]],['female'],[[1]],[[9.85199877e-05]],GK
171,[[2]],[[172]],[[12]],['high holistic'],['right'],['upright'],['U0178.bmp'],['male'],[[6]],['male'],[[1]],[[0.04084677]],GK
172,[[2]],[[173]],[[16]],['high holistic'],['left'],['inverted'],['U0335.bmp'],['female'],[[4]],['male'],[[0]],[[0.03977171]],GK
173,[[2]],[[174]],[[2]],['high holistic'],['right'],['upright'],['U0014.bmp'],['male'],[[12]],['male'],[[1]],[[0.00028753]],GK
174,[[2]],[[175]],[[14]],['high holistic'],['right'],['inverted'],['U0228.bmp'],['male'],[[12]],['female'],[[0]],[[0.04649402]],GK
175,[[2]],[[176]],[[11]],['high holistic'],['left'],['upright'],['U0164.bmp'],['female'],[[12]],['male'],[[0]],[[0.00016692]],GK
176,[[2]],[[177]],[[4]],['low holistic'],['left'],['inverted'],['U0061.bmp'],['female'],[[10]],['male'],[[0]],[[0.0846273]],GK
177,[[2]],[[178]],[[19]],['high holistic'],['right'],['inverted'],['U0361.bmp'],['female'],[[2]],['male'],[[0]],[[0.00018907]],GK
178,[[2]],[[179]],[[12]],['high holistic'],['right'],['inverted'],['U0178.bmp'],['male'],[[6]],['female'],[[0]],[[0.02390159]],GK
179,[[2]],[[180]],[[9]],['high holistic'],['left'],['inverted'],['U0155.bmp'],['female'],[[6]],['female'],[[1]],[[0.00023394]],GK
180,[[2]],[[181]],[[19]],['high holistic'],['right'],['upright'],['U0361.bmp'],['female'],[[10]],['female'],[[1]],[[0.02431136]],GK
181,[[2]],[[182]],[[14]],['low holistic'],['left'],['upright'],['U0228.bmp'],['male'],[[8]],['male'],[[1]],[[0.17571309]],GK
182,[[2]],[[183]],[[10]],['high holistic'],['left'],['upright'],['U0159.bmp'],['male'],[[8]],['male'],[[1]],[[0.00023182]],GK
183,[[2]],[[184]],[[17]],['low holistic'],['right'],['inverted'],['U0346.bmp'],['female'],[[12]],['male'],[[0]],[[0.00016943]],GK
184,[[2]],[[185]],[[11]],['low holistic'],['left'],['inverted'],['U0164.bmp'],['female'],[[4]],['female'],[[1]],[[0.05446268]],GK
185,[[2]],[[186]],[[12]],['low holistic'],['right'],['inverted'],['U0178.bmp'],['female'],[[6]],['male'],[[0]],[[0.17091136]],GK
186,[[2]],[[187]],[[14]],['low holistic'],['left'],['inverted'],['U0228.bmp'],['male'],[[4]],['female'],[[0]],[[0.0001558]],GK
187,[[2]],[[188]],[[8]],['high holistic'],['right'],['upright'],['U0137.bmp'],['female'],[[4]],['female'],[[1]],[[0.00017142]],GK
188,[[2]],[[189]],[[5]],['low holistic'],['left'],['inverted'],['U0076.bmp'],['male'],[[10]],['male'],[[1]],[[0.05318265]],GK
189,[[2]],[[190]],[[12]],['low holistic'],['left'],['upright'],['U0178.bmp'],['female'],[[4]],['female'],[[1]],[[0.03453564]],GK
190,[[2]],[[191]],[[18]],['high holistic'],['fovea'],['upright'],['U0359.bmp'],['male'],[[0]],['female'],[[0]],[[9.8805991e-05]],GK
191,[[2]],[[192]],[[9]],['high holistic'],['left'],['inverted'],['U0155.bmp'],['female'],[[6]],['male'],[[0]],[[0.00018188]],GK
192,[[2]],[[193]],[[3]],['high holistic'],['fovea'],['inverted'],['U0020.bmp'],['male'],[[0]],['female'],[[0]],[[0.00013327]],GK
193,[[2]],[[194]],[[9]],['low holistic'],['right'],['inverted'],['U0155.bmp'],['male'],[[2]],['male'],[[1]],[[0.08891531]],GK
194,[[2]],[[195]],[[7]],['high holistic'],['right'],['upright'],['U0107.bmp'],['female'],[[10]],['female'],[[1]],[[0.00015803]],GK
195,[[2]],[[196]],[[9]],['high holistic'],['right'],['upright'],['U0155.bmp'],['female'],[[10]],['female'],[[1]],[[0.13338263]],GK
196,[[2]],[[197]],[[17]],['high holistic'],['fovea'],['inverted'],['U0346.bmp'],['male'],[[0]],['male'],[[1]],[[0.10282133]],GK
197,[[2]],[[198]],[[9]],['low holistic'],['left'],['upright'],['U0155.bmp'],['male'],[[8]],['male'],[[1]],[[0.24334114]],GK
198,[[2]],[[199]],[[8]],['high holistic'],['right'],['upright'],['U0137.bmp'],['female'],[[4]],['female'],[[1]],[[0.0001235]],GK
199,[[2]],[[200]],[[8]],['high holistic'],['left'],['upright'],['U0137.bmp'],['female'],[[12]],['male'],[[0]],[[0.00019914]],GK
200,[[2]],[[201]],[[3]],['low holistic'],['left'],['upright'],['U0020.bmp'],['female'],[[4]],['female'],[[1]],[[0.00010458]],GK
201,[[2]],[[202]],[[6]],['high holistic'],['left'],['inverted'],['U0106.bmp'],['female'],[[2]],['male'],[[0]],[[0.38581566]],GK
202,[[2]],[[203]],[[2]],['low holistic'],['left'],['inverted'],['U0014.bmp'],['male'],[[8]],['female'],[[0]],[[0.0652584]],GK
203,[[2]],[[204]],[[9]],['high holistic'],['right'],['upright'],['U0155.bmp'],['female'],[[8]],['female'],[[1]],[[0.34353918]],GK
204,[[2]],[[205]],[[6]],['low holistic'],['right'],['upright'],['U0106.bmp'],['male'],[[10]],['female'],[[0]],[[0.09862443]],GK
205,[[2]],[[206]],[[6]],['high holistic'],['left'],['inverted'],['U0106.bmp'],['female'],[[12]],['male'],[[0]],[[0.17429175]],GK
206,[[2]],[[207]],[[9]],['low holistic'],['right'],['upright'],['U0155.bmp'],['male'],[[6]],['male'],[[1]],[[0.21458548]],GK
207,[[2]],[[208]],[[3]],['high holistic'],['left'],['inverted'],['U0020.bmp'],['male'],[[8]],['female'],[[0]],[[0.13470146]],GK
208,[[2]],[[209]],[[10]],['low holistic'],['left'],['upright'],['U0159.bmp'],['female'],[[8]],['female'],[[1]],[[0.00016612]],GK
209,[[2]],[[210]],[[15]],['low holistic'],['right'],['upright'],['U0312.bmp'],['male'],[[2]],['male'],[[1]],[[0.00010307]],GK
210,[[2]],[[211]],[[5]],['high holistic'],['fovea'],['upright'],['U0076.bmp'],['female'],[[0]],['female'],[[1]],[[0.00832495]],GK
211,[[2]],[[212]],[[16]],['high holistic'],['left'],['inverted'],['U0335.bmp'],['female'],[[8]],['male'],[[0]],[[9.7348995e-05]],GK
212,[[2]],[[213]],[[2]],['low holistic'],['right'],['upright'],['U0014.bmp'],['male'],[[4]],['male'],[[1]],[[0.00019668]],GK
213,[[2]],[[214]],[[8]],['high holistic'],['right'],['upright'],['U0137.bmp'],['female'],[[8]],['female'],[[1]],[[0.0563129]],GK
214,[[2]],[[215]],[[1]],['high holistic'],['right'],['upright'],['U0006.bmp'],['female'],[[4]],['female'],[[1]],[[0.00029701]],GK
215,[[2]],[[216]],[[5]],['high holistic'],['left'],['inverted'],['U0076.bmp'],['female'],[[12]],['male'],[[0]],[[0.00030603]],GK
216,[[2]],[[217]],[[1]],['high holistic'],['left'],['inverted'],['U0006.bmp'],['female'],[[12]],['female'],[[1]],[[0.12384354]],GK
217,[[2]],[[218]],[[4]],['high holistic'],['right'],['upright'],['U0061.bmp'],['female'],[[8]],['male'],[[0]],[[0.13409126]],GK
218,[[2]],[[219]],[[3]],['high holistic'],['left'],['inverted'],['U0020.bmp'],['male'],[[6]],['female'],[[0]],[[0.08049328]],GK
219,[[2]],[[220]],[[6]],['high holistic'],['fovea'],['inverted'],['U0106.bmp'],['female'],[[0]],['female'],[[1]],[[0.11234231]],GK
220,[[2]],[[221]],[[4]],['low holistic'],['fovea'],['upright'],['U0061.bmp'],['female'],[[0]],['female'],[[1]],[[0.00021296]],GK
221,[[2]],[[222]],[[3]],['low holistic'],['left'],['upright'],['U0020.bmp'],['female'],[[8]],['female'],[[1]],[[0.02973923]],GK
222,[[2]],[[223]],[[12]],['high holistic'],['left'],['upright'],['U0178.bmp'],['male'],[[10]],['male'],[[1]],[[0.12506253]],GK
223,[[2]],[[224]],[[19]],['high holistic'],['left'],['inverted'],['U0361.bmp'],['female'],[[6]],['male'],[[0]],[[0.17572445]],GK
224,[[2]],[[225]],[[19]],['high holistic'],['left'],['upright'],['U0361.bmp'],['female'],[[2]],['male'],[[0]],[[0.2724278]],GK
225,[[2]],[[226]],[[5]],['high holistic'],['left'],['inverted'],['U0076.bmp'],['female'],[[8]],['male'],[[0]],[[0.00016151]],GK
226,[[2]],[[227]],[[10]],['high holistic'],['left'],['upright'],['U0159.bmp'],['male'],[[4]],['male'],[[1]],[[0.00010731]],GK
227,[[2]],[[228]],[[8]],['low holistic'],['right'],['upright'],['U0137.bmp'],['male'],[[2]],['male'],[[1]],[[0.19581241]],GK
228,[[2]],[[229]],[[11]],['high holistic'],['right'],['upright'],['U0164.bmp'],['female'],[[2]],['female'],[[1]],[[0.06613627]],GK
229,[[2]],[[230]],[[6]],['high holistic'],['left'],['upright'],['U0106.bmp'],['female'],[[12]],['male'],[[0]],[[0.0255877]],GK
230,[[2]],[[231]],[[2]],['high holistic'],['left'],['inverted'],['U0014.bmp'],['male'],[[10]],['male'],[[1]],[[0.00035008]],GK
231,[[2]],[[232]],[[9]],['high holistic'],['right'],['inverted'],['U0155.bmp'],['female'],[[6]],['male'],[[0]],[[0.00035126]],GK
232,[[2]],[[233]],[[4]],['low holistic'],['right'],['upright'],['U0061.bmp'],['female'],[[10]],['female'],[[1]],[[0.08857163]],GK
233,[[2]],[[234]],[[1]],['low holistic'],['right'],['inverted'],['U0006.bmp'],['female'],[[2]],['female'],[[1]],[[0.00014825]],GK
234,[[2]],[[235]],[[20]],['high holistic'],['right'],['inverted'],['U0362.bmp'],['female'],[[4]],['female'],[[1]],[[0.08358375]],GK
235,[[2]],[[236]],[[9]],['low holistic'],['right'],['inverted'],['U0155.bmp'],['male'],[[10]],['female'],[[0]],[[0.30442816]],GK
236,[[2]],[[237]],[[20]],['high holistic'],['right'],['inverted'],['U0362.bmp'],['female'],[[2]],['female'],[[1]],[[0.06918873]],GK
237,[[2]],[[238]],[[16]],['high holistic'],['right'],['inverted'],['U0335.bmp'],['female'],[[4]],['female'],[[1]],[[0.2337471]],GK
238,[[2]],[[239]],[[1]],['low holistic'],['right'],['upright'],['U0006.bmp'],['female'],[[2]],['female'],[[1]],[[0.00020508]],GK
239,[[2]],[[240]],[[14]],['low holistic'],['right'],['upright'],['U0228.bmp'],['male'],[[4]],['male'],[[1]],[[0.17329421]],GK
240,[[2]],[[241]],[[15]],['low holistic'],['right'],['inverted'],['U0312.bmp'],['male'],[[12]],['female'],[[0]],[[0.09235419]],GK
241,[[2]],[[242]],[[13]],['low holistic'],['right'],['inverted'],['U0181.bmp'],['male'],[[2]],['male'],[[1]],[[0.00010796]],GK
242,[[2]],[[243]],[[12]],['high holistic'],['left'],['inverted'],['U0178.bmp'],['male'],[[12]],['female'],[[0]],[[0.08077884]],GK
243,[[2]],[[244]],[[5]],['high holistic'],['right'],['upright'],['U0076.bmp'],['female'],[[10]],['female'],[[1]],[[0.10194966]],GK
244,[[2]],[[245]],[[16]],['low holistic'],['right'],['inverted'],['U0335.bmp'],['female'],[[6]],['female'],[[1]],[[0.25790697]],GK
245,[[2]],[[246]],[[5]],['low holistic'],['right'],['inverted'],['U0076.bmp'],['male'],[[10]],['female'],[[0]],[[0.07078357]],GK
246,[[2]],[[247]],[[8]],['high holistic'],['left'],['upright'],['U0137.bmp'],['female'],[[10]],['female'],[[1]],[[0.45225498]],GK
247,[[2]],[[248]],[[18]],['high holistic'],['left'],['upright'],['U0359.bmp'],['male'],[[2]],['male'],[[1]],[[0.00020611]],GK
248,[[2]],[[249]],[[18]],['high holistic'],['right'],['upright'],['U0359.bmp'],['male'],[[10]],['male'],[[1]],[[0.04260336]],GK
249,[[2]],[[250]],[[9]],['low holistic'],['right'],['inverted'],['U0155.bmp'],['male'],[[2]],['male'],[[1]],[[0.03252935]],GK
250,[[2]],[[251]],[[7]],['high holistic'],['right'],['inverted'],['U0107.bmp'],['female'],[[6]],['male'],[[0]],[[0.03856322]],GK
251,[[2]],[[252]],[[13]],['high holistic'],['left'],['inverted'],['U0181.bmp'],['female'],[[6]],['male'],[[0]],[[0.22857735]],GK
252,[[2]],[[253]],[[19]],['high holistic'],['left'],['upright'],['U0361.bmp'],['female'],[[4]],['male'],[[0]],[[0.08424578]],GK
253,[[2]],[[254]],[[19]],['high holistic'],['right'],['upright'],['U0361.bmp'],['female'],[[2]],['male'],[[0]],[[0.00011805]],GK
254,[[2]],[[255]],[[12]],['high holistic'],['left'],['inverted'],['U0178.bmp'],['male'],[[4]],['male'],[[1]],[[0.04855997]],GK
255,[[2]],[[256]],[[7]],['low holistic'],['right'],['upright'],['U0107.bmp'],['female'],[[10]],['female'],[[1]],[[0.14292877]],GK
256,[[2]],[[257]],[[18]],['high holistic'],['left'],['upright'],['U0359.bmp'],['male'],[[2]],['male'],[[1]],[[0.0881352]],GK
257,[[2]],[[258]],[[9]],['high holistic'],['fovea'],['inverted'],['U0155.bmp'],['female'],[[0]],['female'],[[1]],[[0.24561588]],GK
258,[[2]],[[259]],[[19]],['low holistic'],['left'],['inverted'],['U0361.bmp'],['female'],[[6]],['male'],[[0]],[[0.29873037]],GK
259,[[2]],[[260]],[[1]],['low holistic'],['left'],['upright'],['U0006.bmp'],['female'],[[8]],['female'],[[1]],[[0.00021655]],GK
260,[[2]],[[261]],[[11]],['low holistic'],['right'],['upright'],['U0164.bmp'],['female'],[[2]],['female'],[[1]],[[0.03609498]],GK
261,[[2]],[[262]],[[15]],['low holistic'],['right'],['upright'],['U0312.bmp'],['male'],[[2]],['male'],[[1]],[[0.00010736]],GK
262,[[2]],[[263]],[[4]],['low holistic'],['right'],['upright'],['U0061.bmp'],['female'],[[10]],['female'],[[1]],[[0.00027009]],GK
263,[[2]],[[264]],[[7]],['low holistic'],['left'],['upright'],['U0107.bmp'],['female'],[[4]],['female'],[[1]],[[1.76626858]],GK
264,[[2]],[[265]],[[4]],['low holistic'],['left'],['upright'],['U0061.bmp'],['female'],[[12]],['female'],[[1]],[[0.29240338]],GK
265,[[2]],[[266]],[[7]],['low holistic'],['right'],['inverted'],['U0107.bmp'],['female'],[[10]],['female'],[[1]],[[0.00013425]],GK
266,[[2]],[[267]],[[9]],['high holistic'],['left'],['upright'],['U0155.bmp'],['female'],[[4]],['female'],[[1]],[[0.00020745]],GK
267,[[2]],[[268]],[[11]],['low holistic'],['left'],['inverted'],['U0164.bmp'],['female'],[[8]],['female'],[[1]],[[0.00039912]],GK
268,[[2]],[[269]],[[1]],['high holistic'],['left'],['inverted'],['U0006.bmp'],['female'],[[6]],['female'],[[1]],[[0.15239082]],GK
269,[[2]],[[270]],[[12]],['high holistic'],['right'],['upright'],['U0178.bmp'],['male'],[[6]],['female'],[[0]],[[9.75519943e-05]],GK
270,[[2]],[[271]],[[6]],['high holistic'],['right'],['inverted'],['U0106.bmp'],['female'],[[6]],['male'],[[0]],[[0.2336473]],GK
271,[[2]],[[272]],[[5]],['low holistic'],['left'],['upright'],['U0076.bmp'],['male'],[[6]],['male'],[[1]],[[0.00024651]],GK
272,[[2]],[[273]],[[5]],['high holistic'],['left'],['upright'],['U0076.bmp'],['female'],[[10]],['female'],[[1]],[[0.07115726]],GK
273,[[2]],[[274]],[[4]],['low holistic'],['fovea'],['upright'],['U0061.bmp'],['female'],[[0]],['female'],[[1]],[[0.0001041]],GK
274,[[2]],[[275]],[[20]],['low holistic'],['left'],['upright'],['U0362.bmp'],['male'],[[8]],['male'],[[1]],[[0.04335539]],GK
275,[[2]],[[276]],[[19]],['low holistic'],['left'],['upright'],['U0361.bmp'],['female'],[[12]],['male'],[[0]],[[0.20109806]],GK
276,[[2]],[[277]],[[17]],['high holistic'],['left'],['inverted'],['U0346.bmp'],['male'],[[2]],['male'],[[1]],[[9.84459766e-05]],GK
277,[[2]],[[278]],[[15]],['high holistic'],['fovea'],['inverted'],['U0312.bmp'],['male'],[[0]],['male'],[[1]],[[0.02613509]],GK
278,[[2]],[[279]],[[4]],['high holistic'],['right'],['inverted'],['U0061.bmp'],['female'],[[12]],['male'],[[0]],[[0.39175479]],GK
279,[[2]],[[280]],[[8]],['low holistic'],['left'],['inverted'],['U0137.bmp'],['male'],[[12]],['male'],[[1]],[[0.00016735]],GK
280,[[2]],[[281]],[[4]],['high holistic'],['left'],['upright'],['U0061.bmp'],['female'],[[4]],['female'],[[1]],[[0.21533773]],GK
281,[[2]],[[282]],[[1]],['high holistic'],['fovea'],['inverted'],['U0006.bmp'],['female'],[[0]],['female'],[[1]],[[0.03803976]],GK
282,[[2]],[[283]],[[7]],['low holistic'],['right'],['upright'],['U0107.bmp'],['female'],[[12]],['female'],[[1]],[[0.01366643]],GK
283,[[2]],[[284]],[[14]],['high holistic'],['right'],['inverted'],['U0228.bmp'],['male'],[[6]],['female'],[[0]],[[9.81280173e-05]],GK
284,[[2]],[[285]],[[13]],['low holistic'],['left'],['upright'],['U0181.bmp'],['male'],[[12]],['male'],[[1]],[[0.01369997]],GK
285,[[2]],[[286]],[[11]],['low holistic'],['right'],['inverted'],['U0164.bmp'],['female'],[[12]],['female'],[[1]],[[0.07634481]],GK
286,[[2]],[[287]],[[9]],['high holistic'],['left'],['inverted'],['U0155.bmp'],['female'],[[6]],['male'],[[0]],[[0.12871231]],GK
287,[[2]],[[288]],[[6]],['high holistic'],['left'],['inverted'],['U0106.bmp'],['female'],[[10]],['female'],[[1]],[[9.98539908e-05]],GK
288,[[2]],[[289]],[[11]],['high holistic'],['right'],['inverted'],['U0164.bmp'],['female'],[[6]],['male'],[[0]],[[0.22759501]],GK
289,[[2]],[[290]],[[16]],['low holistic'],['left'],['upright'],['U0335.bmp'],['female'],[[6]],['male'],[[0]],[[0.15477996]],GK
290,[[2]],[[291]],[[16]],['high holistic'],['left'],['inverted'],['U0335.bmp'],['female'],[[6]],['female'],[[1]],[[0.16474032]],GK
291,[[2]],[[292]],[[12]],['low holistic'],['right'],['inverted'],['U0178.bmp'],['female'],[[8]],['female'],[[1]],[[0.11706665]],GK
292,[[2]],[[293]],[[15]],['low holistic'],['right'],['inverted'],['U0312.bmp'],['male'],[[6]],['male'],[[1]],[[0.17646166]],GK
293,[[2]],[[294]],[[13]],['low holistic'],['left'],['upright'],['U0181.bmp'],['male'],[[2]],['male'],[[1]],[[0.21634736]],GK
294,[[2]],[[295]],[[3]],['high holistic'],['left'],['upright'],['U0020.bmp'],['male'],[[6]],['female'],[[0]],[[0.04907645]],GK
295,[[2]],[[296]],[[11]],['low holistic'],['right'],['inverted'],['U0164.bmp'],['female'],[[2]],['male'],[[0]],[[0.00010957]],GK
296,[[2]],[[297]],[[7]],['high holistic'],['right'],['upright'],['U0107.bmp'],['female'],[[4]],['female'],[[1]],[[0.19679067]],GK
297,[[2]],[[298]],[[2]],['low holistic'],['right'],['upright'],['U0014.bmp'],['male'],[[8]],['male'],[[1]],[[0.11070238]],GK
298,[[2]],[[299]],[[3]],['low holistic'],['right'],['inverted'],['U0020.bmp'],['female'],[[2]],['female'],[[1]],[[0.00023082]],GK
299,[[2]],[[300]],[[4]],['low holistic'],['right'],['inverted'],['U0061.bmp'],['female'],[[10]],['female'],[[1]],[[0.40260613]],GK
300,[[2]],[[301]],[[14]],['high holistic'],['left'],['upright'],['U0228.bmp'],['male'],[[4]],['male'],[[1]],[[0.17061514]],GK
301,[[2]],[[302]],[[9]],['low holistic'],['right'],['upright'],['U0155.bmp'],['male'],[[4]],['male'],[[1]],[[0.33786659]],GK
302,[[2]],[[303]],[[14]],['high holistic'],['left'],['upright'],['U0228.bmp'],['male'],[[4]],['male'],[[1]],[[0.00019948]],GK
303,[[2]],[[304]],[[6]],['low holistic'],['right'],['inverted'],['U0106.bmp'],['male'],[[4]],['male'],[[1]],[[0.03607325]],GK
304,[[2]],[[305]],[[1]],['low holistic'],['left'],['upright'],['U0006.bmp'],['female'],[[10]],['female'],[[1]],[[0.00010776]],GK
305,[[2]],[[306]],[[11]],['low holistic'],['fovea'],['inverted'],['U0164.bmp'],['female'],[[0]],['female'],[[1]],[[0.03507461]],GK
306,[[2]],[[307]],[[6]],['high holistic'],['left'],['inverted'],['U0106.bmp'],['female'],[[2]],['female'],[[1]],[[9.84339858e-05]],GK
307,[[2]],[[308]],[[19]],['high holistic'],['right'],['upright'],['U0361.bmp'],['female'],[[8]],['male'],[[0]],[[0.18573465]],GK
308,[[2]],[[309]],[[19]],['low holistic'],['left'],['inverted'],['U0361.bmp'],['female'],[[4]],['male'],[[0]],[[0.08147464]],GK
309,[[2]],[[310]],[[8]],['high holistic'],['left'],['upright'],['U0137.bmp'],['female'],[[4]],['female'],[[1]],[[0.07106435]],GK
310,[[2]],[[311]],[[1]],['low holistic'],['left'],['inverted'],['U0006.bmp'],['female'],[[6]],['female'],[[1]],[[0.14610508]],GK
311,[[2]],[[312]],[[14]],['high holistic'],['left'],['upright'],['U0228.bmp'],['male'],[[8]],['male'],[[1]],[[0.03719301]],GK
312,[[2]],[[313]],[[17]],['high holistic'],['right'],['upright'],['U0346.bmp'],['male'],[[12]],['male'],[[1]],[[9.70730034e-05]],GK
313,[[2]],[[314]],[[20]],['high holistic'],['right'],['inverted'],['U0362.bmp'],['female'],[[12]],['male'],[[0]],[[0.36403043]],GK
314,[[2]],[[315]],[[2]],['low holistic'],['right'],['upright'],['U0014.bmp'],['male'],[[12]],['male'],[[1]],[[0.16320369]],GK
315,[[2]],[[316]],[[10]],['low holistic'],['right'],['inverted'],['U0159.bmp'],['female'],[[10]],['female'],[[1]],[[0.10037158]],GK
316,[[2]],[[317]],[[12]],['high holistic'],['left'],['upright'],['U0178.bmp'],['male'],[[6]],['male'],[[1]],[[0.04021299]],GK
317,[[2]],[[318]],[[14]],['high holistic'],['left'],['inverted'],['U0228.bmp'],['male'],[[2]],['male'],[[1]],[[0.00013644]],GK
318,[[2]],[[319]],[[15]],['high holistic'],['right'],['upright'],['U0312.bmp'],['male'],[[10]],['male'],[[1]],[[0.1578444]],GK
319,[[2]],[[320]],[[14]],['high holistic'],['left'],['upright'],['U0228.bmp'],['male'],[[10]],['male'],[[1]],[[0.00010435]],GK
320,[[2]],[[321]],[[15]],['high holistic'],['right'],['upright'],['U0312.bmp'],['male'],[[10]],['male'],[[1]],[[0.00010479]],GK
321,[[2]],[[322]],[[8]],['high holistic'],['left'],['inverted'],['U0137.bmp'],['female'],[[10]],['male'],[[0]],[[0.00038487]],GK
322,[[2]],[[323]],[[12]],['low holistic'],['right'],['upright'],['U0178.bmp'],['female'],[[8]],['female'],[[1]],[[0.00020538]],GK
323,[[2]],[[324]],[[3]],['low holistic'],['left'],['inverted'],['U0020.bmp'],['female'],[[4]],['male'],[[0]],[[0.00028373]],GK
324,[[2]],[[325]],[[2]],['high holistic'],['right'],['upright'],['U0014.bmp'],['male'],[[12]],['male'],[[1]],[[0.05556204]],GK
325,[[2]],[[326]],[[20]],['high holistic'],['right'],['inverted'],['U0362.bmp'],['female'],[[6]],['male'],[[0]],[[0.26040586]],GK
326,[[2]],[[327]],[[6]],['low holistic'],['left'],['upright'],['U0106.bmp'],['male'],[[4]],['male'],[[1]],[[0.33226387]],GK
327,[[2]],[[328]],[[12]],['low holistic'],['right'],['upright'],['U0178.bmp'],['female'],[[10]],['female'],[[1]],[[0.77297451]],GK
328,[[2]],[[329]],[[20]],['high holistic'],['right'],['upright'],['U0362.bmp'],['female'],[[4]],['male'],[[0]],[[0.1812373]],GK
329,[[2]],[[330]],[[4]],['low holistic'],['right'],['inverted'],['U0061.bmp'],['female'],[[8]],['male'],[[0]],[[0.39699068]],GK
330,[[2]],[[331]],[[4]],['low holistic'],['left'],['upright'],['U0061.bmp'],['female'],[[10]],['female'],[[1]],[[0.22094916]],GK
331,[[2]],[[332]],[[7]],['low holistic'],['right'],['inverted'],['U0107.bmp'],['female'],[[4]],['female'],[[1]],[[0.08344809]],GK
332,[[2]],[[333]],[[19]],['high holistic'],['left'],['inverted'],['U0361.bmp'],['female'],[[6]],['male'],[[0]],[[0.03181343]],GK
333,[[2]],[[334]],[[8]],['high holistic'],['right'],['upright'],['U0137.bmp'],['female'],[[6]],['female'],[[1]],[[0.00015064]],GK
334,[[2]],[[335]],[[6]],['low holistic'],['right'],['upright'],['U0106.bmp'],['male'],[[4]],['male'],[[1]],[[0.2223864]],GK
335,[[2]],[[336]],[[4]],['high holistic'],['right'],['upright'],['U0061.bmp'],['female'],[[4]],['female'],[[1]],[[0.06897185]],GK
336,[[2]],[[337]],[[8]],['low holistic'],['right'],['upright'],['U0137.bmp'],['male'],[[8]],['female'],[[0]],[[0.16461187]],GK
337,[[2]],[[338]],[[8]],['high holistic'],['right'],['upright'],['U0137.bmp'],['female'],[[4]],['female'],[[1]],[[9.77729796e-05]],GK
338,[[2]],[[339]],[[3]],['high holistic'],['left'],['inverted'],['U0020.bmp'],['male'],[[12]],['male'],[[1]],[[0.18999338]],GK
339,[[2]],[[340]],[[9]],['low holistic'],['right'],['upright'],['U0155.bmp'],['male'],[[12]],['male'],[[1]],[[0.34934354]],GK
340,[[2]],[[341]],[[2]],['high holistic'],['right'],['upright'],['U0014.bmp'],['male'],[[4]],['male'],[[1]],[[0.01484539]],GK
341,[[2]],[[342]],[[13]],['low holistic'],['fovea'],['inverted'],['U0181.bmp'],['male'],[[0]],['male'],[[1]],[[0.033469]],GK
342,[[2]],[[343]],[[1]],['high holistic'],['left'],['inverted'],['U0006.bmp'],['female'],[[8]],['male'],[[0]],[[0.00010561]],GK
343,[[2]],[[344]],[[12]],['low holistic'],['left'],['inverted'],['U0178.bmp'],['female'],[[6]],['female'],[[1]],[[0.20598128]],GK
344,[[2]],[[345]],[[16]],['high holistic'],['left'],['upright'],['U0335.bmp'],['female'],[[6]],['male'],[[0]],[[0.22133106]],GK
345,[[2]],[[346]],[[5]],['high holistic'],['right'],['upright'],['U0076.bmp'],['female'],[[10]],['male'],[[0]],[[0.02808284]],GK
346,[[2]],[[347]],[[9]],['low holistic'],['right'],['upright'],['U0155.bmp'],['male'],[[4]],['male'],[[1]],[[0.00986967]],GK
347,[[2]],[[348]],[[12]],['high holistic'],['left'],['upright'],['U0178.bmp'],['male'],[[8]],['female'],[[0]],[[0.01001682]],GK
348,[[2]],[[349]],[[2]],['low holistic'],['left'],['upright'],['U0014.bmp'],['male'],[[4]],['male'],[[1]],[[0.16047174]],GK
349,[[2]],[[350]],[[10]],['high holistic'],['left'],['upright'],['U0159.bmp'],['male'],[[6]],['male'],[[1]],[[0.00352405]],GK
350,[[2]],[[351]],[[13]],['high holistic'],['left'],['upright'],['U0181.bmp'],['female'],[[6]],['male'],[[0]],[[0.00012216]],GK
351,[[2]],[[352]],[[5]],['high holistic'],['right'],['upright'],['U0076.bmp'],['female'],[[8]],['female'],[[1]],[[0.02586068]],GK
352,[[2]],[[353]],[[17]],['high holistic'],['right'],['upright'],['U0346.bmp'],['male'],[[10]],['male'],[[1]],[[0.15349544]],GK
353,[[2]],[[354]],[[20]],['low holistic'],['left'],['upright'],['U0362.bmp'],['male'],[[2]],['male'],[[1]],[[0.00289607]],GK
354,[[2]],[[355]],[[17]],['low holistic'],['right'],['upright'],['U0346.bmp'],['female'],[[4]],['female'],[[1]],[[0.18002866]],GK
355,[[2]],[[356]],[[11]],['low holistic'],['right'],['inverted'],['U0164.bmp'],['female'],[[2]],['female'],[[1]],[[0.06158582]],GK
356,[[2]],[[357]],[[6]],['high holistic'],['left'],['inverted'],['U0106.bmp'],['female'],[[4]],['male'],[[0]],[[0.2269358]],GK
357,[[2]],[[358]],[[15]],['low holistic'],['right'],['upright'],['U0312.bmp'],['male'],[[6]],['male'],[[1]],[[0.03332233]],GK
358,[[2]],[[359]],[[5]],['low holistic'],['left'],['inverted'],['U0076.bmp'],['male'],[[6]],['female'],[[0]],[[0.01491897]],GK
359,[[2]],[[360]],[[20]],['low holistic'],['right'],['inverted'],['U0362.bmp'],['male'],[[10]],['male'],[[1]],[[0.03872116]],GK
360,[[2]],[[361]],[[13]],['low holistic'],['right'],['upright'],['U0181.bmp'],['male'],[[10]],['male'],[[1]],[[0.13122977]],GK
361,[[2]],[[362]],[[13]],['low holistic'],['left'],['inverted'],['U0181.bmp'],['male'],[[10]],['female'],[[0]],[[0.13377426]],GK
362,[[2]],[[363]],[[4]],['low holistic'],['fovea'],['upright'],['U0061.bmp'],['female'],[[0]],['female'],[[1]],[[0.02657341]],GK
363,[[2]],[[364]],[[2]],['low holistic'],['left'],['upright'],['U0014.bmp'],['male'],[[6]],['male'],[[1]],[[0.10513019]],GK
364,[[2]],[[365]],[[6]],['high holistic'],['fovea'],['inverted'],['U0106.bmp'],['female'],[[0]],['male'],[[0]],[[0.00030373]],GK
365,[[2]],[[366]],[[18]],['high holistic'],['left'],['inverted'],['U0359.bmp'],['male'],[[4]],['male'],[[1]],[[0.00010375]],GK
366,[[2]],[[367]],[[19]],['low holistic'],['right'],['inverted'],['U0361.bmp'],['female'],[[4]],['male'],[[0]],[[0.00012211]],GK
367,[[2]],[[368]],[[14]],['high holistic'],['right'],['upright'],['U0228.bmp'],['male'],[[4]],['male'],[[1]],[[0.00010384]],GK
368,[[2]],[[369]],[[15]],['high holistic'],['right'],['upright'],['U0312.bmp'],['male'],[[2]],['male'],[[1]],[[9.71579866e-05]],GK
369,[[2]],[[370]],[[5]],['high holistic'],['fovea'],['upright'],['U0076.bmp'],['female'],[[0]],['female'],[[1]],[[0.05649995]],GK
370,[[2]],[[371]],[[12]],['low holistic'],['right'],['upright'],['U0178.bmp'],['female'],[[8]],['female'],[[1]],[[0.0524233]],GK
371,[[2]],[[372]],[[17]],['low holistic'],['left'],['inverted'],['U0346.bmp'],['female'],[[4]],['female'],[[1]],[[0.25041023]],GK
372,[[2]],[[373]],[[9]],['low holistic'],['left'],['inverted'],['U0155.bmp'],['male'],[[4]],['female'],[[0]],[[0.52136951]],GK
373,[[2]],[[374]],[[20]],['high holistic'],['fovea'],['inverted'],['U0362.bmp'],['female'],[[0]],['male'],[[0]],[[0.32406349]],GK
374,[[2]],[[375]],[[2]],['high holistic'],['right'],['upright'],['U0014.bmp'],['male'],[[6]],['male'],[[1]],[[0.09474249]],GK
375,[[2]],[[376]],[[7]],['low holistic'],['left'],['inverted'],['U0107.bmp'],['female'],[[10]],['female'],[[1]],[[0.08388918]],GK
376,[[2]],[[377]],[[11]],['low holistic'],['left'],['inverted'],['U0164.bmp'],['female'],[[12]],['female'],[[1]],[[0.00038986]],GK
377,[[2]],[[378]],[[2]],['low holistic'],['right'],['upright'],['U0014.bmp'],['male'],[[10]],['male'],[[1]],[[0.03049478]],GK
378,[[2]],[[379]],[[15]],['high holistic'],['right'],['inverted'],['U0312.bmp'],['male'],[[4]],['male'],[[1]],[[0.02695697]],GK
379,[[2]],[[380]],[[12]],['high holistic'],['right'],['inverted'],['U0178.bmp'],['male'],[[10]],['male'],[[1]],[[0.08202961]],GK
380,[[2]],[[381]],[[11]],['low holistic'],['right'],['upright'],['U0164.bmp'],['female'],[[8]],['female'],[[1]],[[0.00479365]],GK
381,[[2]],[[382]],[[17]],['high holistic'],['left'],['inverted'],['U0346.bmp'],['male'],[[10]],['female'],[[0]],[[0.48494965]],GK
382,[[2]],[[383]],[[18]],['low holistic'],['right'],['upright'],['U0359.bmp'],['male'],[[4]],['male'],[[1]],[[0.29731678]],GK
383,[[2]],[[384]],[[16]],['high holistic'],['left'],['inverted'],['U0335.bmp'],['female'],[[2]],['male'],[[0]],[[0.50907951]],GK
384,[[2]],[[385]],[[7]],['low holistic'],['fovea'],['upright'],['U0107.bmp'],['female'],[[0]],['female'],[[1]],[[0.06465003]],GK
385,[[2]],[[386]],[[10]],['high holistic'],['right'],['inverted'],['U0159.bmp'],['male'],[[8]],['male'],[[1]],[[0.27065429]],GK
386,[[2]],[[387]],[[16]],['high holistic'],['left'],['inverted'],['U0335.bmp'],['female'],[[2]],['female'],[[1]],[[0.47384767]],GK
387,[[2]],[[388]],[[3]],['high holistic'],['left'],['inverted'],['U0020.bmp'],['male'],[[8]],['female'],[[0]],[[0.18290413]],GK
388,[[2]],[[389]],[[3]],['low holistic'],['right'],['inverted'],['U0020.bmp'],['female'],[[8]],['female'],[[1]],[[0.12854646]],GK
389,[[2]],[[390]],[[6]],['high holistic'],['right'],['inverted'],['U0106.bmp'],['female'],[[2]],['female'],[[1]],[[0.16338372]],GK
390,[[2]],[[391]],[[11]],['high holistic'],['left'],['upright'],['U0164.bmp'],['female'],[[2]],['female'],[[1]],[[0.22986822]],GK
391,[[2]],[[392]],[[20]],['high holistic'],['left'],['upright'],['U0362.bmp'],['female'],[[6]],['female'],[[1]],[[0.21159092]],GK
392,[[2]],[[393]],[[15]],['high holistic'],['right'],['inverted'],['U0312.bmp'],['male'],[[8]],['female'],[[0]],[[0.13930737]],GK
393,[[2]],[[394]],[[7]],['high holistic'],['right'],['inverted'],['U0107.bmp'],['female'],[[8]],['female'],[[1]],[[0.07079006]],GK
394,[[2]],[[395]],[[6]],['high holistic'],['left'],['inverted'],['U0106.bmp'],['female'],[[8]],['female'],[[1]],[[0.1391963]],GK
395,[[2]],[[396]],[[18]],['high holistic'],['right'],['inverted'],['U0359.bmp'],['male'],[[6]],['male'],[[1]],[[0.12513489]],GK
396,[[2]],[[397]],[[19]],['low holistic'],['left'],['inverted'],['U0361.bmp'],['female'],[[10]],['male'],[[0]],[[0.36062824]],GK
397,[[2]],[[398]],[[13]],['high holistic'],['left'],['upright'],['U0181.bmp'],['female'],[[4]],['female'],[[1]],[[0.22437059]],GK
398,[[2]],[[399]],[[6]],['high holistic'],['right'],['inverted'],['U0106.bmp'],['female'],[[2]],['female'],[[1]],[[0.32903905]],GK
399,[[2]],[[400]],[[2]],['low holistic'],['right'],['upright'],['U0014.bmp'],['male'],[[2]],['male'],[[1]],[[0.17141555]],GK
400,[[2]],[[401]],[[17]],['low holistic'],['left'],['inverted'],['U0346.bmp'],['female'],[[8]],['male'],[[0]],[[0.29903919]],GK
401,[[2]],[[402]],[[12]],['high holistic'],['left'],['upright'],['U0178.bmp'],['male'],[[2]],['male'],[[1]],[[0.29516426]],GK
402,[[2]],[[403]],[[19]],['high holistic'],['right'],['inverted'],['U0361.bmp'],['female'],[[6]],['male'],[[0]],[[0.45282196]],GK
403,[[2]],[[404]],[[2]],['low holistic'],['left'],['inverted'],['U0014.bmp'],['male'],[[10]],['male'],[[1]],[[0.41685905]],GK
404,[[2]],[[405]],[[12]],['low holistic'],['right'],['inverted'],['U0178.bmp'],['female'],[[8]],['female'],[[1]],[[0.26555378]],GK
405,[[2]],[[406]],[[6]],['high holistic'],['left'],['upright'],['U0106.bmp'],['female'],[[4]],['male'],[[0]],[[0.36653439]],GK
406,[[2]],[[407]],[[17]],['high holistic'],['right'],['upright'],['U0346.bmp'],['male'],[[8]],['male'],[[1]],[[0.3266545]],GK
407,[[2]],[[408]],[[4]],['low holistic'],['right'],['inverted'],['U0061.bmp'],['female'],[[12]],['female'],[[1]],[[0.49699363]],GK
408,[[2]],[[409]],[[9]],['low holistic'],['right'],['upright'],['U0155.bmp'],['male'],[[4]],['male'],[[1]],[[0.29206812]],GK
409,[[2]],[[410]],[[8]],['high holistic'],['left'],['inverted'],['U0137.bmp'],['female'],[[6]],['female'],[[1]],[[0.73520069]],GK
410,[[2]],[[411]],[[17]],['high holistic'],['left'],['inverted'],['U0346.bmp'],['male'],[[4]],['female'],[[0]],[[0.22540691]],GK
411,[[2]],[[412]],[[14]],['high holistic'],['left'],['inverted'],['U0228.bmp'],['male'],[[6]],['female'],[[0]],[[0.36879931]],GK
412,[[2]],[[413]],[[5]],['high holistic'],['right'],['upright'],['U0076.bmp'],['female'],[[2]],['female'],[[1]],[[0.29904083]],GK
413,[[2]],[[414]],[[7]],['low holistic'],['fovea'],['inverted'],['U0107.bmp'],['female'],[[0]],['female'],[[1]],[[0.27664398]],GK
414,[[2]],[[415]],[[3]],['high holistic'],['left'],['inverted'],['U0020.bmp'],['male'],[[6]],['female'],[[0]],[[0.37800944]],GK
415,[[2]],[[416]],[[14]],['high holistic'],['left'],['inverted'],['U0228.bmp'],['male'],[[10]],['female'],[[0]],[[0.29841577]],GK
416,[[2]],[[417]],[[12]],['low holistic'],['left'],['upright'],['U0178.bmp'],['female'],[[2]],['female'],[[1]],[[0.25550765]],GK
417,[[2]],[[418]],[[4]],['low holistic'],['left'],['upright'],['U0061.bmp'],['female'],[[8]],['female'],[[1]],[[0.03529112]],GK
418,[[2]],[[419]],[[3]],['high holistic'],['left'],['upright'],['U0020.bmp'],['male'],[[6]],['female'],[[0]],[[0.17015784]],GK
419,[[2]],[[420]],[[10]],['low holistic'],['right'],['upright'],['U0159.bmp'],['female'],[[6]],['female'],[[1]],[[0.20280758]],GK
420,[[2]],[[421]],[[19]],['low holistic'],['left'],['inverted'],['U0361.bmp'],['female'],[[2]],['female'],[[1]],[[0.08227693]],GK
421,[[2]],[[422]],[[12]],['low holistic'],['right'],['upright'],['U0178.bmp'],['female'],[[10]],['female'],[[1]],[[0.08623662]],GK
422,[[2]],[[423]],[[1]],['low holistic'],['right'],['upright'],['U0006.bmp'],['female'],[[6]],['female'],[[1]],[[0.00011899]],GK
423,[[2]],[[424]],[[2]],['high holistic'],['left'],['inverted'],['U0014.bmp'],['male'],[[12]],['male'],[[1]],[[0.14695087]],GK
424,[[2]],[[425]],[[17]],['low holistic'],['left'],['upright'],['U0346.bmp'],['female'],[[6]],['male'],[[0]],[[0.50738152]],GK
425,[[2]],[[426]],[[10]],['low holistic'],['left'],['inverted'],['U0159.bmp'],['female'],[[2]],['female'],[[1]],[[0.16018671]],GK
426,[[2]],[[427]],[[8]],['high holistic'],['right'],['inverted'],['U0137.bmp'],['female'],[[12]],['male'],[[0]],[[0.00921627]],GK
427,[[2]],[[428]],[[16]],['low holistic'],['left'],['inverted'],['U0335.bmp'],['female'],[[2]],['female'],[[1]],[[0.33701609]],GK
428,[[2]],[[429]],[[8]],['high holistic'],['right'],['inverted'],['U0137.bmp'],['female'],[[4]],['female'],[[1]],[[0.2744694]],GK
429,[[2]],[[430]],[[11]],['low holistic'],['left'],['upright'],['U0164.bmp'],['female'],[[6]],['female'],[[1]],[[0.254566]],GK
430,[[2]],[[431]],[[15]],['low holistic'],['left'],['inverted'],['U0312.bmp'],['male'],[[6]],['male'],[[1]],[[0.20447666]],GK
431,[[2]],[[432]],[[18]],['high holistic'],['right'],['inverted'],['U0359.bmp'],['male'],[[8]],['male'],[[1]],[[0.34942572]],GK
432,[[2]],[[433]],[[7]],['high holistic'],['right'],['inverted'],['U0107.bmp'],['female'],[[2]],['female'],[[1]],[[0.23002851]],GK
433,[[2]],[[434]],[[14]],['high holistic'],['left'],['upright'],['U0228.bmp'],['male'],[[10]],['male'],[[1]],[[0.40559102]],GK
434,[[2]],[[435]],[[20]],['high holistic'],['left'],['inverted'],['U0362.bmp'],['female'],[[8]],['male'],[[0]],[[0.46771537]],GK
435,[[2]],[[436]],[[2]],['high holistic'],['left'],['upright'],['U0014.bmp'],['male'],[[8]],['male'],[[1]],[[0.59392077]],GK
436,[[2]],[[437]],[[12]],['high holistic'],['right'],['inverted'],['U0178.bmp'],['male'],[[4]],['female'],[[0]],[[0.32169944]],GK
437,[[2]],[[438]],[[9]],['low holistic'],['right'],['inverted'],['U0155.bmp'],['male'],[[6]],['female'],[[0]],[[0.2534364]],GK
438,[[2]],[[439]],[[7]],['high holistic'],['right'],['upright'],['U0107.bmp'],['female'],[[6]],['male'],[[0]],[[0.07365566]],GK
439,[[2]],[[440]],[[6]],['high holistic'],['right'],['inverted'],['U0106.bmp'],['female'],[[10]],['male'],[[0]],[[0.56090489]],GK
440,[[2]],[[441]],[[16]],['high holistic'],['right'],['upright'],['U0335.bmp'],['female'],[[12]],['female'],[[1]],[[0.27351463]],GK
441,[[2]],[[442]],[[20]],['high holistic'],['right'],['inverted'],['U0362.bmp'],['female'],[[8]],['female'],[[1]],[[0.17421877]],GK
442,[[2]],[[443]],[[4]],['low holistic'],['right'],['inverted'],['U0061.bmp'],['female'],[[12]],['male'],[[0]],[[0.07872484]],GK
443,[[2]],[[444]],[[16]],['low holistic'],['fovea'],['upright'],['U0335.bmp'],['female'],[[0]],['male'],[[0]],[[0.00032629]],GK
444,[[2]],[[445]],[[4]],['high holistic'],['right'],['upright'],['U0061.bmp'],['female'],[[4]],['female'],[[1]],[[0.1624257]],GK
445,[[2]],[[446]],[[20]],['low holistic'],['right'],['upright'],['U0362.bmp'],['male'],[[10]],['male'],[[1]],[[0.20621788]],GK
446,[[2]],[[447]],[[17]],['low holistic'],['left'],['inverted'],['U0346.bmp'],['female'],[[8]],['female'],[[1]],[[0.02919246]],GK
447,[[2]],[[448]],[[9]],['low holistic'],['left'],['inverted'],['U0155.bmp'],['male'],[[2]],['male'],[[1]],[[0.31523234]],GK
448,[[2]],[[449]],[[15]],['low holistic'],['right'],['upright'],['U0312.bmp'],['male'],[[4]],['male'],[[1]],[[0.00011219]],GK
449,[[2]],[[450]],[[10]],['low holistic'],['right'],['upright'],['U0159.bmp'],['female'],[[8]],['female'],[[1]],[[0.04559498]],GK
450,[[2]],[[451]],[[17]],['low holistic'],['right'],['inverted'],['U0346.bmp'],['female'],[[8]],['female'],[[1]],[[0.34067898]],GK
451,[[2]],[[452]],[[8]],['low holistic'],['right'],['inverted'],['U0137.bmp'],['male'],[[4]],['male'],[[1]],[[0.52564616]],GK
452,[[2]],[[453]],[[2]],['low holistic'],['left'],['upright'],['U0014.bmp'],['male'],[[4]],['male'],[[1]],[[0.05689793]],GK
453,[[2]],[[454]],[[12]],['high holistic'],['right'],['inverted'],['U0178.bmp'],['male'],[[4]],['male'],[[1]],[[0.32617552]],GK
454,[[2]],[[455]],[[19]],['low holistic'],['left'],['inverted'],['U0361.bmp'],['female'],[[8]],['male'],[[0]],[[0.27293372]],GK
455,[[2]],[[456]],[[4]],['low holistic'],['left'],['inverted'],['U0061.bmp'],['female'],[[4]],['female'],[[1]],[[0.12848825]],GK
456,[[2]],[[457]],[[9]],['high holistic'],['right'],['upright'],['U0155.bmp'],['female'],[[6]],['female'],[[1]],[[0.53728014]],GK
457,[[2]],[[458]],[[15]],['low holistic'],['right'],['upright'],['U0312.bmp'],['male'],[[12]],['male'],[[1]],[[0.23706012]],GK
458,[[2]],[[459]],[[1]],['high holistic'],['left'],['upright'],['U0006.bmp'],['female'],[[4]],['female'],[[1]],[[0.21000068]],GK
459,[[2]],[[460]],[[19]],['high holistic'],['left'],['inverted'],['U0361.bmp'],['female'],[[8]],['male'],[[0]],[[0.24329502]],GK
460,[[2]],[[461]],[[16]],['high holistic'],['right'],['upright'],['U0335.bmp'],['female'],[[10]],['female'],[[1]],[[0.4412249]],GK
461,[[2]],[[462]],[[12]],['high holistic'],['right'],['upright'],['U0178.bmp'],['male'],[[6]],['male'],[[1]],[[0.3677157]],GK
462,[[2]],[[463]],[[4]],['low holistic'],['left'],['inverted'],['U0061.bmp'],['female'],[[6]],['female'],[[1]],[[0.35158676]],GK
463,[[2]],[[464]],[[10]],['high holistic'],['right'],['upright'],['U0159.bmp'],['male'],[[12]],['male'],[[1]],[[0.12332603]],GK
464,[[2]],[[465]],[[11]],['low holistic'],['right'],['inverted'],['U0164.bmp'],['female'],[[6]],['female'],[[1]],[[0.15714185]],GK
465,[[2]],[[466]],[[20]],['low holistic'],['right'],['inverted'],['U0362.bmp'],['male'],[[8]],['male'],[[1]],[[0.11051271]],GK
466,[[2]],[[467]],[[18]],['low holistic'],['right'],['inverted'],['U0359.bmp'],['male'],[[2]],['female'],[[0]],[[0.00011114]],GK
467,[[2]],[[468]],[[20]],['low holistic'],['left'],['inverted'],['U0362.bmp'],['male'],[[4]],['male'],[[1]],[[0.24191227]],GK
468,[[2]],[[469]],[[14]],['low holistic'],['left'],['upright'],['U0228.bmp'],['male'],[[4]],['male'],[[1]],[[0.20733234]],GK
469,[[2]],[[470]],[[9]],['high holistic'],['left'],['inverted'],['U0155.bmp'],['female'],[[10]],['male'],[[0]],[[0.3352223]],GK
470,[[2]],[[471]],[[19]],['high holistic'],['right'],['inverted'],['U0361.bmp'],['female'],[[4]],['male'],[[0]],[[0.34736696]],GK
471,[[2]],[[472]],[[10]],['low holistic'],['left'],['inverted'],['U0159.bmp'],['female'],[[2]],['female'],[[1]],[[0.23577235]],GK
472,[[2]],[[473]],[[5]],['low holistic'],['left'],['inverted'],['U0076.bmp'],['male'],[[6]],['male'],[[1]],[[0.8346004]],GK
473,[[2]],[[474]],[[8]],['low holistic'],['left'],['upright'],['U0137.bmp'],['male'],[[12]],['male'],[[1]],[[0.23298972]],GK
474,[[2]],[[475]],[[15]],['low holistic'],['left'],['inverted'],['U0312.bmp'],['male'],[[10]],['male'],[[1]],[[0.5020486]],GK
475,[[2]],[[476]],[[12]],['low holistic'],['left'],['upright'],['U0178.bmp'],['female'],[[2]],['female'],[[1]],[[0.31465881]],GK
476,[[2]],[[477]],[[16]],['low holistic'],['left'],['inverted'],['U0335.bmp'],['female'],[[4]],['male'],[[0]],[[0.51779172]],GK
477,[[2]],[[478]],[[20]],['high holistic'],['right'],['inverted'],['U0362.bmp'],['female'],[[12]],['male'],[[0]],[[0.8496826]],GK
478,[[2]],[[479]],[[20]],['high holistic'],['left'],['upright'],['U0362.bmp'],['female'],[[8]],['female'],[[1]],[[0.40558537]],GK
479,[[2]],[[480]],[[11]],['high holistic'],['right'],['inverted'],['U0164.bmp'],['female'],[[12]],['male'],[[0]],[[0.80669328]],GK
480,[[2]],[[481]],[[20]],['high holistic'],['left'],['upright'],['U0362.bmp'],['female'],[[2]],['female'],[[1]],[[0.14955137]],GK
481,[[2]],[[482]],[[3]],['low holistic'],['right'],['upright'],['U0020.bmp'],['female'],[[2]],['female'],[[1]],[[0.04660163]],GK
482,[[2]],[[483]],[[2]],['high holistic'],['right'],['inverted'],['U0014.bmp'],['male'],[[12]],['male'],[[1]],[[0.4365605]],GK
483,[[2]],[[484]],[[7]],['high holistic'],['right'],['upright'],['U0107.bmp'],['female'],[[12]],['male'],[[0]],[[0.25890658]],GK
484,[[2]],[[485]],[[12]],['low holistic'],['right'],['inverted'],['U0178.bmp'],['female'],[[2]],['female'],[[1]],[[0.23135091]],GK
485,[[2]],[[486]],[[11]],['low holistic'],['left'],['inverted'],['U0164.bmp'],['female'],[[12]],['female'],[[1]],[[0.24703648]],GK
486,[[2]],[[487]],[[19]],['low holistic'],['fovea'],['upright'],['U0361.bmp'],['female'],[[0]],['female'],[[1]],[[0.25220252]],GK
487,[[2]],[[488]],[[11]],['low holistic'],['left'],['inverted'],['U0164.bmp'],['female'],[[12]],['female'],[[1]],[[0.22594451]],GK
488,[[2]],[[489]],[[9]],['low holistic'],['right'],['inverted'],['U0155.bmp'],['male'],[[2]],['female'],[[0]],[[0.27262425]],GK
489,[[2]],[[490]],[[11]],['low holistic'],['right'],['upright'],['U0164.bmp'],['female'],[[2]],['female'],[[1]],[[0.2136269]],GK
490,[[2]],[[491]],[[15]],['low holistic'],['left'],['upright'],['U0312.bmp'],['male'],[[6]],['male'],[[1]],[[0.27786724]],GK
491,[[2]],[[492]],[[1]],['low holistic'],['right'],['inverted'],['U0006.bmp'],['female'],[[10]],['female'],[[1]],[[0.20244411]],GK
492,[[2]],[[493]],[[17]],['high holistic'],['left'],['upright'],['U0346.bmp'],['male'],[[4]],['male'],[[1]],[[0.32807689]],GK
493,[[2]],[[494]],[[3]],['high holistic'],['right'],['upright'],['U0020.bmp'],['male'],[[6]],['male'],[[1]],[[0.23593695]],GK
494,[[2]],[[495]],[[10]],['high holistic'],['left'],['inverted'],['U0159.bmp'],['male'],[[8]],['female'],[[0]],[[0.39492317]],GK
495,[[2]],[[496]],[[6]],['high holistic'],['right'],['upright'],['U0106.bmp'],['female'],[[2]],['female'],[[1]],[[0.22533217]],GK
496,[[2]],[[497]],[[8]],['low holistic'],['right'],['inverted'],['U0137.bmp'],['male'],[[4]],['female'],[[0]],[[0.27235992]],GK
497,[[2]],[[498]],[[14]],['low holistic'],['right'],['inverted'],['U0228.bmp'],['male'],[[4]],['female'],[[0]],[[0.27715743]],GK
498,[[2]],[[499]],[[4]],['low holistic'],['right'],['upright'],['U0061.bmp'],['female'],[[4]],['female'],[[1]],[[0.24953917]],GK
499,[[2]],[[500]],[[6]],['low holistic'],['right'],['upright'],['U0106.bmp'],['male'],[[8]],['female'],[[0]],[[0.75297265]],GK
500,[[2]],[[501]],[[4]],['low holistic'],['right'],['inverted'],['U0061.bmp'],['female'],[[2]],['female'],[[1]],[[0.29081079]],GK
501,[[2]],[[502]],[[4]],['high holistic'],['left'],['inverted'],['U0061.bmp'],['female'],[[2]],['female'],[[1]],[[0.51799895]],GK
502,[[2]],[[503]],[[7]],['high holistic'],['right'],['upright'],['U0107.bmp'],['female'],[[12]],['male'],[[0]],[[0.15457249]],GK
503,[[2]],[[504]],[[18]],['low holistic'],['right'],['inverted'],['U0359.bmp'],['male'],[[12]],['male'],[[1]],[[0.21939384]],GK
504,[[2]],[[505]],[[10]],['low holistic'],['fovea'],['inverted'],['U0159.bmp'],['female'],[[0]],['female'],[[1]],[[0.25954391]],GK
505,[[2]],[[506]],[[9]],['low holistic'],['right'],['inverted'],['U0155.bmp'],['male'],[[12]],['female'],[[0]],[[0.61654583]],GK
506,[[2]],[[507]],[[4]],['high holistic'],['left'],['upright'],['U0061.bmp'],['female'],[[12]],['female'],[[1]],[[0.38230071]],GK
507,[[2]],[[508]],[[20]],['low holistic'],['left'],['upright'],['U0362.bmp'],['male'],[[6]],['male'],[[1]],[[0.27260358]],GK
508,[[2]],[[509]],[[9]],['high holistic'],['right'],['upright'],['U0155.bmp'],['female'],[[2]],['male'],[[0]],[[0.50051076]],GK
509,[[2]],[[510]],[[17]],['low holistic'],['left'],['upright'],['U0346.bmp'],['female'],[[4]],['male'],[[0]],[[0.27312906]],GK
510,[[2]],[[511]],[[13]],['low holistic'],['left'],['upright'],['U0181.bmp'],['male'],[[6]],['male'],[[1]],[[0.16471495]],GK
511,[[2]],[[512]],[[8]],['high holistic'],['left'],['upright'],['U0137.bmp'],['female'],[[8]],['female'],[[1]],[[0.4784106]],GK
512,[[2]],[[513]],[[18]],['high holistic'],['left'],['inverted'],['U0359.bmp'],['male'],[[4]],['female'],[[0]],[[0.54645113]],GK
513,[[2]],[[514]],[[16]],['high holistic'],['right'],['inverted'],['U0335.bmp'],['female'],[[10]],['female'],[[1]],[[0.38827139]],GK
514,[[2]],[[515]],[[10]],['low holistic'],['left'],['upright'],['U0159.bmp'],['female'],[[6]],['female'],[[1]],[[0.38972852]],GK
515,[[2]],[[516]],[[17]],['high holistic'],['left'],['inverted'],['U0346.bmp'],['male'],[[8]],['male'],[[1]],[[0.4849554]],GK
516,[[2]],[[517]],[[18]],['low holistic'],['left'],['inverted'],['U0359.bmp'],['male'],[[2]],['male'],[[1]],[[0.5931142]],GK
517,[[2]],[[518]],[[9]],['high holistic'],['right'],['inverted'],['U0155.bmp'],['female'],[[2]],['male'],[[0]],[[0.38586949]],GK
518,[[2]],[[519]],[[7]],['high holistic'],['left'],['inverted'],['U0107.bmp'],['female'],[[12]],['male'],[[0]],[[0.57835359]],GK
519,[[2]],[[520]],[[12]],['low holistic'],['left'],['inverted'],['U0178.bmp'],['female'],[[8]],['female'],[[1]],[[0.20240251]],GK
520,[[2]],[[521]],[[19]],['low holistic'],['fovea'],['upright'],['U0361.bmp'],['female'],[[0]],['female'],[[1]],[[0.02725371]],GK
521,[[2]],[[522]],[[15]],['high holistic'],['right'],['upright'],['U0312.bmp'],['male'],[[10]],['male'],[[1]],[[9.83350037e-05]],GK
522,[[2]],[[523]],[[8]],['high holistic'],['right'],['upright'],['U0137.bmp'],['female'],[[10]],['male'],[[0]],[[0.03561014]],GK
523,[[2]],[[524]],[[15]],['high holistic'],['left'],['inverted'],['U0312.bmp'],['male'],[[8]],['male'],[[1]],[[9.81180056e-05]],GK
524,[[2]],[[525]],[[20]],['high holistic'],['left'],['inverted'],['U0362.bmp'],['female'],[[8]],['female'],[[1]],[[0.13740895]],GK
525,[[2]],[[526]],[[11]],['low holistic'],['left'],['inverted'],['U0164.bmp'],['female'],[[6]],['female'],[[1]],[[9.90549743e-05]],GK
526,[[2]],[[527]],[[11]],['high holistic'],['right'],['upright'],['U0164.bmp'],['female'],[[12]],['female'],[[1]],[[9.76739975e-05]],GK
527,[[2]],[[528]],[[7]],['low holistic'],['left'],['upright'],['U0107.bmp'],['female'],[[2]],['female'],[[1]],[[0.00011085]],GK
528,[[2]],[[529]],[[2]],['high holistic'],['left'],['inverted'],['U0014.bmp'],['male'],[[2]],['male'],[[1]],[[0.28208074]],GK
529,[[2]],[[530]],[[4]],['low holistic'],['left'],['upright'],['U0061.bmp'],['female'],[[8]],['female'],[[1]],[[0.03248867]],GK
530,[[2]],[[531]],[[2]],['low holistic'],['right'],['upright'],['U0014.bmp'],['male'],[[6]],['male'],[[1]],[[0.06194649]],GK
531,[[2]],[[532]],[[10]],['high holistic'],['left'],['upright'],['U0159.bmp'],['male'],[[6]],['male'],[[1]],[[0.19403942]],GK
532,[[2]],[[533]],[[1]],['low holistic'],['right'],['inverted'],['U0006.bmp'],['female'],[[6]],['female'],[[1]],[[0.2266227]],GK
533,[[2]],[[534]],[[19]],['low holistic'],['right'],['inverted'],['U0361.bmp'],['female'],[[8]],['female'],[[1]],[[0.18636729]],GK
534,[[2]],[[535]],[[13]],['low holistic'],['right'],['inverted'],['U0181.bmp'],['male'],[[8]],['male'],[[1]],[[0.34584022]],GK
535,[[2]],[[536]],[[1]],['low holistic'],['left'],['inverted'],['U0006.bmp'],['female'],[[2]],['female'],[[1]],[[0.22819433]],GK
536,[[2]],[[537]],[[1]],['high holistic'],['right'],['inverted'],['U0006.bmp'],['female'],[[4]],['female'],[[1]],[[0.18805533]],GK
537,[[2]],[[538]],[[5]],['high holistic'],['left'],['inverted'],['U0076.bmp'],['female'],[[12]],['male'],[[0]],[[0.18693149]],GK
538,[[2]],[[539]],[[10]],['low holistic'],['right'],['upright'],['U0159.bmp'],['female'],[[12]],['female'],[[1]],[[0.21079558]],GK
539,[[2]],[[540]],[[3]],['low holistic'],['fovea'],['upright'],['U0020.bmp'],['female'],[[0]],['female'],[[1]],[[0.24298921]],GK
540,[[2]],[[541]],[[1]],['high holistic'],['fovea'],['inverted'],['U0006.bmp'],['female'],[[0]],['male'],[[0]],[[0.53528982]],GK
541,[[2]],[[542]],[[15]],['high holistic'],['right'],['upright'],['U0312.bmp'],['male'],[[12]],['male'],[[1]],[[0.26805683]],GK
542,[[2]],[[543]],[[8]],['low holistic'],['fovea'],['upright'],['U0137.bmp'],['male'],[[0]],['male'],[[1]],[[0.27118361]],GK
543,[[2]],[[544]],[[16]],['low holistic'],['fovea'],['inverted'],['U0335.bmp'],['female'],[[0]],['female'],[[1]],[[0.54980466]],GK
544,[[2]],[[545]],[[9]],['low holistic'],['right'],['inverted'],['U0155.bmp'],['male'],[[2]],['male'],[[1]],[[0.65517185]],GK
545,[[2]],[[546]],[[9]],['high holistic'],['fovea'],['upright'],['U0155.bmp'],['female'],[[0]],['female'],[[1]],[[0.26044635]],GK
546,[[2]],[[547]],[[1]],['high holistic'],['left'],['inverted'],['U0006.bmp'],['female'],[[8]],['female'],[[1]],[[0.19263234]],GK
547,[[2]],[[548]],[[1]],['low holistic'],['fovea'],['upright'],['U0006.bmp'],['female'],[[0]],['female'],[[1]],[[0.22446594]],GK
548,[[2]],[[549]],[[2]],['low holistic'],['right'],['upright'],['U0014.bmp'],['male'],[[6]],['male'],[[1]],[[9.83049977e-05]],GK
549,[[2]],[[550]],[[12]],['high holistic'],['left'],['inverted'],['U0178.bmp'],['male'],[[4]],['male'],[[1]],[[0.16835004]],GK
550,[[2]],[[551]],[[5]],['low holistic'],['right'],['upright'],['U0076.bmp'],['male'],[[6]],['male'],[[1]],[[0.3286211]],GK
551,[[2]],[[552]],[[17]],['high holistic'],['left'],['upright'],['U0346.bmp'],['male'],[[6]],['male'],[[1]],[[0.17888584]],GK
552,[[2]],[[553]],[[18]],['low holistic'],['left'],['upright'],['U0359.bmp'],['male'],[[6]],['male'],[[1]],[[0.27513918]],GK
553,[[2]],[[554]],[[20]],['high holistic'],['left'],['inverted'],['U0362.bmp'],['female'],[[10]],['male'],[[0]],[[0.3277846]],GK
554,[[2]],[[555]],[[10]],['low holistic'],['right'],['upright'],['U0159.bmp'],['female'],[[10]],['female'],[[1]],[[0.23556036]],GK
555,[[2]],[[556]],[[5]],['low holistic'],['right'],['upright'],['U0076.bmp'],['male'],[[4]],['male'],[[1]],[[0.22603778]],GK
556,[[2]],[[557]],[[5]],['low holistic'],['right'],['upright'],['U0076.bmp'],['male'],[[12]],['male'],[[1]],[[0.39130632]],GK
557,[[2]],[[558]],[[11]],['low holistic'],['right'],['upright'],['U0164.bmp'],['female'],[[2]],['female'],[[1]],[[0.21604727]],GK
558,[[2]],[[559]],[[16]],['high holistic'],['left'],['inverted'],['U0335.bmp'],['female'],[[10]],['female'],[[1]],[[0.25338534]],GK
559,[[2]],[[560]],[[7]],['high holistic'],['left'],['inverted'],['U0107.bmp'],['female'],[[4]],['female'],[[1]],[[0.26767658]],GK
560,[[2]],[[561]],[[10]],['low holistic'],['left'],['upright'],['U0159.bmp'],['female'],[[6]],['female'],[[1]],[[0.37632207]],GK
561,[[2]],[[562]],[[13]],['high holistic'],['left'],['upright'],['U0181.bmp'],['female'],[[4]],['female'],[[1]],[[0.20190884]],GK
562,[[2]],[[563]],[[19]],['high holistic'],['right'],['upright'],['U0361.bmp'],['female'],[[10]],['male'],[[0]],[[0.44313882]],GK
563,[[2]],[[564]],[[4]],['low holistic'],['fovea'],['upright'],['U0061.bmp'],['female'],[[0]],['female'],[[1]],[[0.15167844]],GK
564,[[2]],[[565]],[[15]],['low holistic'],['right'],['inverted'],['U0312.bmp'],['male'],[[12]],['male'],[[1]],[[0.04882525]],GK
565,[[2]],[[566]],[[12]],['high holistic'],['left'],['upright'],['U0178.bmp'],['male'],[[12]],['male'],[[1]],[[0.07238005]],GK
566,[[2]],[[567]],[[9]],['high holistic'],['left'],['inverted'],['U0155.bmp'],['female'],[[2]],['male'],[[0]],[[0.12360874]],GK
567,[[2]],[[568]],[[18]],['high holistic'],['left'],['inverted'],['U0359.bmp'],['male'],[[2]],['male'],[[1]],[[0.14419908]],GK
568,[[2]],[[569]],[[8]],['low holistic'],['left'],['inverted'],['U0137.bmp'],['male'],[[10]],['male'],[[1]],[[0.44898427]],GK
569,[[2]],[[570]],[[4]],['high holistic'],['left'],['upright'],['U0061.bmp'],['female'],[[4]],['female'],[[1]],[[0.03747705]],GK
570,[[2]],[[571]],[[13]],['high holistic'],['left'],['upright'],['U0181.bmp'],['female'],[[2]],['female'],[[1]],[[0.02083609]],GK
571,[[2]],[[572]],[[13]],['low holistic'],['left'],['upright'],['U0181.bmp'],['male'],[[6]],['male'],[[1]],[[0.00010519]],GK
572,[[2]],[[573]],[[7]],['high holistic'],['right'],['upright'],['U0107.bmp'],['female'],[[2]],['female'],[[1]],[[0.11421066]],GK
573,[[2]],[[574]],[[17]],['high holistic'],['left'],['upright'],['U0346.bmp'],['male'],[[6]],['male'],[[1]],[[0.08689664]],GK
574,[[2]],[[575]],[[20]],['low holistic'],['fovea'],['inverted'],['U0362.bmp'],['male'],[[0]],['male'],[[1]],[[0.04313103]],GK
575,[[2]],[[576]],[[20]],['low holistic'],['right'],['upright'],['U0362.bmp'],['male'],[[8]],['male'],[[1]],[[9.89509863e-05]],GK
576,[[2]],[[577]],[[3]],['high holistic'],['right'],['inverted'],['U0020.bmp'],['male'],[[6]],['male'],[[1]],[[0.00035867]],GK
577,[[2]],[[578]],[[5]],['low holistic'],['left'],['upright'],['U0076.bmp'],['male'],[[6]],['male'],[[1]],[[0.00011292]],GK
578,[[2]],[[579]],[[1]],['low holistic'],['left'],['upright'],['U0006.bmp'],['female'],[[4]],['male'],[[0]],[[9.87369858e-05]],GK
579,[[2]],[[580]],[[13]],['high holistic'],['right'],['upright'],['U0181.bmp'],['female'],[[8]],['male'],[[0]],[[0.10240715]],GK
580,[[2]],[[581]],[[3]],['low holistic'],['fovea'],['inverted'],['U0020.bmp'],['female'],[[0]],['female'],[[1]],[[9.89330001e-05]],GK
581,[[2]],[[582]],[[9]],['high holistic'],['fovea'],['inverted'],['U0155.bmp'],['female'],[[0]],['female'],[[1]],[[0.12291515]],GK
582,[[2]],[[583]],[[18]],['high holistic'],['right'],['upright'],['U0359.bmp'],['male'],[[2]],['male'],[[1]],[[0.12589611]],GK
583,[[2]],[[584]],[[11]],['high holistic'],['right'],['inverted'],['U0164.bmp'],['female'],[[4]],['male'],[[0]],[[0.06362843]],GK
584,[[2]],[[585]],[[8]],['low holistic'],['left'],['inverted'],['U0137.bmp'],['male'],[[12]],['male'],[[1]],[[0.07868528]],GK
585,[[2]],[[586]],[[5]],['high holistic'],['left'],['upright'],['U0076.bmp'],['female'],[[2]],['female'],[[1]],[[9.62779741e-05]],GK
586,[[2]],[[587]],[[9]],['low holistic'],['left'],['upright'],['U0155.bmp'],['male'],[[2]],['male'],[[1]],[[0.03419024]],GK
587,[[2]],[[588]],[[20]],['low holistic'],['left'],['inverted'],['U0362.bmp'],['male'],[[6]],['male'],[[1]],[[9.89859982e-05]],GK
588,[[2]],[[589]],[[3]],['low holistic'],['right'],['upright'],['U0020.bmp'],['female'],[[12]],['female'],[[1]],[[0.15198058]],GK
589,[[2]],[[590]],[[10]],['high holistic'],['right'],['upright'],['U0159.bmp'],['male'],[[8]],['male'],[[1]],[[9.82460042e-05]],GK
590,[[2]],[[591]],[[18]],['high holistic'],['left'],['upright'],['U0359.bmp'],['male'],[[2]],['male'],[[1]],[[0.01744825]],GK
591,[[2]],[[592]],[[1]],['low holistic'],['left'],['inverted'],['U0006.bmp'],['female'],[[4]],['female'],[[1]],[[0.00016743]],GK
592,[[2]],[[593]],[[14]],['low holistic'],['right'],['inverted'],['U0228.bmp'],['male'],[[4]],['male'],[[1]],[[9.68079839e-05]],GK
593,[[2]],[[594]],[[20]],['high holistic'],['left'],['inverted'],['U0362.bmp'],['female'],[[4]],['male'],[[0]],[[0.07808051]],GK
594,[[2]],[[595]],[[6]],['high holistic'],['left'],['inverted'],['U0106.bmp'],['female'],[[8]],['female'],[[1]],[[0.00306832]],GK
595,[[2]],[[596]],[[3]],['high holistic'],['left'],['upright'],['U0020.bmp'],['male'],[[12]],['male'],[[1]],[[0.30622469]],GK
596,[[2]],[[597]],[[14]],['low holistic'],['right'],['inverted'],['U0228.bmp'],['male'],[[8]],['female'],[[0]],[[9.75550211e-05]],GK
597,[[2]],[[598]],[[19]],['high holistic'],['right'],['inverted'],['U0361.bmp'],['female'],[[8]],['male'],[[0]],[[0.19818034]],GK
598,[[2]],[[599]],[[13]],['low holistic'],['right'],['upright'],['U0181.bmp'],['male'],[[8]],['male'],[[1]],[[9.80150071e-05]],GK
599,[[2]],[[600]],[[18]],['high holistic'],['left'],['inverted'],['U0359.bmp'],['male'],[[10]],['male'],[[1]],[[9.86669911e-05]],GK
600,[[2]],[[601]],[[4]],['low holistic'],['right'],['upright'],['U0061.bmp'],['female'],[[12]],['male'],[[0]],[[0.03713415]],GK
601,[[2]],[[602]],[[16]],['high holistic'],['left'],['upright'],['U0335.bmp'],['female'],[[6]],['female'],[[1]],[[0.02834128]],GK
602,[[2]],[[603]],[[7]],['low holistic'],['right'],['upright'],['U0107.bmp'],['female'],[[2]],['female'],[[1]],[[9.84740036e-05]],GK
603,[[2]],[[604]],[[9]],['low holistic'],['right'],['upright'],['U0155.bmp'],['male'],[[10]],['male'],[[1]],[[9.84270009e-05]],GK
604,[[2]],[[605]],[[4]],['low holistic'],['right'],['upright'],['U0061.bmp'],['female'],[[10]],['female'],[[1]],[[0.00011916]],GK
605,[[2]],[[606]],[[17]],['high holistic'],['left'],['inverted'],['U0346.bmp'],['male'],[[10]],['male'],[[1]],[[0.02574907]],GK
606,[[2]],[[607]],[[13]],['high holistic'],['right'],['inverted'],['U0181.bmp'],['female'],[[4]],['male'],[[0]],[[0.14479292]],GK
607,[[2]],[[608]],[[15]],['high holistic'],['right'],['inverted'],['U0312.bmp'],['male'],[[2]],['female'],[[0]],[[9.7858021e-05]],GK
608,[[2]],[[609]],[[17]],['high holistic'],['right'],['inverted'],['U0346.bmp'],['male'],[[6]],['male'],[[1]],[[0.03317133]],GK
609,[[2]],[[610]],[[2]],['high holistic'],['right'],['upright'],['U0014.bmp'],['male'],[[6]],['male'],[[1]],[[0.00010491]],GK
610,[[2]],[[611]],[[20]],['low holistic'],['left'],['inverted'],['U0362.bmp'],['male'],[[10]],['male'],[[1]],[[0.04771194]],GK
611,[[2]],[[612]],[[10]],['high holistic'],['left'],['upright'],['U0159.bmp'],['male'],[[4]],['male'],[[1]],[[0.06098384]],GK
612,[[2]],[[613]],[[16]],['low holistic'],['right'],['upright'],['U0335.bmp'],['female'],[[6]],['female'],[[1]],[[0.06549835]],GK
613,[[2]],[[614]],[[15]],['high holistic'],['left'],['upright'],['U0312.bmp'],['male'],[[10]],['male'],[[1]],[[0.07236164]],GK
614,[[2]],[[615]],[[17]],['low holistic'],['right'],['upright'],['U0346.bmp'],['female'],[[10]],['male'],[[0]],[[0.18051457]],GK
615,[[2]],[[616]],[[4]],['high holistic'],['right'],['upright'],['U0061.bmp'],['female'],[[6]],['male'],[[0]],[[9.82710044e-05]],GK
616,[[2]],[[617]],[[10]],['low holistic'],['right'],['upright'],['U0159.bmp'],['female'],[[10]],['male'],[[0]],[[0.13949128]],GK
617,[[2]],[[618]],[[13]],['low holistic'],['left'],['inverted'],['U0181.bmp'],['male'],[[10]],['male'],[[1]],[[0.00010491]],GK
618,[[2]],[[619]],[[19]],['low holistic'],['right'],['inverted'],['U0361.bmp'],['female'],[[10]],['male'],[[0]],[[0.10910251]],GK
619,[[2]],[[620]],[[17]],['low holistic'],['left'],['upright'],['U0346.bmp'],['female'],[[2]],['female'],[[1]],[[0.00010448]],GK
620,[[2]],[[621]],[[18]],['low holistic'],['left'],['upright'],['U0359.bmp'],['male'],[[10]],['male'],[[1]],[[9.76040028e-05]],GK
621,[[2]],[[622]],[[12]],['high holistic'],['left'],['upright'],['U0178.bmp'],['male'],[[10]],['male'],[[1]],[[0.06661762]],GK
622,[[2]],[[623]],[[12]],['low holistic'],['right'],['upright'],['U0178.bmp'],['female'],[[2]],['female'],[[1]],[[9.62039921e-05]],GK
623,[[2]],[[624]],[[18]],['low holistic'],['left'],['upright'],['U0359.bmp'],['male'],[[12]],['male'],[[1]],[[9.88420215e-05]],GK
624,[[2]],[[625]],[[1]],['high holistic'],['left'],['inverted'],['U0006.bmp'],['female'],[[2]],['male'],[[0]],[[0.25316687]],GK
625,[[2]],[[626]],[[18]],['low holistic'],['left'],['upright'],['U0359.bmp'],['male'],[[4]],['male'],[[1]],[[0.1074647]],GK
626,[[2]],[[627]],[[9]],['high holistic'],['right'],['inverted'],['U0155.bmp'],['female'],[[10]],['female'],[[1]],[[0.0391868]],GK
627,[[2]],[[628]],[[1]],['high holistic'],['fovea'],['upright'],['U0006.bmp'],['female'],[[0]],['female'],[[1]],[[0.00013769]],GK
628,[[2]],[[629]],[[15]],['low holistic'],['right'],['inverted'],['U0312.bmp'],['male'],[[12]],['female'],[[0]],[[0.1146815]],GK
629,[[2]],[[630]],[[4]],['high holistic'],['left'],['upright'],['U0061.bmp'],['female'],[[2]],['female'],[[1]],[[0.00010442]],GK
630,[[2]],[[631]],[[3]],['high holistic'],['left'],['inverted'],['U0020.bmp'],['male'],[[4]],['female'],[[0]],[[0.00010765]],GK
631,[[2]],[[632]],[[13]],['high holistic'],['left'],['upright'],['U0181.bmp'],['female'],[[6]],['female'],[[1]],[[9.7318989e-05]],GK
632,[[2]],[[633]],[[6]],['high holistic'],['left'],['upright'],['U0106.bmp'],['female'],[[8]],['male'],[[0]],[[0.42939488]],GK
633,[[2]],[[634]],[[7]],['high holistic'],['right'],['upright'],['U0107.bmp'],['female'],[[12]],['female'],[[1]],[[0.14861723]],GK
634,[[2]],[[635]],[[9]],['low holistic'],['left'],['upright'],['U0155.bmp'],['male'],[[12]],['female'],[[0]],[[9.82130005e-05]],GK
635,[[2]],[[636]],[[9]],['low holistic'],['left'],['inverted'],['U0155.bmp'],['male'],[[6]],['male'],[[1]],[[0.42968273]],GK
636,[[2]],[[637]],[[8]],['low holistic'],['fovea'],['upright'],['U0137.bmp'],['male'],[[0]],['male'],[[1]],[[9.82919883e-05]],GK
637,[[2]],[[638]],[[13]],['low holistic'],['right'],['inverted'],['U0181.bmp'],['male'],[[10]],['male'],[[1]],[[0.00010475]],GK
638,[[2]],[[639]],[[4]],['high holistic'],['right'],['upright'],['U0061.bmp'],['female'],[[2]],['female'],[[1]],[[9.86229861e-05]],GK
639,[[2]],[[640]],[[4]],['high holistic'],['left'],['upright'],['U0061.bmp'],['female'],[[10]],['female'],[[1]],[[0.00011052]],GK
640,[[2]],[[641]],[[2]],['high holistic'],['fovea'],['inverted'],['U0014.bmp'],['male'],[[0]],['male'],[[1]],[[0.00010884]],GK
641,[[2]],[[642]],[[7]],['high holistic'],['right'],['upright'],['U0107.bmp'],['female'],[[12]],['male'],[[0]],[[0.00306975]],GK
642,[[2]],[[643]],[[16]],['low holistic'],['left'],['inverted'],['U0335.bmp'],['female'],[[2]],['female'],[[1]],[[0.09830971]],GK
643,[[2]],[[644]],[[5]],['high holistic'],['left'],['upright'],['U0076.bmp'],['female'],[[8]],['male'],[[0]],[[9.69130197e-05]],GK
644,[[2]],[[645]],[[15]],['low holistic'],['left'],['upright'],['U0312.bmp'],['male'],[[8]],['male'],[[1]],[[0.00011628]],GK
645,[[2]],[[646]],[[14]],['low holistic'],['left'],['upright'],['U0228.bmp'],['male'],[[8]],['male'],[[1]],[[0.04441646]],GK
646,[[2]],[[647]],[[17]],['low holistic'],['left'],['upright'],['U0346.bmp'],['female'],[[10]],['female'],[[1]],[[0.12215771]],GK
647,[[2]],[[648]],[[17]],['high holistic'],['right'],['upright'],['U0346.bmp'],['male'],[[4]],['male'],[[1]],[[0.13399919]],GK
648,[[2]],[[649]],[[6]],['high holistic'],['fovea'],['inverted'],['U0106.bmp'],['female'],[[0]],['male'],[[0]],[[0.07228447]],GK
649,[[2]],[[650]],[[7]],['high holistic'],['left'],['upright'],['U0107.bmp'],['female'],[[10]],['male'],[[0]],[[0.06977361]],GK
650,[[2]],[[651]],[[11]],['high holistic'],['left'],['upright'],['U0164.bmp'],['female'],[[10]],['male'],[[0]],[[0.37261179]],GK
651,[[2]],[[652]],[[7]],['low holistic'],['right'],['inverted'],['U0107.bmp'],['female'],[[12]],['female'],[[1]],[[0.03771151]],GK
652,[[2]],[[653]],[[17]],['low holistic'],['left'],['inverted'],['U0346.bmp'],['female'],[[6]],['female'],[[1]],[[0.13228209]],GK
653,[[2]],[[654]],[[17]],['low holistic'],['left'],['inverted'],['U0346.bmp'],['female'],[[10]],['female'],[[1]],[[9.75189905e-05]],GK
654,[[2]],[[655]],[[12]],['high holistic'],['right'],['inverted'],['U0178.bmp'],['male'],[[8]],['female'],[[0]],[[0.00639393]],GK
655,[[2]],[[656]],[[6]],['low holistic'],['fovea'],['inverted'],['U0106.bmp'],['male'],[[0]],['male'],[[1]],[[0.03673315]],GK
656,[[2]],[[657]],[[14]],['high holistic'],['right'],['upright'],['U0228.bmp'],['male'],[[4]],['male'],[[1]],[[0.05175064]],GK
657,[[2]],[[658]],[[5]],['high holistic'],['left'],['upright'],['U0076.bmp'],['female'],[[6]],['female'],[[1]],[[0.08114547]],GK
658,[[2]],[[659]],[[10]],['high holistic'],['left'],['upright'],['U0159.bmp'],['male'],[[2]],['male'],[[1]],[[0.00011315]],GK
659,[[2]],[[660]],[[8]],['low holistic'],['right'],['inverted'],['U0137.bmp'],['male'],[[12]],['male'],[[1]],[[0.0289792]],GK
660,[[2]],[[661]],[[11]],['high holistic'],['left'],['upright'],['U0164.bmp'],['female'],[[2]],['female'],[[1]],[[0.0677773]],GK
661,[[2]],[[662]],[[20]],['low holistic'],['right'],['inverted'],['U0362.bmp'],['male'],[[8]],['male'],[[1]],[[9.74659924e-05]],GK
662,[[2]],[[663]],[[16]],['high holistic'],['right'],['upright'],['U0335.bmp'],['female'],[[10]],['female'],[[1]],[[0.11225597]],GK
663,[[2]],[[664]],[[20]],['high holistic'],['right'],['inverted'],['U0362.bmp'],['female'],[[2]],['female'],[[1]],[[0.11534807]],GK
664,[[2]],[[665]],[[5]],['low holistic'],['left'],['upright'],['U0076.bmp'],['male'],[[8]],['male'],[[1]],[[9.91200213e-05]],GK
665,[[2]],[[666]],[[11]],['high holistic'],['left'],['inverted'],['U0164.bmp'],['female'],[[12]],['male'],[[0]],[[0.13500329]],GK
666,[[2]],[[667]],[[2]],['low holistic'],['right'],['upright'],['U0014.bmp'],['male'],[[8]],['male'],[[1]],[[0.03987578]],GK
667,[[2]],[[668]],[[16]],['high holistic'],['left'],['upright'],['U0335.bmp'],['female'],[[12]],['female'],[[1]],[[0.02973063]],GK
668,[[2]],[[669]],[[13]],['low holistic'],['left'],['upright'],['U0181.bmp'],['male'],[[4]],['male'],[[1]],[[0.00010797]],GK
669,[[2]],[[670]],[[18]],['high holistic'],['left'],['upright'],['U0359.bmp'],['male'],[[8]],['male'],[[1]],[[0.17315508]],GK
670,[[2]],[[671]],[[20]],['low holistic'],['left'],['inverted'],['U0362.bmp'],['male'],[[12]],['male'],[[1]],[[0.12396769]],GK
671,[[2]],[[672]],[[19]],['high holistic'],['left'],['upright'],['U0361.bmp'],['female'],[[12]],['male'],[[0]],[[0.04850447]],GK
672,[[2]],[[673]],[[9]],['high holistic'],['right'],['inverted'],['U0155.bmp'],['female'],[[4]],['male'],[[0]],[[0.18038589]],GK
673,[[2]],[[674]],[[1]],['low holistic'],['left'],['upright'],['U0006.bmp'],['female'],[[2]],['female'],[[1]],[[9.76560113e-05]],GK
674,[[2]],[[675]],[[11]],['high holistic'],['left'],['inverted'],['U0164.bmp'],['female'],[[12]],['male'],[[0]],[[9.81860212e-05]],GK
675,[[2]],[[676]],[[5]],['low holistic'],['left'],['upright'],['U0076.bmp'],['male'],[[4]],['male'],[[1]],[[0.00013691]],GK
676,[[2]],[[677]],[[5]],['high holistic'],['right'],['inverted'],['U0076.bmp'],['female'],[[10]],['male'],[[0]],[[0.13259263]],GK
677,[[2]],[[678]],[[7]],['low holistic'],['fovea'],['upright'],['U0107.bmp'],['female'],[[0]],['male'],[[0]],[[0.01528047]],GK
678,[[2]],[[679]],[[2]],['low holistic'],['right'],['upright'],['U0014.bmp'],['male'],[[8]],['male'],[[1]],[[0.01563485]],GK
679,[[2]],[[680]],[[15]],['low holistic'],['left'],['upright'],['U0312.bmp'],['male'],[[10]],['male'],[[1]],[[0.08557306]],GK
680,[[2]],[[681]],[[15]],['low holistic'],['right'],['inverted'],['U0312.bmp'],['male'],[[8]],['male'],[[1]],[[0.00010283]],GK
681,[[2]],[[682]],[[11]],['high holistic'],['right'],['upright'],['U0164.bmp'],['female'],[[8]],['female'],[[1]],[[0.09666711]],GK
682,[[2]],[[683]],[[7]],['low holistic'],['right'],['inverted'],['U0107.bmp'],['female'],[[4]],['female'],[[1]],[[0.07554312]],GK
683,[[2]],[[684]],[[17]],['low holistic'],['left'],['upright'],['U0346.bmp'],['female'],[[4]],['female'],[[1]],[[9.82230122e-05]],GK
684,[[2]],[[685]],[[12]],['high holistic'],['left'],['inverted'],['U0178.bmp'],['male'],[[8]],['female'],[[0]],[[9.782298e-05]],GK
685,[[2]],[[686]],[[20]],['high holistic'],['right'],['upright'],['U0362.bmp'],['female'],[[6]],['female'],[[1]],[[0.09569785]],GK
686,[[2]],[[687]],[[18]],['low holistic'],['right'],['upright'],['U0359.bmp'],['male'],[[6]],['male'],[[1]],[[0.18133415]],GK
687,[[2]],[[688]],[[8]],['high holistic'],['left'],['inverted'],['U0137.bmp'],['female'],[[2]],['female'],[[1]],[[0.25320053]],GK
688,[[2]],[[689]],[[11]],['high holistic'],['left'],['inverted'],['U0164.bmp'],['female'],[[6]],['male'],[[0]],[[0.01015555]],GK
689,[[2]],[[690]],[[7]],['low holistic'],['right'],['upright'],['U0107.bmp'],['female'],[[6]],['female'],[[1]],[[0.05835077]],GK
690,[[2]],[[691]],[[13]],['high holistic'],['left'],['upright'],['U0181.bmp'],['female'],[[4]],['female'],[[1]],[[0.31229089]],GK
691,[[2]],[[692]],[[16]],['high holistic'],['right'],['inverted'],['U0335.bmp'],['female'],[[8]],['female'],[[1]],[[0.1531224]],GK
692,[[2]],[[693]],[[15]],['low holistic'],['left'],['upright'],['U0312.bmp'],['male'],[[8]],['male'],[[1]],[[0.00016505]],GK
693,[[2]],[[694]],[[3]],['low holistic'],['right'],['inverted'],['U0020.bmp'],['female'],[[6]],['female'],[[1]],[[0.62721789]],GK
694,[[2]],[[695]],[[17]],['low holistic'],['right'],['inverted'],['U0346.bmp'],['female'],[[4]],['male'],[[0]],[[0.33013014]],GK
695,[[2]],[[696]],[[1]],['high holistic'],['fovea'],['inverted'],['U0006.bmp'],['female'],[[0]],['male'],[[0]],[[0.13309581]],GK
696,[[2]],[[697]],[[9]],['high holistic'],['right'],['upright'],['U0155.bmp'],['female'],[[8]],['male'],[[0]],[[0.01440766]],GK
697,[[2]],[[698]],[[15]],['high holistic'],['fovea'],['inverted'],['U0312.bmp'],['male'],[[0]],['male'],[[1]],[[9.74800205e-05]],GK
698,[[2]],[[699]],[[16]],['low holistic'],['right'],['upright'],['U0335.bmp'],['female'],[[2]],['male'],[[0]],[[0.00010421]],GK
699,[[2]],[[700]],[[8]],['high holistic'],['right'],['inverted'],['U0137.bmp'],['female'],[[4]],['female'],[[1]],[[0.25206945]],GK
700,[[2]],[[701]],[[15]],['low holistic'],['left'],['upright'],['U0312.bmp'],['male'],[[2]],['male'],[[1]],[[9.78999888e-05]],GK
701,[[2]],[[702]],[[18]],['high holistic'],['left'],['inverted'],['U0359.bmp'],['male'],[[12]],['male'],[[1]],[[0.28902963]],GK
702,[[2]],[[703]],[[5]],['low holistic'],['left'],['inverted'],['U0076.bmp'],['male'],[[10]],['male'],[[1]],[[0.00430918]],GK
703,[[2]],[[704]],[[3]],['low holistic'],['left'],['upright'],['U0020.bmp'],['female'],[[2]],['female'],[[1]],[[0.0001057]],GK
704,[[2]],[[705]],[[5]],['low holistic'],['left'],['upright'],['U0076.bmp'],['male'],[[2]],['male'],[[1]],[[0.06712475]],GK
705,[[2]],[[706]],[[8]],['low holistic'],['left'],['inverted'],['U0137.bmp'],['male'],[[8]],['male'],[[1]],[[0.02430574]],GK
706,[[2]],[[707]],[[6]],['high holistic'],['left'],['inverted'],['U0106.bmp'],['female'],[[12]],['male'],[[0]],[[0.03893049]],GK
707,[[2]],[[708]],[[19]],['low holistic'],['right'],['upright'],['U0361.bmp'],['female'],[[12]],['male'],[[0]],[[0.0001046]],GK
708,[[2]],[[709]],[[2]],['high holistic'],['left'],['upright'],['U0014.bmp'],['male'],[[8]],['male'],[[1]],[[0.00010613]],GK
709,[[2]],[[710]],[[12]],['high holistic'],['fovea'],['upright'],['U0178.bmp'],['male'],[[0]],['male'],[[1]],[[0.00013887]],GK
710,[[2]],[[711]],[[4]],['high holistic'],['left'],['upright'],['U0061.bmp'],['female'],[[2]],['female'],[[1]],[[0.07524188]],GK
711,[[2]],[[712]],[[17]],['high holistic'],['right'],['upright'],['U0346.bmp'],['male'],[[4]],['male'],[[1]],[[0.12928439]],GK
712,[[2]],[[713]],[[4]],['low holistic'],['fovea'],['upright'],['U0061.bmp'],['female'],[[0]],['female'],[[1]],[[0.0280983]],GK
713,[[2]],[[714]],[[11]],['low holistic'],['left'],['inverted'],['U0164.bmp'],['female'],[[12]],['male'],[[0]],[[0.22503202]],GK
714,[[2]],[[715]],[[20]],['low holistic'],['left'],['inverted'],['U0362.bmp'],['male'],[[2]],['male'],[[1]],[[0.08224783]],GK
715,[[2]],[[716]],[[8]],['high holistic'],['right'],['inverted'],['U0137.bmp'],['female'],[[10]],['male'],[[0]],[[9.78760072e-05]],GK
716,[[2]],[[717]],[[1]],['high holistic'],['right'],['upright'],['U0006.bmp'],['female'],[[6]],['female'],[[1]],[[0.18005755]],GK
717,[[2]],[[718]],[[5]],['high holistic'],['right'],['upright'],['U0076.bmp'],['female'],[[10]],['female'],[[1]],[[0.26905738]],GK
718,[[2]],[[719]],[[8]],['high holistic'],['left'],['upright'],['U0137.bmp'],['female'],[[4]],['male'],[[0]],[[0.04322849]],GK
719,[[2]],[[720]],[[7]],['high holistic'],['left'],['inverted'],['U0107.bmp'],['female'],[[2]],['male'],[[0]],[[0.04189906]],GK
720,[[2]],[[721]],[[5]],['low holistic'],['right'],['inverted'],['U0076.bmp'],['male'],[[8]],['male'],[[1]],[[0.16564779]],GK
721,[[2]],[[722]],[[19]],['low holistic'],['left'],['inverted'],['U0361.bmp'],['female'],[[2]],['female'],[[1]],[[0.00010327]],GK
722,[[2]],[[723]],[[14]],['low holistic'],['left'],['upright'],['U0228.bmp'],['male'],[[12]],['male'],[[1]],[[0.79192648]],GK
723,[[2]],[[724]],[[20]],['high holistic'],['left'],['inverted'],['U0362.bmp'],['female'],[[6]],['female'],[[1]],[[0.14284368]],GK
724,[[2]],[[725]],[[9]],['high holistic'],['right'],['inverted'],['U0155.bmp'],['female'],[[10]],['male'],[[0]],[[0.51192743]],GK
725,[[2]],[[726]],[[19]],['low holistic'],['right'],['inverted'],['U0361.bmp'],['female'],[[12]],['female'],[[1]],[[0.24385122]],GK
726,[[2]],[[727]],[[1]],['high holistic'],['left'],['inverted'],['U0006.bmp'],['female'],[[6]],['female'],[[1]],[[0.08271287]],GK
727,[[2]],[[728]],[[13]],['high holistic'],['left'],['inverted'],['U0181.bmp'],['female'],[[10]],['female'],[[1]],[[0.21442982]],GK
728,[[2]],[[729]],[[17]],['high holistic'],['right'],['inverted'],['U0346.bmp'],['male'],[[4]],['female'],[[0]],[[0.03771728]],GK
729,[[2]],[[730]],[[5]],['low holistic'],['left'],['inverted'],['U0076.bmp'],['male'],[[10]],['male'],[[1]],[[0.21939261]],GK
730,[[2]],[[731]],[[19]],['low holistic'],['left'],['upright'],['U0361.bmp'],['female'],[[10]],['male'],[[0]],[[1.63493331]],GK
731,[[2]],[[732]],[[16]],['low holistic'],['left'],['inverted'],['U0335.bmp'],['female'],[[10]],['female'],[[1]],[[0.20010958]],GK
732,[[2]],[[733]],[[17]],['low holistic'],['right'],['upright'],['U0346.bmp'],['female'],[[2]],['male'],[[0]],[[9.90180124e-05]],GK
733,[[2]],[[734]],[[12]],['high holistic'],['right'],['inverted'],['U0178.bmp'],['male'],[[6]],['male'],[[1]],[[0.15173973]],GK
734,[[2]],[[735]],[[16]],['high holistic'],['fovea'],['inverted'],['U0335.bmp'],['female'],[[0]],['female'],[[1]],[[0.21018041]],GK
735,[[2]],[[736]],[[7]],['high holistic'],['right'],['upright'],['U0107.bmp'],['female'],[[6]],['male'],[[0]],[[0.15066777]],GK
736,[[2]],[[737]],[[5]],['high holistic'],['right'],['upright'],['U0076.bmp'],['female'],[[6]],['female'],[[1]],[[0.09511809]],GK
737,[[2]],[[738]],[[7]],['low holistic'],['right'],['inverted'],['U0107.bmp'],['female'],[[2]],['female'],[[1]],[[0.15581357]],GK
738,[[2]],[[739]],[[12]],['high holistic'],['right'],['inverted'],['U0178.bmp'],['male'],[[2]],['male'],[[1]],[[0.33480017]],GK
739,[[2]],[[740]],[[17]],['low holistic'],['left'],['upright'],['U0346.bmp'],['female'],[[10]],['male'],[[0]],[[0.10451002]],GK
740,[[2]],[[741]],[[6]],['high holistic'],['right'],['upright'],['U0106.bmp'],['female'],[[12]],['male'],[[0]],[[0.11548998]],GK
741,[[2]],[[742]],[[9]],['low holistic'],['right'],['inverted'],['U0155.bmp'],['male'],[[4]],['male'],[[1]],[[0.13367919]],GK
742,[[2]],[[743]],[[18]],['low holistic'],['right'],['upright'],['U0359.bmp'],['male'],[[12]],['male'],[[1]],[[0.16981785]],GK
743,[[2]],[[744]],[[13]],['high holistic'],['left'],['upright'],['U0181.bmp'],['female'],[[10]],['male'],[[0]],[[0.25076358]],GK
744,[[2]],[[745]],[[20]],['low holistic'],['left'],['inverted'],['U0362.bmp'],['male'],[[12]],['male'],[[1]],[[0.01627137]],GK
745,[[2]],[[746]],[[5]],['low holistic'],['fovea'],['inverted'],['U0076.bmp'],['male'],[[0]],['male'],[[1]],[[0.17569431]],GK
746,[[2]],[[747]],[[17]],['high holistic'],['left'],['upright'],['U0346.bmp'],['male'],[[6]],['male'],[[1]],[[0.11858067]],GK
747,[[2]],[[748]],[[14]],['high holistic'],['right'],['upright'],['U0228.bmp'],['male'],[[10]],['male'],[[1]],[[0.41795234]],GK
748,[[2]],[[749]],[[5]],['low holistic'],['left'],['upright'],['U0076.bmp'],['male'],[[12]],['male'],[[1]],[[0.41730405]],GK
749,[[2]],[[750]],[[10]],['low holistic'],['left'],['upright'],['U0159.bmp'],['female'],[[12]],['female'],[[1]],[[0.4170969]],GK
750,[[2]],[[751]],[[8]],['low holistic'],['left'],['upright'],['U0137.bmp'],['male'],[[2]],['male'],[[1]],[[0.09462127]],GK
751,[[2]],[[752]],[[12]],['low holistic'],['left'],['inverted'],['U0178.bmp'],['female'],[[8]],['female'],[[1]],[[0.21023064]],GK
752,[[2]],[[753]],[[17]],['low holistic'],['left'],['upright'],['U0346.bmp'],['female'],[[10]],['female'],[[1]],[[0.25747457]],GK
753,[[2]],[[754]],[[3]],['low holistic'],['right'],['upright'],['U0020.bmp'],['female'],[[4]],['male'],[[0]],[[0.20744899]],GK
754,[[2]],[[755]],[[17]],['high holistic'],['right'],['inverted'],['U0346.bmp'],['male'],[[12]],['male'],[[1]],[[0.06248987]],GK
755,[[2]],[[756]],[[17]],['low holistic'],['right'],['inverted'],['U0346.bmp'],['female'],[[8]],['male'],[[0]],[[0.1005734]],GK
756,[[2]],[[757]],[[8]],['low holistic'],['right'],['inverted'],['U0137.bmp'],['male'],[[8]],['male'],[[1]],[[0.17533472]],GK
757,[[2]],[[758]],[[9]],['low holistic'],['right'],['upright'],['U0155.bmp'],['male'],[[4]],['male'],[[1]],[[0.06386132]],GK
758,[[2]],[[759]],[[12]],['high holistic'],['right'],['upright'],['U0178.bmp'],['male'],[[6]],['male'],[[1]],[[0.61312045]],GK
759,[[2]],[[760]],[[15]],['high holistic'],['right'],['upright'],['U0312.bmp'],['male'],[[4]],['male'],[[1]],[[0.20326372]],GK
760,[[2]],[[761]],[[15]],['low holistic'],['left'],['upright'],['U0312.bmp'],['male'],[[10]],['male'],[[1]],[[0.22025549]],GK
761,[[2]],[[762]],[[16]],['low holistic'],['left'],['upright'],['U0335.bmp'],['female'],[[4]],['female'],[[1]],[[0.22565867]],GK
762,[[2]],[[763]],[[8]],['low holistic'],['left'],['inverted'],['U0137.bmp'],['male'],[[6]],['male'],[[1]],[[0.23259736]],GK
763,[[2]],[[764]],[[9]],['high holistic'],['left'],['upright'],['U0155.bmp'],['female'],[[4]],['female'],[[1]],[[0.13668013]],GK
764,[[2]],[[765]],[[20]],['low holistic'],['left'],['upright'],['U0362.bmp'],['male'],[[8]],['male'],[[1]],[[0.0001053]],GK
765,[[2]],[[766]],[[12]],['low holistic'],['left'],['inverted'],['U0178.bmp'],['female'],[[4]],['female'],[[1]],[[0.00010476]],GK
766,[[2]],[[767]],[[17]],['low holistic'],['right'],['upright'],['U0346.bmp'],['female'],[[4]],['female'],[[1]],[[0.00010369]],GK
767,[[2]],[[768]],[[6]],['low holistic'],['left'],['inverted'],['U0106.bmp'],['male'],[[4]],['female'],[[0]],[[0.2562351]],GK
768,[[2]],[[769]],[[13]],['low holistic'],['left'],['inverted'],['U0181.bmp'],['male'],[[12]],['female'],[[0]],[[0.19717131]],GK
769,[[2]],[[770]],[[12]],['low holistic'],['right'],['upright'],['U0178.bmp'],['female'],[[4]],['female'],[[1]],[[0.06948074]],GK
770,[[2]],[[771]],[[20]],['high holistic'],['left'],['upright'],['U0362.bmp'],['female'],[[6]],['male'],[[0]],[[0.02591454]],GK
771,[[2]],[[772]],[[2]],['high holistic'],['right'],['inverted'],['U0014.bmp'],['male'],[[6]],['male'],[[1]],[[0.08088484]],GK
772,[[2]],[[773]],[[11]],['high holistic'],['left'],['inverted'],['U0164.bmp'],['female'],[[8]],['female'],[[1]],[[0.39751591]],GK
773,[[2]],[[774]],[[11]],['low holistic'],['left'],['inverted'],['U0164.bmp'],['female'],[[12]],['female'],[[1]],[[0.2199391]],GK
774,[[2]],[[775]],[[2]],['high holistic'],['right'],['inverted'],['U0014.bmp'],['male'],[[12]],['male'],[[1]],[[0.18666663]],GK
775,[[2]],[[776]],[[19]],['low holistic'],['right'],['upright'],['U0361.bmp'],['female'],[[6]],['male'],[[0]],[[0.32495655]],GK
776,[[2]],[[777]],[[18]],['high holistic'],['right'],['upright'],['U0359.bmp'],['male'],[[8]],['male'],[[1]],[[0.47776005]],GK
777,[[2]],[[778]],[[9]],['low holistic'],['right'],['upright'],['U0155.bmp'],['male'],[[8]],['male'],[[1]],[[0.32180424]],GK
