,SUBID,TRIAL,MOONEYID,MOONEYCATEGORY,LOC,COND,MOONEY_NAME,MOONEY_GENDER,ECCENTRICITY,RESPONSE,ACCURACY,RT,SUBINIT
0,[[13]],[[1]],[[8]],['low holistic'],['left'],['inverted'],['U0137.bmp'],['male'],[[2]],['male'],[[1]],[[0.61436389]],JC
1,[[13]],[[2]],[[5]],['high holistic'],['right'],['inverted'],['U0076.bmp'],['female'],[[4]],['female'],[[1]],[[0.50871616]],JC
2,[[13]],[[3]],[[9]],['high holistic'],['left'],['inverted'],['U0155.bmp'],['female'],[[4]],['female'],[[1]],[[2.48026722]],JC
3,[[13]],[[4]],[[4]],['low holistic'],['left'],['upright'],['U0061.bmp'],['female'],[[6]],['female'],[[1]],[[0.36708117]],JC
4,[[13]],[[5]],[[12]],['high holistic'],['left'],['upright'],['U0178.bmp'],['male'],[[12]],['male'],[[1]],[[0.25464468]],JC
5,[[13]],[[6]],[[11]],['low holistic'],['right'],['inverted'],['U0164.bmp'],['female'],[[4]],['male'],[[0]],[[2.30947527]],JC
6,[[13]],[[7]],[[14]],['low holistic'],['left'],['inverted'],['U0228.bmp'],['male'],[[4]],['male'],[[1]],[[0.73598514]],JC
7,[[13]],[[8]],[[2]],['low holistic'],['right'],['inverted'],['U0014.bmp'],['male'],[[2]],['male'],[[1]],[[0.60309871]],JC
8,[[13]],[[9]],[[14]],['high holistic'],['right'],['inverted'],['U0228.bmp'],['male'],[[4]],['male'],[[1]],[[0.56378387]],JC
9,[[13]],[[10]],[[4]],['low holistic'],['left'],['upright'],['U0061.bmp'],['female'],[[12]],['female'],[[1]],[[0.26104903]],JC
10,[[13]],[[11]],[[15]],['high holistic'],['right'],['inverted'],['U0312.bmp'],['male'],[[12]],['male'],[[1]],[[2.57831982]],JC
11,[[13]],[[12]],[[1]],['low holistic'],['fovea'],['upright'],['U0006.bmp'],['female'],[[0]],['female'],[[1]],[[3.564507]],JC
12,[[13]],[[13]],[[8]],['high holistic'],['right'],['upright'],['U0137.bmp'],['female'],[[6]],['male'],[[0]],[[0.73352375]],JC
13,[[13]],[[14]],[[16]],['low holistic'],['left'],['upright'],['U0335.bmp'],['female'],[[8]],['male'],[[0]],[[4.11322147]],JC
14,[[13]],[[15]],[[15]],['high holistic'],['right'],['inverted'],['U0312.bmp'],['male'],[[2]],['male'],[[1]],[[0.84491512]],JC
15,[[13]],[[16]],[[12]],['high holistic'],['left'],['inverted'],['U0178.bmp'],['male'],[[4]],['female'],[[0]],[[1.04311045]],JC
16,[[13]],[[17]],[[15]],['high holistic'],['right'],['inverted'],['U0312.bmp'],['male'],[[2]],['male'],[[1]],[[1.00087833]],JC
17,[[13]],[[18]],[[14]],['low holistic'],['left'],['inverted'],['U0228.bmp'],['male'],[[2]],['male'],[[1]],[[0.54640373]],JC
18,[[13]],[[19]],[[13]],['high holistic'],['right'],['inverted'],['U0181.bmp'],['female'],[[10]],['female'],[[1]],[[1.8271289]],JC
19,[[13]],[[20]],[[8]],['low holistic'],['fovea'],['inverted'],['U0137.bmp'],['male'],[[0]],['male'],[[1]],[[1.21856793]],JC
20,[[13]],[[21]],[[7]],['high holistic'],['right'],['upright'],['U0107.bmp'],['female'],[[10]],['female'],[[1]],[[2.93745974]],JC
21,[[13]],[[22]],[[3]],['high holistic'],['right'],['upright'],['U0020.bmp'],['male'],[[2]],['male'],[[1]],[[2.01972177]],JC
22,[[13]],[[23]],[[1]],['high holistic'],['left'],['upright'],['U0006.bmp'],['female'],[[2]],['female'],[[1]],[[0.38694874]],JC
23,[[13]],[[24]],[[12]],['low holistic'],['right'],['upright'],['U0178.bmp'],['female'],[[12]],['female'],[[1]],[[0.78802317]],JC
24,[[13]],[[25]],[[1]],['low holistic'],['right'],['upright'],['U0006.bmp'],['female'],[[8]],['female'],[[1]],[[0.09221315]],JC
25,[[13]],[[26]],[[15]],['low holistic'],['fovea'],['upright'],['U0312.bmp'],['male'],[[0]],['male'],[[1]],[[0.29723151]],JC
26,[[13]],[[27]],[[5]],['high holistic'],['left'],['upright'],['U0076.bmp'],['female'],[[12]],['female'],[[1]],[[0.77474426]],JC
27,[[13]],[[28]],[[12]],['high holistic'],['left'],['inverted'],['U0178.bmp'],['male'],[[12]],['male'],[[1]],[[1.54443976]],JC
28,[[13]],[[29]],[[11]],['high holistic'],['right'],['upright'],['U0164.bmp'],['female'],[[10]],['female'],[[1]],[[0.75283301]],JC
29,[[13]],[[30]],[[6]],['high holistic'],['right'],['inverted'],['U0106.bmp'],['female'],[[2]],['male'],[[0]],[[0.52326578]],JC
30,[[13]],[[31]],[[17]],['low holistic'],['right'],['upright'],['U0346.bmp'],['female'],[[4]],['female'],[[1]],[[0.48589669]],JC
31,[[13]],[[32]],[[6]],['high holistic'],['right'],['upright'],['U0106.bmp'],['female'],[[6]],['female'],[[1]],[[0.45062707]],JC
32,[[13]],[[33]],[[15]],['low holistic'],['left'],['inverted'],['U0312.bmp'],['male'],[[12]],['male'],[[1]],[[0.91132749]],JC
33,[[13]],[[34]],[[5]],['high holistic'],['left'],['inverted'],['U0076.bmp'],['female'],[[2]],['female'],[[1]],[[1.59582946]],JC
34,[[13]],[[35]],[[19]],['low holistic'],['left'],['upright'],['U0361.bmp'],['female'],[[4]],['female'],[[1]],[[0.73172302]],JC
35,[[13]],[[36]],[[16]],['high holistic'],['right'],['inverted'],['U0335.bmp'],['female'],[[4]],['female'],[[1]],[[1.32012243]],JC
36,[[13]],[[37]],[[14]],['high holistic'],['right'],['upright'],['U0228.bmp'],['male'],[[12]],['male'],[[1]],[[0.65106014]],JC
37,[[13]],[[38]],[[3]],['high holistic'],['right'],['upright'],['U0020.bmp'],['male'],[[12]],['male'],[[1]],[[0.72069206]],JC
38,[[13]],[[39]],[[3]],['high holistic'],['left'],['upright'],['U0020.bmp'],['male'],[[10]],['male'],[[1]],[[0.62767917]],JC
39,[[13]],[[40]],[[10]],['low holistic'],['right'],['upright'],['U0159.bmp'],['female'],[[8]],['female'],[[1]],[[0.55496468]],JC
40,[[13]],[[41]],[[10]],['low holistic'],['left'],['inverted'],['U0159.bmp'],['female'],[[10]],['male'],[[0]],[[0.46046958]],JC
41,[[13]],[[42]],[[10]],['low holistic'],['left'],['inverted'],['U0159.bmp'],['female'],[[6]],['female'],[[1]],[[2.92906463]],JC
42,[[13]],[[43]],[[19]],['high holistic'],['right'],['upright'],['U0361.bmp'],['female'],[[12]],['female'],[[1]],[[0.92444816]],JC
43,[[13]],[[44]],[[4]],['high holistic'],['fovea'],['upright'],['U0061.bmp'],['female'],[[0]],['female'],[[1]],[[0.7124678]],JC
44,[[13]],[[45]],[[4]],['high holistic'],['right'],['inverted'],['U0061.bmp'],['female'],[[10]],['female'],[[1]],[[1.490957]],JC
45,[[13]],[[46]],[[9]],['high holistic'],['right'],['inverted'],['U0155.bmp'],['female'],[[10]],['female'],[[1]],[[4.4961401]],JC
46,[[13]],[[47]],[[8]],['low holistic'],['right'],['upright'],['U0137.bmp'],['male'],[[10]],['male'],[[1]],[[0.44365354]],JC
47,[[13]],[[48]],[[6]],['low holistic'],['right'],['upright'],['U0106.bmp'],['male'],[[12]],['female'],[[0]],[[1.64075433]],JC
48,[[13]],[[49]],[[9]],['high holistic'],['left'],['inverted'],['U0155.bmp'],['female'],[[6]],['female'],[[1]],[[2.36141808]],JC
49,[[13]],[[50]],[[13]],['high holistic'],['right'],['upright'],['U0181.bmp'],['female'],[[2]],['female'],[[1]],[[0.74490954]],JC
50,[[13]],[[51]],[[3]],['low holistic'],['right'],['inverted'],['U0020.bmp'],['female'],[[2]],['female'],[[1]],[[0.42698102]],JC
51,[[13]],[[52]],[[14]],['low holistic'],['right'],['inverted'],['U0228.bmp'],['male'],[[4]],['male'],[[1]],[[0.34662563]],JC
52,[[13]],[[53]],[[7]],['high holistic'],['fovea'],['inverted'],['U0107.bmp'],['female'],[[0]],['male'],[[0]],[[1.02148298]],JC
53,[[13]],[[54]],[[5]],['high holistic'],['left'],['upright'],['U0076.bmp'],['female'],[[12]],['female'],[[1]],[[0.54873069]],JC
54,[[13]],[[55]],[[11]],['high holistic'],['fovea'],['upright'],['U0164.bmp'],['female'],[[0]],['female'],[[1]],[[0.50307223]],JC
55,[[13]],[[56]],[[10]],['high holistic'],['left'],['inverted'],['U0159.bmp'],['male'],[[10]],['male'],[[1]],[[1.61900907]],JC
56,[[13]],[[57]],[[7]],['high holistic'],['left'],['upright'],['U0107.bmp'],['female'],[[2]],['female'],[[1]],[[0.49928261]],JC
57,[[13]],[[58]],[[5]],['high holistic'],['left'],['upright'],['U0076.bmp'],['female'],[[6]],['female'],[[1]],[[1.83095859]],JC
58,[[13]],[[59]],[[1]],['high holistic'],['right'],['upright'],['U0006.bmp'],['female'],[[6]],['female'],[[1]],[[0.37289037]],JC
59,[[13]],[[60]],[[7]],['high holistic'],['right'],['upright'],['U0107.bmp'],['female'],[[10]],['female'],[[1]],[[0.6458794]],JC
60,[[13]],[[61]],[[7]],['low holistic'],['left'],['upright'],['U0107.bmp'],['female'],[[6]],['female'],[[1]],[[0.38836315]],JC
61,[[13]],[[62]],[[5]],['low holistic'],['left'],['inverted'],['U0076.bmp'],['male'],[[8]],['female'],[[0]],[[4.01422641]],JC
62,[[13]],[[63]],[[6]],['high holistic'],['right'],['upright'],['U0106.bmp'],['female'],[[12]],['female'],[[1]],[[0.53257636]],JC
63,[[13]],[[64]],[[14]],['high holistic'],['right'],['upright'],['U0228.bmp'],['male'],[[2]],['male'],[[1]],[[0.35972087]],JC
64,[[13]],[[65]],[[9]],['low holistic'],['right'],['upright'],['U0155.bmp'],['male'],[[2]],['male'],[[1]],[[0.24765306]],JC
65,[[13]],[[66]],[[7]],['low holistic'],['left'],['upright'],['U0107.bmp'],['female'],[[12]],['female'],[[1]],[[0.06259082]],JC
66,[[13]],[[67]],[[18]],['low holistic'],['right'],['inverted'],['U0359.bmp'],['male'],[[10]],['male'],[[1]],[[0.00012747]],JC
67,[[13]],[[68]],[[9]],['low holistic'],['right'],['upright'],['U0155.bmp'],['male'],[[4]],['male'],[[1]],[[0.02896914]],JC
68,[[13]],[[69]],[[18]],['high holistic'],['left'],['inverted'],['U0359.bmp'],['male'],[[2]],['female'],[[0]],[[2.14738888]],JC
69,[[13]],[[70]],[[20]],['low holistic'],['right'],['upright'],['U0362.bmp'],['male'],[[4]],['male'],[[1]],[[0.70891962]],JC
70,[[13]],[[71]],[[9]],['high holistic'],['left'],['inverted'],['U0155.bmp'],['female'],[[6]],['female'],[[1]],[[1.17699001]],JC
71,[[13]],[[72]],[[1]],['low holistic'],['right'],['inverted'],['U0006.bmp'],['female'],[[2]],['female'],[[1]],[[0.76910641]],JC
72,[[13]],[[73]],[[12]],['low holistic'],['right'],['inverted'],['U0178.bmp'],['female'],[[4]],['female'],[[1]],[[0.50771139]],JC
73,[[13]],[[74]],[[5]],['low holistic'],['right'],['inverted'],['U0076.bmp'],['male'],[[6]],['male'],[[1]],[[2.17397923]],JC
74,[[13]],[[75]],[[16]],['low holistic'],['right'],['upright'],['U0335.bmp'],['female'],[[8]],['female'],[[1]],[[0.66366825]],JC
75,[[13]],[[76]],[[19]],['high holistic'],['right'],['inverted'],['U0361.bmp'],['female'],[[4]],['female'],[[1]],[[1.20543279]],JC
76,[[13]],[[77]],[[2]],['high holistic'],['right'],['upright'],['U0014.bmp'],['male'],[[12]],['male'],[[1]],[[0.27735653]],JC
77,[[13]],[[78]],[[13]],['low holistic'],['right'],['upright'],['U0181.bmp'],['male'],[[10]],['male'],[[1]],[[0.59408712]],JC
78,[[13]],[[79]],[[1]],['high holistic'],['right'],['inverted'],['U0006.bmp'],['female'],[[8]],['female'],[[1]],[[0.36978197]],JC
79,[[13]],[[80]],[[17]],['high holistic'],['left'],['upright'],['U0346.bmp'],['male'],[[12]],['male'],[[1]],[[0.76356886]],JC
80,[[13]],[[81]],[[4]],['high holistic'],['left'],['upright'],['U0061.bmp'],['female'],[[8]],['female'],[[1]],[[0.78149609]],JC
81,[[13]],[[82]],[[4]],['low holistic'],['right'],['inverted'],['U0061.bmp'],['female'],[[12]],['female'],[[1]],[[0.65358342]],JC
82,[[13]],[[83]],[[8]],['low holistic'],['fovea'],['inverted'],['U0137.bmp'],['male'],[[0]],['male'],[[1]],[[0.29973627]],JC
83,[[13]],[[84]],[[10]],['high holistic'],['right'],['upright'],['U0159.bmp'],['male'],[[2]],['male'],[[1]],[[0.79779685]],JC
84,[[13]],[[85]],[[5]],['high holistic'],['right'],['upright'],['U0076.bmp'],['female'],[[4]],['female'],[[1]],[[0.42358026]],JC
85,[[13]],[[86]],[[11]],['low holistic'],['left'],['upright'],['U0164.bmp'],['female'],[[4]],['female'],[[1]],[[0.45401491]],JC
86,[[13]],[[87]],[[19]],['low holistic'],['right'],['inverted'],['U0361.bmp'],['female'],[[6]],['female'],[[1]],[[0.68353502]],JC
87,[[13]],[[88]],[[1]],['high holistic'],['left'],['upright'],['U0006.bmp'],['female'],[[8]],['female'],[[1]],[[0.51332014]],JC
88,[[13]],[[89]],[[13]],['high holistic'],['fovea'],['inverted'],['U0181.bmp'],['female'],[[0]],['female'],[[1]],[[0.53139974]],JC
89,[[13]],[[90]],[[5]],['low holistic'],['left'],['upright'],['U0076.bmp'],['male'],[[2]],['male'],[[1]],[[0.38333263]],JC
90,[[13]],[[91]],[[3]],['high holistic'],['left'],['upright'],['U0020.bmp'],['male'],[[6]],['male'],[[1]],[[0.28825083]],JC
91,[[13]],[[92]],[[11]],['low holistic'],['right'],['inverted'],['U0164.bmp'],['female'],[[10]],['female'],[[1]],[[2.53056948]],JC
92,[[13]],[[93]],[[3]],['low holistic'],['right'],['upright'],['U0020.bmp'],['female'],[[4]],['female'],[[1]],[[0.71900802]],JC
93,[[13]],[[94]],[[9]],['high holistic'],['left'],['inverted'],['U0155.bmp'],['female'],[[8]],['male'],[[0]],[[1.3209884]],JC
94,[[13]],[[95]],[[16]],['high holistic'],['fovea'],['upright'],['U0335.bmp'],['female'],[[0]],['female'],[[1]],[[1.38911461]],JC
95,[[13]],[[96]],[[6]],['high holistic'],['left'],['upright'],['U0106.bmp'],['female'],[[10]],['male'],[[0]],[[0.30967216]],JC
96,[[13]],[[97]],[[11]],['low holistic'],['fovea'],['upright'],['U0164.bmp'],['female'],[[0]],['female'],[[1]],[[1.45586039]],JC
97,[[13]],[[98]],[[13]],['low holistic'],['right'],['upright'],['U0181.bmp'],['male'],[[2]],['male'],[[1]],[[0.24732646]],JC
98,[[13]],[[99]],[[11]],['low holistic'],['right'],['upright'],['U0164.bmp'],['female'],[[8]],['female'],[[1]],[[0.37279791]],JC
99,[[13]],[[100]],[[15]],['high holistic'],['fovea'],['upright'],['U0312.bmp'],['male'],[[0]],['male'],[[1]],[[0.70919187]],JC
100,[[13]],[[101]],[[6]],['high holistic'],['left'],['upright'],['U0106.bmp'],['female'],[[6]],['female'],[[1]],[[0.39992187]],JC
101,[[13]],[[102]],[[15]],['high holistic'],['right'],['upright'],['U0312.bmp'],['male'],[[2]],['male'],[[1]],[[0.89633414]],JC
102,[[13]],[[103]],[[13]],['high holistic'],['left'],['inverted'],['U0181.bmp'],['female'],[[12]],['female'],[[1]],[[1.03818956]],JC
103,[[13]],[[104]],[[13]],['low holistic'],['left'],['inverted'],['U0181.bmp'],['male'],[[10]],['male'],[[1]],[[0.99616566]],JC
104,[[13]],[[105]],[[19]],['high holistic'],['right'],['upright'],['U0361.bmp'],['female'],[[8]],['female'],[[1]],[[0.4265934]],JC
105,[[13]],[[106]],[[20]],['low holistic'],['left'],['inverted'],['U0362.bmp'],['male'],[[2]],['male'],[[1]],[[0.38674403]],JC
106,[[13]],[[107]],[[14]],['high holistic'],['left'],['upright'],['U0228.bmp'],['male'],[[12]],['male'],[[1]],[[0.53908543]],JC
107,[[13]],[[108]],[[18]],['high holistic'],['right'],['inverted'],['U0359.bmp'],['male'],[[2]],['female'],[[0]],[[0.56486918]],JC
108,[[13]],[[109]],[[9]],['high holistic'],['left'],['inverted'],['U0155.bmp'],['female'],[[4]],['male'],[[0]],[[2.79850287]],JC
109,[[13]],[[110]],[[7]],['low holistic'],['fovea'],['upright'],['U0107.bmp'],['female'],[[0]],['female'],[[1]],[[1.31918266]],JC
110,[[13]],[[111]],[[18]],['low holistic'],['right'],['upright'],['U0359.bmp'],['male'],[[6]],['male'],[[1]],[[0.95322927]],JC
111,[[13]],[[112]],[[2]],['low holistic'],['right'],['upright'],['U0014.bmp'],['male'],[[4]],['male'],[[1]],[[1.44422422]],JC
112,[[13]],[[113]],[[19]],['high holistic'],['fovea'],['inverted'],['U0361.bmp'],['female'],[[0]],['female'],[[1]],[[3.88082353]],JC
113,[[13]],[[114]],[[5]],['high holistic'],['right'],['upright'],['U0076.bmp'],['female'],[[8]],['female'],[[1]],[[1.33420187]],JC
114,[[13]],[[115]],[[3]],['low holistic'],['right'],['upright'],['U0020.bmp'],['female'],[[2]],['female'],[[1]],[[0.85837296]],JC
115,[[13]],[[116]],[[3]],['low holistic'],['right'],['upright'],['U0020.bmp'],['female'],[[8]],['female'],[[1]],[[0.67966237]],JC
116,[[13]],[[117]],[[13]],['high holistic'],['right'],['upright'],['U0181.bmp'],['female'],[[12]],['female'],[[1]],[[0.44446942]],JC
117,[[13]],[[118]],[[6]],['high holistic'],['left'],['upright'],['U0106.bmp'],['female'],[[6]],['female'],[[1]],[[0.24100574]],JC
118,[[13]],[[119]],[[10]],['high holistic'],['right'],['upright'],['U0159.bmp'],['male'],[[2]],['male'],[[1]],[[0.20074049]],JC
119,[[13]],[[120]],[[17]],['high holistic'],['left'],['upright'],['U0346.bmp'],['male'],[[6]],['male'],[[1]],[[0.43158583]],JC
120,[[13]],[[121]],[[3]],['low holistic'],['left'],['upright'],['U0020.bmp'],['female'],[[8]],['male'],[[0]],[[0.01430723]],JC
121,[[13]],[[122]],[[16]],['high holistic'],['left'],['upright'],['U0335.bmp'],['female'],[[8]],['female'],[[1]],[[0.45359937]],JC
122,[[13]],[[123]],[[19]],['high holistic'],['right'],['upright'],['U0361.bmp'],['female'],[[2]],['male'],[[0]],[[3.24220696]],JC
123,[[13]],[[124]],[[19]],['high holistic'],['right'],['upright'],['U0361.bmp'],['female'],[[8]],['male'],[[0]],[[5.40212346]],JC
124,[[13]],[[125]],[[5]],['high holistic'],['left'],['upright'],['U0076.bmp'],['female'],[[2]],['female'],[[1]],[[0.53948677]],JC
125,[[13]],[[126]],[[19]],['high holistic'],['left'],['inverted'],['U0361.bmp'],['female'],[[8]],['male'],[[0]],[[5.8047587]],JC
126,[[13]],[[127]],[[6]],['high holistic'],['right'],['upright'],['U0106.bmp'],['female'],[[10]],['female'],[[1]],[[0.82789011]],JC
127,[[13]],[[128]],[[10]],['high holistic'],['right'],['inverted'],['U0159.bmp'],['male'],[[12]],['male'],[[1]],[[0.61902402]],JC
128,[[13]],[[129]],[[6]],['low holistic'],['left'],['upright'],['U0106.bmp'],['male'],[[6]],['male'],[[1]],[[1.02583405]],JC
129,[[13]],[[130]],[[5]],['high holistic'],['right'],['inverted'],['U0076.bmp'],['female'],[[6]],['male'],[[0]],[[0.15430567]],JC
130,[[13]],[[131]],[[9]],['high holistic'],['left'],['inverted'],['U0155.bmp'],['female'],[[12]],['female'],[[1]],[[1.15979609]],JC
131,[[13]],[[132]],[[19]],['high holistic'],['right'],['upright'],['U0361.bmp'],['female'],[[10]],['female'],[[1]],[[5.49590874]],JC
132,[[13]],[[133]],[[8]],['low holistic'],['left'],['upright'],['U0137.bmp'],['male'],[[4]],['male'],[[1]],[[0.28324361]],JC
133,[[13]],[[134]],[[3]],['low holistic'],['fovea'],['upright'],['U0020.bmp'],['female'],[[0]],['female'],[[1]],[[0.37796397]],JC
134,[[13]],[[135]],[[15]],['high holistic'],['left'],['inverted'],['U0312.bmp'],['male'],[[8]],['male'],[[1]],[[0.49075789]],JC
135,[[13]],[[136]],[[8]],['low holistic'],['left'],['inverted'],['U0137.bmp'],['male'],[[2]],['male'],[[1]],[[0.13404346]],JC
136,[[13]],[[137]],[[17]],['low holistic'],['right'],['upright'],['U0346.bmp'],['female'],[[6]],['female'],[[1]],[[0.24772309]],JC
137,[[13]],[[138]],[[1]],['high holistic'],['left'],['upright'],['U0006.bmp'],['female'],[[4]],['female'],[[1]],[[0.15128276]],JC
138,[[13]],[[139]],[[7]],['high holistic'],['fovea'],['upright'],['U0107.bmp'],['female'],[[0]],['female'],[[1]],[[0.22420385]],JC
139,[[13]],[[140]],[[13]],['low holistic'],['right'],['upright'],['U0181.bmp'],['male'],[[6]],['male'],[[1]],[[0.25677986]],JC
140,[[13]],[[141]],[[15]],['high holistic'],['left'],['upright'],['U0312.bmp'],['male'],[[4]],['male'],[[1]],[[0.39032471]],JC
141,[[13]],[[142]],[[5]],['low holistic'],['left'],['upright'],['U0076.bmp'],['male'],[[8]],['male'],[[1]],[[0.06182665]],JC
142,[[13]],[[143]],[[4]],['low holistic'],['right'],['inverted'],['U0061.bmp'],['female'],[[10]],['female'],[[1]],[[0.11643489]],JC
143,[[13]],[[144]],[[16]],['high holistic'],['left'],['inverted'],['U0335.bmp'],['female'],[[12]],['female'],[[1]],[[1.23010691]],JC
144,[[13]],[[145]],[[6]],['low holistic'],['left'],['upright'],['U0106.bmp'],['male'],[[12]],['male'],[[1]],[[0.4608558]],JC
145,[[13]],[[146]],[[9]],['high holistic'],['left'],['upright'],['U0155.bmp'],['female'],[[2]],['female'],[[1]],[[0.6114977]],JC
146,[[13]],[[147]],[[15]],['low holistic'],['left'],['upright'],['U0312.bmp'],['male'],[[12]],['male'],[[1]],[[0.50560134]],JC
147,[[13]],[[148]],[[18]],['high holistic'],['left'],['inverted'],['U0359.bmp'],['male'],[[10]],['male'],[[1]],[[1.04537867]],JC
148,[[13]],[[149]],[[16]],['high holistic'],['left'],['inverted'],['U0335.bmp'],['female'],[[12]],['female'],[[1]],[[0.74754095]],JC
149,[[13]],[[150]],[[12]],['high holistic'],['left'],['inverted'],['U0178.bmp'],['male'],[[2]],['female'],[[0]],[[3.72706615]],JC
150,[[13]],[[151]],[[14]],['low holistic'],['left'],['upright'],['U0228.bmp'],['male'],[[6]],['male'],[[1]],[[0.19340934]],JC
151,[[13]],[[152]],[[12]],['high holistic'],['right'],['upright'],['U0178.bmp'],['male'],[[8]],['male'],[[1]],[[0.96095716]],JC
152,[[13]],[[153]],[[12]],['high holistic'],['right'],['upright'],['U0178.bmp'],['male'],[[8]],['male'],[[1]],[[0.38745415]],JC
153,[[13]],[[154]],[[15]],['low holistic'],['right'],['inverted'],['U0312.bmp'],['male'],[[2]],['female'],[[0]],[[0.55644295]],JC
154,[[13]],[[155]],[[7]],['high holistic'],['right'],['upright'],['U0107.bmp'],['female'],[[8]],['male'],[[0]],[[0.00485628]],JC
155,[[13]],[[156]],[[16]],['high holistic'],['right'],['inverted'],['U0335.bmp'],['female'],[[6]],['female'],[[1]],[[3.31551065]],JC
156,[[13]],[[157]],[[7]],['low holistic'],['left'],['inverted'],['U0107.bmp'],['female'],[[10]],['female'],[[1]],[[0.46475058]],JC
157,[[13]],[[158]],[[11]],['high holistic'],['left'],['inverted'],['U0164.bmp'],['female'],[[10]],['male'],[[0]],[[1.55707642]],JC
158,[[13]],[[159]],[[13]],['high holistic'],['right'],['upright'],['U0181.bmp'],['female'],[[4]],['female'],[[1]],[[0.71134152]],JC
159,[[13]],[[160]],[[15]],['low holistic'],['right'],['upright'],['U0312.bmp'],['male'],[[2]],['male'],[[1]],[[0.3948052]],JC
160,[[13]],[[161]],[[11]],['high holistic'],['left'],['inverted'],['U0164.bmp'],['female'],[[12]],['male'],[[0]],[[1.49883436]],JC
161,[[13]],[[162]],[[17]],['low holistic'],['left'],['inverted'],['U0346.bmp'],['female'],[[4]],['female'],[[1]],[[0.83903268]],JC
162,[[13]],[[163]],[[8]],['high holistic'],['left'],['upright'],['U0137.bmp'],['female'],[[12]],['female'],[[1]],[[1.18166774]],JC
163,[[13]],[[164]],[[12]],['high holistic'],['left'],['upright'],['U0178.bmp'],['male'],[[4]],['male'],[[1]],[[0.32488573]],JC
164,[[13]],[[165]],[[15]],['high holistic'],['right'],['upright'],['U0312.bmp'],['male'],[[4]],['male'],[[1]],[[0.28142809]],JC
165,[[13]],[[166]],[[1]],['low holistic'],['left'],['inverted'],['U0006.bmp'],['female'],[[4]],['female'],[[1]],[[5.56460575]],JC
166,[[13]],[[167]],[[18]],['high holistic'],['right'],['inverted'],['U0359.bmp'],['male'],[[2]],['male'],[[1]],[[0.43923359]],JC
167,[[13]],[[168]],[[10]],['low holistic'],['fovea'],['inverted'],['U0159.bmp'],['female'],[[0]],['female'],[[1]],[[1.13389417]],JC
168,[[13]],[[169]],[[6]],['low holistic'],['left'],['upright'],['U0106.bmp'],['male'],[[8]],['male'],[[1]],[[0.92063115]],JC
169,[[13]],[[170]],[[20]],['low holistic'],['fovea'],['inverted'],['U0362.bmp'],['male'],[[0]],['male'],[[1]],[[0.45733844]],JC
170,[[13]],[[171]],[[19]],['high holistic'],['left'],['upright'],['U0361.bmp'],['female'],[[2]],['female'],[[1]],[[1.560249]],JC
171,[[13]],[[172]],[[9]],['high holistic'],['left'],['inverted'],['U0155.bmp'],['female'],[[2]],['female'],[[1]],[[0.54520823]],JC
172,[[13]],[[173]],[[7]],['low holistic'],['right'],['inverted'],['U0107.bmp'],['female'],[[4]],['female'],[[1]],[[0.44438783]],JC
173,[[13]],[[174]],[[12]],['low holistic'],['left'],['upright'],['U0178.bmp'],['female'],[[8]],['female'],[[1]],[[0.41887119]],JC
174,[[13]],[[175]],[[5]],['high holistic'],['left'],['upright'],['U0076.bmp'],['female'],[[10]],['female'],[[1]],[[1.33681345]],JC
175,[[13]],[[176]],[[7]],['high holistic'],['right'],['inverted'],['U0107.bmp'],['female'],[[12]],['female'],[[1]],[[1.0188384]],JC
176,[[13]],[[177]],[[11]],['low holistic'],['left'],['inverted'],['U0164.bmp'],['female'],[[8]],['female'],[[1]],[[1.32191245]],JC
177,[[13]],[[178]],[[4]],['low holistic'],['left'],['inverted'],['U0061.bmp'],['female'],[[12]],['female'],[[1]],[[0.44558581]],JC
178,[[13]],[[179]],[[17]],['high holistic'],['left'],['inverted'],['U0346.bmp'],['male'],[[8]],['female'],[[0]],[[0.93137138]],JC
179,[[13]],[[180]],[[18]],['high holistic'],['left'],['upright'],['U0359.bmp'],['male'],[[10]],['male'],[[1]],[[0.39119969]],JC
180,[[13]],[[181]],[[9]],['low holistic'],['left'],['upright'],['U0155.bmp'],['male'],[[2]],['male'],[[1]],[[0.12692012]],JC
181,[[13]],[[182]],[[5]],['high holistic'],['right'],['inverted'],['U0076.bmp'],['female'],[[12]],['female'],[[1]],[[1.24166352]],JC
182,[[13]],[[183]],[[1]],['low holistic'],['fovea'],['upright'],['U0006.bmp'],['female'],[[0]],['female'],[[1]],[[0.77614511]],JC
183,[[13]],[[184]],[[13]],['low holistic'],['left'],['inverted'],['U0181.bmp'],['male'],[[2]],['male'],[[1]],[[0.53658108]],JC
184,[[13]],[[185]],[[19]],['high holistic'],['left'],['inverted'],['U0361.bmp'],['female'],[[6]],['female'],[[1]],[[0.8766578]],JC
185,[[13]],[[186]],[[19]],['low holistic'],['left'],['upright'],['U0361.bmp'],['female'],[[2]],['female'],[[1]],[[0.4156576]],JC
186,[[13]],[[187]],[[14]],['high holistic'],['right'],['inverted'],['U0228.bmp'],['male'],[[10]],['male'],[[1]],[[0.47167363]],JC
187,[[13]],[[188]],[[10]],['high holistic'],['left'],['upright'],['U0159.bmp'],['male'],[[4]],['male'],[[1]],[[0.35788154]],JC
188,[[13]],[[189]],[[10]],['high holistic'],['left'],['upright'],['U0159.bmp'],['male'],[[4]],['male'],[[1]],[[0.00544165]],JC
189,[[13]],[[190]],[[8]],['high holistic'],['left'],['upright'],['U0137.bmp'],['female'],[[8]],['female'],[[1]],[[0.66931753]],JC
190,[[13]],[[191]],[[13]],['low holistic'],['right'],['inverted'],['U0181.bmp'],['male'],[[6]],['male'],[[1]],[[0.82656471]],JC
191,[[13]],[[192]],[[8]],['low holistic'],['left'],['inverted'],['U0137.bmp'],['male'],[[6]],['male'],[[1]],[[0.41029228]],JC
192,[[13]],[[193]],[[6]],['high holistic'],['right'],['upright'],['U0106.bmp'],['female'],[[4]],['male'],[[0]],[[3.23233671]],JC
193,[[13]],[[194]],[[8]],['low holistic'],['right'],['inverted'],['U0137.bmp'],['male'],[[8]],['female'],[[0]],[[0.31965701]],JC
194,[[13]],[[195]],[[2]],['low holistic'],['left'],['inverted'],['U0014.bmp'],['male'],[[12]],['male'],[[1]],[[4.40261392]],JC
195,[[13]],[[196]],[[6]],['low holistic'],['left'],['inverted'],['U0106.bmp'],['male'],[[12]],['male'],[[1]],[[0.73756134]],JC
196,[[13]],[[197]],[[5]],['high holistic'],['right'],['upright'],['U0076.bmp'],['female'],[[10]],['female'],[[1]],[[0.42156897]],JC
197,[[13]],[[198]],[[14]],['high holistic'],['left'],['inverted'],['U0228.bmp'],['male'],[[4]],['male'],[[1]],[[1.26881107]],JC
198,[[13]],[[199]],[[12]],['high holistic'],['right'],['upright'],['U0178.bmp'],['male'],[[4]],['male'],[[1]],[[0.9785637]],JC
199,[[13]],[[200]],[[12]],['high holistic'],['right'],['upright'],['U0178.bmp'],['male'],[[6]],['male'],[[1]],[[0.42576957]],JC
200,[[13]],[[201]],[[3]],['high holistic'],['right'],['inverted'],['U0020.bmp'],['male'],[[6]],['female'],[[0]],[[1.45047859]],JC
201,[[13]],[[202]],[[9]],['low holistic'],['right'],['inverted'],['U0155.bmp'],['male'],[[8]],['male'],[[1]],[[0.28823186]],JC
202,[[13]],[[203]],[[17]],['low holistic'],['right'],['upright'],['U0346.bmp'],['female'],[[10]],['female'],[[1]],[[0.77894628]],JC
203,[[13]],[[204]],[[11]],['low holistic'],['left'],['upright'],['U0164.bmp'],['female'],[[12]],['female'],[[1]],[[0.47709111]],JC
204,[[13]],[[205]],[[7]],['high holistic'],['left'],['upright'],['U0107.bmp'],['female'],[[12]],['male'],[[0]],[[0.41040902]],JC
205,[[13]],[[206]],[[2]],['high holistic'],['right'],['inverted'],['U0014.bmp'],['male'],[[8]],['male'],[[1]],[[3.44863245]],JC
206,[[13]],[[207]],[[10]],['high holistic'],['left'],['inverted'],['U0159.bmp'],['male'],[[4]],['male'],[[1]],[[0.70367887]],JC
207,[[13]],[[208]],[[2]],['high holistic'],['left'],['upright'],['U0014.bmp'],['male'],[[10]],['male'],[[1]],[[0.65164109]],JC
208,[[13]],[[209]],[[10]],['low holistic'],['left'],['upright'],['U0159.bmp'],['female'],[[2]],['female'],[[1]],[[0.27357511]],JC
209,[[13]],[[210]],[[10]],['low holistic'],['left'],['inverted'],['U0159.bmp'],['female'],[[6]],['female'],[[1]],[[3.98157483]],JC
210,[[13]],[[211]],[[4]],['low holistic'],['left'],['inverted'],['U0061.bmp'],['female'],[[2]],['female'],[[1]],[[1.99969133]],JC
211,[[13]],[[212]],[[17]],['low holistic'],['right'],['inverted'],['U0346.bmp'],['female'],[[12]],['female'],[[1]],[[3.48626505]],JC
212,[[13]],[[213]],[[12]],['high holistic'],['fovea'],['inverted'],['U0178.bmp'],['male'],[[0]],['female'],[[0]],[[0.55593178]],JC
213,[[13]],[[214]],[[4]],['low holistic'],['left'],['inverted'],['U0061.bmp'],['female'],[[6]],['female'],[[1]],[[0.44562302]],JC
214,[[13]],[[215]],[[12]],['high holistic'],['left'],['inverted'],['U0178.bmp'],['male'],[[6]],['female'],[[0]],[[0.27577273]],JC
215,[[13]],[[216]],[[1]],['low holistic'],['right'],['inverted'],['U0006.bmp'],['female'],[[6]],['female'],[[1]],[[0.26628881]],JC
216,[[13]],[[217]],[[10]],['high holistic'],['left'],['inverted'],['U0159.bmp'],['male'],[[4]],['male'],[[1]],[[0.68507519]],JC
217,[[13]],[[218]],[[3]],['high holistic'],['right'],['inverted'],['U0020.bmp'],['male'],[[10]],['female'],[[0]],[[1.05891074]],JC
218,[[13]],[[219]],[[10]],['high holistic'],['left'],['inverted'],['U0159.bmp'],['male'],[[10]],['male'],[[1]],[[0.83183083]],JC
219,[[13]],[[220]],[[10]],['low holistic'],['right'],['upright'],['U0159.bmp'],['female'],[[8]],['female'],[[1]],[[0.3754388]],JC
220,[[13]],[[221]],[[11]],['low holistic'],['left'],['inverted'],['U0164.bmp'],['female'],[[4]],['female'],[[1]],[[0.66292719]],JC
221,[[13]],[[222]],[[5]],['low holistic'],['left'],['inverted'],['U0076.bmp'],['male'],[[10]],['male'],[[1]],[[0.33264885]],JC
222,[[13]],[[223]],[[9]],['low holistic'],['right'],['inverted'],['U0155.bmp'],['male'],[[2]],['male'],[[1]],[[0.11268349]],JC
223,[[13]],[[224]],[[12]],['low holistic'],['fovea'],['inverted'],['U0178.bmp'],['female'],[[0]],['female'],[[1]],[[1.37126287]],JC
224,[[13]],[[225]],[[9]],['high holistic'],['right'],['upright'],['U0155.bmp'],['female'],[[10]],['male'],[[0]],[[0.6452914]],JC
225,[[13]],[[226]],[[11]],['low holistic'],['right'],['upright'],['U0164.bmp'],['female'],[[8]],['female'],[[1]],[[1.44216357]],JC
226,[[13]],[[227]],[[19]],['high holistic'],['left'],['upright'],['U0361.bmp'],['female'],[[10]],['female'],[[1]],[[4.54635245]],JC
227,[[13]],[[228]],[[11]],['high holistic'],['left'],['inverted'],['U0164.bmp'],['female'],[[2]],['male'],[[0]],[[0.81098354]],JC
228,[[13]],[[229]],[[12]],['high holistic'],['right'],['inverted'],['U0178.bmp'],['male'],[[2]],['male'],[[1]],[[0.69932264]],JC
229,[[13]],[[230]],[[19]],['high holistic'],['left'],['inverted'],['U0361.bmp'],['female'],[[6]],['female'],[[1]],[[0.68803976]],JC
230,[[13]],[[231]],[[9]],['high holistic'],['left'],['upright'],['U0155.bmp'],['female'],[[10]],['male'],[[0]],[[0.66668272]],JC
231,[[13]],[[232]],[[6]],['low holistic'],['right'],['upright'],['U0106.bmp'],['male'],[[6]],['male'],[[1]],[[0.41688177]],JC
232,[[13]],[[233]],[[7]],['low holistic'],['right'],['upright'],['U0107.bmp'],['female'],[[12]],['female'],[[1]],[[0.00010101]],JC
233,[[13]],[[234]],[[20]],['high holistic'],['left'],['inverted'],['U0362.bmp'],['female'],[[8]],['male'],[[0]],[[0.48026982]],JC
234,[[13]],[[235]],[[14]],['high holistic'],['right'],['upright'],['U0228.bmp'],['male'],[[10]],['male'],[[1]],[[0.43646579]],JC
235,[[13]],[[236]],[[8]],['high holistic'],['left'],['inverted'],['U0137.bmp'],['female'],[[6]],['male'],[[0]],[[0.61877821]],JC
236,[[13]],[[237]],[[19]],['high holistic'],['right'],['inverted'],['U0361.bmp'],['female'],[[2]],['female'],[[1]],[[1.33032632]],JC
237,[[13]],[[238]],[[9]],['high holistic'],['right'],['upright'],['U0155.bmp'],['female'],[[10]],['male'],[[0]],[[0.49376986]],JC
238,[[13]],[[239]],[[4]],['low holistic'],['fovea'],['upright'],['U0061.bmp'],['female'],[[0]],['female'],[[1]],[[0.4891212]],JC
239,[[13]],[[240]],[[18]],['high holistic'],['right'],['upright'],['U0359.bmp'],['male'],[[2]],['male'],[[1]],[[0.16519369]],JC
240,[[13]],[[241]],[[13]],['low holistic'],['left'],['upright'],['U0181.bmp'],['male'],[[2]],['male'],[[1]],[[0.17626315]],JC
241,[[13]],[[242]],[[6]],['high holistic'],['left'],['upright'],['U0106.bmp'],['female'],[[4]],['female'],[[1]],[[0.87937501]],JC
242,[[13]],[[243]],[[4]],['high holistic'],['left'],['upright'],['U0061.bmp'],['female'],[[10]],['female'],[[1]],[[1.48529232]],JC
243,[[13]],[[244]],[[17]],['low holistic'],['left'],['upright'],['U0346.bmp'],['female'],[[8]],['female'],[[1]],[[0.57021447]],JC
244,[[13]],[[245]],[[3]],['high holistic'],['left'],['inverted'],['U0020.bmp'],['male'],[[6]],['male'],[[1]],[[0.31555928]],JC
245,[[13]],[[246]],[[9]],['low holistic'],['left'],['upright'],['U0155.bmp'],['male'],[[2]],['male'],[[1]],[[0.14268776]],JC
246,[[13]],[[247]],[[17]],['high holistic'],['fovea'],['upright'],['U0346.bmp'],['male'],[[0]],['male'],[[1]],[[0.19334182]],JC
247,[[13]],[[248]],[[13]],['high holistic'],['right'],['inverted'],['U0181.bmp'],['female'],[[6]],['female'],[[1]],[[0.36946934]],JC
248,[[13]],[[249]],[[2]],['high holistic'],['right'],['inverted'],['U0014.bmp'],['male'],[[12]],['male'],[[1]],[[1.11490991]],JC
249,[[13]],[[250]],[[11]],['high holistic'],['fovea'],['upright'],['U0164.bmp'],['female'],[[0]],['female'],[[1]],[[0.62885224]],JC
250,[[13]],[[251]],[[5]],['low holistic'],['right'],['inverted'],['U0076.bmp'],['male'],[[10]],['male'],[[1]],[[0.36414841]],JC
251,[[13]],[[252]],[[8]],['low holistic'],['left'],['upright'],['U0137.bmp'],['male'],[[4]],['male'],[[1]],[[0.12473055]],JC
252,[[13]],[[253]],[[12]],['high holistic'],['fovea'],['upright'],['U0178.bmp'],['male'],[[0]],['male'],[[1]],[[0.31259186]],JC
253,[[13]],[[254]],[[16]],['high holistic'],['right'],['upright'],['U0335.bmp'],['female'],[[12]],['female'],[[1]],[[0.2514923]],JC
254,[[13]],[[255]],[[5]],['low holistic'],['right'],['upright'],['U0076.bmp'],['male'],[[4]],['male'],[[1]],[[1.40959185]],JC
255,[[13]],[[256]],[[10]],['low holistic'],['right'],['inverted'],['U0159.bmp'],['female'],[[8]],['female'],[[1]],[[1.88196424]],JC
256,[[13]],[[257]],[[1]],['high holistic'],['right'],['upright'],['U0006.bmp'],['female'],[[8]],['female'],[[1]],[[0.30361495]],JC
257,[[13]],[[258]],[[11]],['high holistic'],['left'],['upright'],['U0164.bmp'],['female'],[[4]],['female'],[[1]],[[0.18530495]],JC
258,[[13]],[[259]],[[15]],['high holistic'],['fovea'],['inverted'],['U0312.bmp'],['male'],[[0]],['male'],[[1]],[[0.27542366]],JC
259,[[13]],[[260]],[[16]],['high holistic'],['left'],['upright'],['U0335.bmp'],['female'],[[6]],['female'],[[1]],[[0.36655957]],JC
260,[[13]],[[261]],[[4]],['low holistic'],['fovea'],['inverted'],['U0061.bmp'],['female'],[[0]],['female'],[[1]],[[0.49831678]],JC
261,[[13]],[[262]],[[2]],['low holistic'],['right'],['upright'],['U0014.bmp'],['male'],[[6]],['male'],[[1]],[[0.30185844]],JC
262,[[13]],[[263]],[[3]],['high holistic'],['right'],['inverted'],['U0020.bmp'],['male'],[[12]],['male'],[[1]],[[0.50686742]],JC
263,[[13]],[[264]],[[7]],['low holistic'],['left'],['upright'],['U0107.bmp'],['female'],[[10]],['female'],[[1]],[[0.09283505]],JC
264,[[13]],[[265]],[[14]],['low holistic'],['right'],['upright'],['U0228.bmp'],['male'],[[8]],['male'],[[1]],[[0.0098312]],JC
265,[[13]],[[266]],[[3]],['low holistic'],['left'],['inverted'],['U0020.bmp'],['female'],[[6]],['female'],[[1]],[[0.02643006]],JC
266,[[13]],[[267]],[[10]],['low holistic'],['right'],['upright'],['U0159.bmp'],['female'],[[8]],['female'],[[1]],[[0.32801522]],JC
267,[[13]],[[268]],[[9]],['high holistic'],['fovea'],['upright'],['U0155.bmp'],['female'],[[0]],['female'],[[1]],[[1.01926254]],JC
268,[[13]],[[269]],[[15]],['low holistic'],['right'],['upright'],['U0312.bmp'],['male'],[[6]],['male'],[[1]],[[0.32255843]],JC
269,[[13]],[[270]],[[16]],['low holistic'],['right'],['inverted'],['U0335.bmp'],['female'],[[10]],['female'],[[1]],[[1.9018348]],JC
270,[[13]],[[271]],[[17]],['high holistic'],['left'],['inverted'],['U0346.bmp'],['male'],[[2]],['female'],[[0]],[[1.29857409]],JC
271,[[13]],[[272]],[[15]],['low holistic'],['left'],['inverted'],['U0312.bmp'],['male'],[[8]],['male'],[[1]],[[0.4053903]],JC
272,[[13]],[[273]],[[10]],['low holistic'],['left'],['inverted'],['U0159.bmp'],['female'],[[8]],['female'],[[1]],[[0.36659174]],JC
273,[[13]],[[274]],[[18]],['high holistic'],['left'],['inverted'],['U0359.bmp'],['male'],[[12]],['male'],[[1]],[[0.28754489]],JC
274,[[13]],[[275]],[[8]],['low holistic'],['right'],['inverted'],['U0137.bmp'],['male'],[[12]],['male'],[[1]],[[0.49172945]],JC
275,[[13]],[[276]],[[9]],['high holistic'],['right'],['upright'],['U0155.bmp'],['female'],[[2]],['female'],[[1]],[[0.68020281]],JC
276,[[13]],[[277]],[[1]],['low holistic'],['left'],['upright'],['U0006.bmp'],['female'],[[8]],['female'],[[1]],[[0.69432673]],JC
277,[[13]],[[278]],[[10]],['low holistic'],['left'],['upright'],['U0159.bmp'],['female'],[[2]],['female'],[[1]],[[1.26417501]],JC
278,[[13]],[[279]],[[3]],['low holistic'],['fovea'],['inverted'],['U0020.bmp'],['female'],[[0]],['female'],[[1]],[[0.46272749]],JC
279,[[13]],[[280]],[[9]],['low holistic'],['fovea'],['inverted'],['U0155.bmp'],['male'],[[0]],['male'],[[1]],[[0.2843022]],JC
280,[[13]],[[281]],[[11]],['high holistic'],['fovea'],['upright'],['U0164.bmp'],['female'],[[0]],['female'],[[1]],[[1.88721984]],JC
281,[[13]],[[282]],[[10]],['low holistic'],['left'],['inverted'],['U0159.bmp'],['female'],[[12]],['female'],[[1]],[[0.50950337]],JC
282,[[13]],[[283]],[[7]],['high holistic'],['right'],['upright'],['U0107.bmp'],['female'],[[8]],['male'],[[0]],[[4.28008815]],JC
283,[[13]],[[284]],[[10]],['high holistic'],['left'],['upright'],['U0159.bmp'],['male'],[[4]],['male'],[[1]],[[0.45214155]],JC
284,[[13]],[[285]],[[4]],['high holistic'],['right'],['upright'],['U0061.bmp'],['female'],[[4]],['female'],[[1]],[[0.6760903]],JC
285,[[13]],[[286]],[[19]],['high holistic'],['right'],['inverted'],['U0361.bmp'],['female'],[[2]],['female'],[[1]],[[3.74448809]],JC
286,[[13]],[[287]],[[12]],['low holistic'],['left'],['upright'],['U0178.bmp'],['female'],[[6]],['male'],[[0]],[[0.21069672]],JC
287,[[13]],[[288]],[[15]],['high holistic'],['right'],['inverted'],['U0312.bmp'],['male'],[[10]],['male'],[[1]],[[0.76980248]],JC
288,[[13]],[[289]],[[7]],['high holistic'],['right'],['upright'],['U0107.bmp'],['female'],[[6]],['female'],[[1]],[[1.47507576]],JC
289,[[13]],[[290]],[[4]],['low holistic'],['left'],['inverted'],['U0061.bmp'],['female'],[[4]],['female'],[[1]],[[0.44720051]],JC
290,[[13]],[[291]],[[4]],['low holistic'],['left'],['upright'],['U0061.bmp'],['female'],[[10]],['female'],[[1]],[[0.90198244]],JC
291,[[13]],[[292]],[[2]],['low holistic'],['right'],['upright'],['U0014.bmp'],['male'],[[6]],['male'],[[1]],[[0.51491585]],JC
292,[[13]],[[293]],[[5]],['low holistic'],['right'],['upright'],['U0076.bmp'],['male'],[[4]],['male'],[[1]],[[0.19813706]],JC
293,[[13]],[[294]],[[14]],['low holistic'],['right'],['inverted'],['U0228.bmp'],['male'],[[10]],['male'],[[1]],[[0.39795175]],JC
294,[[13]],[[295]],[[11]],['low holistic'],['right'],['upright'],['U0164.bmp'],['female'],[[4]],['female'],[[1]],[[0.21292312]],JC
295,[[13]],[[296]],[[6]],['high holistic'],['fovea'],['inverted'],['U0106.bmp'],['female'],[[0]],['female'],[[1]],[[3.37162659]],JC
296,[[13]],[[297]],[[4]],['high holistic'],['left'],['upright'],['U0061.bmp'],['female'],[[4]],['female'],[[1]],[[0.64659841]],JC
297,[[13]],[[298]],[[13]],['high holistic'],['right'],['inverted'],['U0181.bmp'],['female'],[[8]],['female'],[[1]],[[0.26662457]],JC
298,[[13]],[[299]],[[15]],['low holistic'],['left'],['upright'],['U0312.bmp'],['male'],[[8]],['female'],[[0]],[[0.10619343]],JC
299,[[13]],[[300]],[[2]],['high holistic'],['right'],['inverted'],['U0014.bmp'],['male'],[[4]],['male'],[[1]],[[1.06963294]],JC
300,[[13]],[[301]],[[15]],['low holistic'],['left'],['upright'],['U0312.bmp'],['male'],[[4]],['male'],[[1]],[[0.42628081]],JC
301,[[13]],[[302]],[[3]],['high holistic'],['right'],['upright'],['U0020.bmp'],['male'],[[8]],['male'],[[1]],[[0.29634053]],JC
302,[[13]],[[303]],[[16]],['low holistic'],['right'],['upright'],['U0335.bmp'],['female'],[[8]],['female'],[[1]],[[0.30868948]],JC
303,[[13]],[[304]],[[13]],['high holistic'],['left'],['upright'],['U0181.bmp'],['female'],[[6]],['female'],[[1]],[[0.29599814]],JC
304,[[13]],[[305]],[[3]],['low holistic'],['left'],['upright'],['U0020.bmp'],['female'],[[4]],['female'],[[1]],[[0.26174165]],JC
305,[[13]],[[306]],[[7]],['high holistic'],['left'],['upright'],['U0107.bmp'],['female'],[[12]],['female'],[[1]],[[0.4500017]],JC
306,[[13]],[[307]],[[9]],['high holistic'],['left'],['upright'],['U0155.bmp'],['female'],[[4]],['female'],[[1]],[[0.5117989]],JC
307,[[13]],[[308]],[[7]],['high holistic'],['left'],['inverted'],['U0107.bmp'],['female'],[[8]],['male'],[[0]],[[0.12490204]],JC
308,[[13]],[[309]],[[17]],['low holistic'],['right'],['inverted'],['U0346.bmp'],['female'],[[2]],['female'],[[1]],[[0.32659677]],JC
309,[[13]],[[310]],[[15]],['high holistic'],['fovea'],['inverted'],['U0312.bmp'],['male'],[[0]],['male'],[[1]],[[0.15449974]],JC
310,[[13]],[[311]],[[9]],['high holistic'],['left'],['upright'],['U0155.bmp'],['female'],[[10]],['female'],[[1]],[[0.58722304]],JC
311,[[13]],[[312]],[[11]],['low holistic'],['left'],['inverted'],['U0164.bmp'],['female'],[[10]],['female'],[[1]],[[1.09263936]],JC
312,[[13]],[[313]],[[14]],['low holistic'],['fovea'],['upright'],['U0228.bmp'],['male'],[[0]],['male'],[[1]],[[0.05644835]],JC
313,[[13]],[[314]],[[16]],['low holistic'],['left'],['upright'],['U0335.bmp'],['female'],[[4]],['female'],[[1]],[[3.8612205]],JC
314,[[13]],[[315]],[[14]],['high holistic'],['left'],['inverted'],['U0228.bmp'],['male'],[[8]],['male'],[[1]],[[0.76276277]],JC
315,[[13]],[[316]],[[11]],['low holistic'],['right'],['upright'],['U0164.bmp'],['female'],[[4]],['female'],[[1]],[[4.06836147]],JC
316,[[13]],[[317]],[[10]],['low holistic'],['right'],['upright'],['U0159.bmp'],['female'],[[12]],['female'],[[1]],[[3.44162111]],JC
317,[[13]],[[318]],[[8]],['low holistic'],['left'],['inverted'],['U0137.bmp'],['male'],[[12]],['male'],[[1]],[[0.45635371]],JC
318,[[13]],[[319]],[[3]],['high holistic'],['fovea'],['inverted'],['U0020.bmp'],['male'],[[0]],['male'],[[1]],[[0.78880689]],JC
319,[[13]],[[320]],[[10]],['high holistic'],['left'],['inverted'],['U0159.bmp'],['male'],[[10]],['male'],[[1]],[[1.13437847]],JC
320,[[13]],[[321]],[[11]],['low holistic'],['left'],['upright'],['U0164.bmp'],['female'],[[10]],['female'],[[1]],[[0.3525779]],JC
321,[[13]],[[322]],[[5]],['low holistic'],['right'],['inverted'],['U0076.bmp'],['male'],[[8]],['male'],[[1]],[[1.17879354]],JC
322,[[13]],[[323]],[[1]],['low holistic'],['left'],['inverted'],['U0006.bmp'],['female'],[[10]],['male'],[[0]],[[1.06688973]],JC
323,[[13]],[[324]],[[11]],['low holistic'],['left'],['inverted'],['U0164.bmp'],['female'],[[6]],['female'],[[1]],[[0.80115563]],JC
324,[[13]],[[325]],[[14]],['low holistic'],['right'],['upright'],['U0228.bmp'],['male'],[[10]],['male'],[[1]],[[0.36962298]],JC
325,[[13]],[[326]],[[17]],['high holistic'],['fovea'],['upright'],['U0346.bmp'],['male'],[[0]],['male'],[[1]],[[0.46544839]],JC
326,[[13]],[[327]],[[3]],['high holistic'],['fovea'],['inverted'],['U0020.bmp'],['male'],[[0]],['male'],[[1]],[[0.60076467]],JC
327,[[13]],[[328]],[[12]],['low holistic'],['left'],['upright'],['U0178.bmp'],['female'],[[6]],['female'],[[1]],[[2.00825561]],JC
328,[[13]],[[329]],[[15]],['low holistic'],['left'],['inverted'],['U0312.bmp'],['male'],[[8]],['male'],[[1]],[[3.05524156]],JC
329,[[13]],[[330]],[[15]],['low holistic'],['right'],['upright'],['U0312.bmp'],['male'],[[4]],['male'],[[1]],[[0.25149736]],JC
330,[[13]],[[331]],[[9]],['high holistic'],['right'],['inverted'],['U0155.bmp'],['female'],[[2]],['male'],[[0]],[[0.54723626]],JC
331,[[13]],[[332]],[[2]],['high holistic'],['left'],['upright'],['U0014.bmp'],['male'],[[12]],['male'],[[1]],[[0.42131847]],JC
332,[[13]],[[333]],[[10]],['high holistic'],['left'],['inverted'],['U0159.bmp'],['male'],[[2]],['male'],[[1]],[[1.03630615]],JC
333,[[13]],[[334]],[[19]],['high holistic'],['right'],['upright'],['U0361.bmp'],['female'],[[10]],['female'],[[1]],[[2.05790643]],JC
334,[[13]],[[335]],[[17]],['high holistic'],['right'],['inverted'],['U0346.bmp'],['male'],[[10]],['male'],[[1]],[[0.38266561]],JC
335,[[13]],[[336]],[[17]],['high holistic'],['left'],['inverted'],['U0346.bmp'],['male'],[[2]],['male'],[[1]],[[2.03294364]],JC
336,[[13]],[[337]],[[11]],['low holistic'],['right'],['upright'],['U0164.bmp'],['female'],[[4]],['female'],[[1]],[[2.02302112]],JC
337,[[13]],[[338]],[[4]],['high holistic'],['right'],['inverted'],['U0061.bmp'],['female'],[[4]],['female'],[[1]],[[3.56425319]],JC
338,[[13]],[[339]],[[16]],['low holistic'],['right'],['upright'],['U0335.bmp'],['female'],[[2]],['female'],[[1]],[[0.29488081]],JC
339,[[13]],[[340]],[[11]],['low holistic'],['right'],['inverted'],['U0164.bmp'],['female'],[[6]],['female'],[[1]],[[2.21845224]],JC
340,[[13]],[[341]],[[3]],['high holistic'],['right'],['upright'],['U0020.bmp'],['male'],[[4]],['male'],[[1]],[[0.2500373]],JC
341,[[13]],[[342]],[[5]],['low holistic'],['left'],['upright'],['U0076.bmp'],['male'],[[4]],['male'],[[1]],[[0.1746239]],JC
342,[[13]],[[343]],[[9]],['high holistic'],['left'],['inverted'],['U0155.bmp'],['female'],[[12]],['male'],[[0]],[[1.08124261]],JC
343,[[13]],[[344]],[[1]],['low holistic'],['left'],['upright'],['U0006.bmp'],['female'],[[12]],['female'],[[1]],[[0.35749974]],JC
344,[[13]],[[345]],[[12]],['high holistic'],['left'],['inverted'],['U0178.bmp'],['male'],[[6]],['female'],[[0]],[[2.79161422]],JC
345,[[13]],[[346]],[[1]],['high holistic'],['left'],['upright'],['U0006.bmp'],['female'],[[6]],['female'],[[1]],[[0.48822819]],JC
346,[[13]],[[347]],[[19]],['high holistic'],['right'],['inverted'],['U0361.bmp'],['female'],[[12]],['female'],[[1]],[[1.69209368]],JC
347,[[13]],[[348]],[[10]],['high holistic'],['right'],['inverted'],['U0159.bmp'],['male'],[[6]],['male'],[[1]],[[1.03089747]],JC
348,[[13]],[[349]],[[7]],['high holistic'],['left'],['upright'],['U0107.bmp'],['female'],[[8]],['female'],[[1]],[[0.76574922]],JC
349,[[13]],[[350]],[[13]],['high holistic'],['left'],['upright'],['U0181.bmp'],['female'],[[4]],['female'],[[1]],[[0.16043282]],JC
350,[[13]],[[351]],[[16]],['high holistic'],['right'],['upright'],['U0335.bmp'],['female'],[[6]],['female'],[[1]],[[0.26394523]],JC
351,[[13]],[[352]],[[3]],['high holistic'],['right'],['upright'],['U0020.bmp'],['male'],[[2]],['male'],[[1]],[[0.36582212]],JC
352,[[13]],[[353]],[[4]],['low holistic'],['right'],['inverted'],['U0061.bmp'],['female'],[[10]],['female'],[[1]],[[1.1757932]],JC
353,[[13]],[[354]],[[7]],['high holistic'],['right'],['upright'],['U0107.bmp'],['female'],[[4]],['female'],[[1]],[[2.08038042]],JC
354,[[13]],[[355]],[[8]],['low holistic'],['right'],['upright'],['U0137.bmp'],['male'],[[12]],['male'],[[1]],[[0.5654528]],JC
355,[[13]],[[356]],[[20]],['low holistic'],['left'],['inverted'],['U0362.bmp'],['male'],[[4]],['male'],[[1]],[[0.51754008]],JC
356,[[13]],[[357]],[[8]],['high holistic'],['left'],['inverted'],['U0137.bmp'],['female'],[[10]],['male'],[[0]],[[0.64871479]],JC
357,[[13]],[[358]],[[5]],['high holistic'],['fovea'],['inverted'],['U0076.bmp'],['female'],[[0]],['male'],[[0]],[[2.942768]],JC
358,[[13]],[[359]],[[1]],['high holistic'],['fovea'],['upright'],['U0006.bmp'],['female'],[[0]],['female'],[[1]],[[0.37702848]],JC
359,[[13]],[[360]],[[4]],['high holistic'],['right'],['inverted'],['U0061.bmp'],['female'],[[12]],['female'],[[1]],[[0.49735518]],JC
360,[[13]],[[361]],[[11]],['high holistic'],['right'],['inverted'],['U0164.bmp'],['female'],[[4]],['male'],[[0]],[[3.48671948]],JC
361,[[13]],[[362]],[[17]],['high holistic'],['right'],['inverted'],['U0346.bmp'],['male'],[[12]],['male'],[[1]],[[0.74755789]],JC
362,[[13]],[[363]],[[10]],['high holistic'],['left'],['upright'],['U0159.bmp'],['male'],[[8]],['male'],[[1]],[[0.13958528]],JC
363,[[13]],[[364]],[[11]],['high holistic'],['right'],['inverted'],['U0164.bmp'],['female'],[[8]],['male'],[[0]],[[0.81457516]],JC
364,[[13]],[[365]],[[4]],['high holistic'],['left'],['upright'],['U0061.bmp'],['female'],[[2]],['female'],[[1]],[[0.18953202]],JC
365,[[13]],[[366]],[[15]],['high holistic'],['left'],['upright'],['U0312.bmp'],['male'],[[12]],['male'],[[1]],[[1.34326082]],JC
366,[[13]],[[367]],[[5]],['high holistic'],['right'],['inverted'],['U0076.bmp'],['female'],[[8]],['male'],[[0]],[[2.49775053]],JC
367,[[13]],[[368]],[[14]],['high holistic'],['right'],['inverted'],['U0228.bmp'],['male'],[[8]],['male'],[[1]],[[0.27783646]],JC
368,[[13]],[[369]],[[5]],['high holistic'],['right'],['inverted'],['U0076.bmp'],['female'],[[2]],['male'],[[0]],[[0.5531372]],JC
369,[[13]],[[370]],[[18]],['high holistic'],['left'],['inverted'],['U0359.bmp'],['male'],[[4]],['male'],[[1]],[[2.64490007]],JC
370,[[13]],[[371]],[[18]],['high holistic'],['left'],['upright'],['U0359.bmp'],['male'],[[6]],['male'],[[1]],[[0.24078775]],JC
371,[[13]],[[372]],[[11]],['low holistic'],['right'],['inverted'],['U0164.bmp'],['female'],[[2]],['female'],[[1]],[[0.90460774]],JC
372,[[13]],[[373]],[[3]],['high holistic'],['right'],['inverted'],['U0020.bmp'],['male'],[[2]],['male'],[[1]],[[0.28330771]],JC
373,[[13]],[[374]],[[7]],['low holistic'],['left'],['upright'],['U0107.bmp'],['female'],[[10]],['female'],[[1]],[[0.16974687]],JC
374,[[13]],[[375]],[[9]],['low holistic'],['left'],['upright'],['U0155.bmp'],['male'],[[4]],['male'],[[1]],[[4.38490538]],JC
375,[[13]],[[376]],[[14]],['high holistic'],['right'],['upright'],['U0228.bmp'],['male'],[[12]],['male'],[[1]],[[0.378933]],JC
376,[[13]],[[377]],[[11]],['high holistic'],['right'],['upright'],['U0164.bmp'],['female'],[[6]],['female'],[[1]],[[0.63472359]],JC
377,[[13]],[[378]],[[16]],['low holistic'],['fovea'],['inverted'],['U0335.bmp'],['female'],[[0]],['female'],[[1]],[[0.39236222]],JC
378,[[13]],[[379]],[[11]],['low holistic'],['right'],['upright'],['U0164.bmp'],['female'],[[4]],['female'],[[1]],[[0.93739135]],JC
379,[[13]],[[380]],[[4]],['high holistic'],['left'],['inverted'],['U0061.bmp'],['female'],[[10]],['female'],[[1]],[[0.81269299]],JC
380,[[13]],[[381]],[[2]],['low holistic'],['left'],['upright'],['U0014.bmp'],['male'],[[12]],['male'],[[1]],[[0.36155576]],JC
381,[[13]],[[382]],[[2]],['low holistic'],['left'],['upright'],['U0014.bmp'],['male'],[[8]],['male'],[[1]],[[0.60396709]],JC
382,[[13]],[[383]],[[6]],['high holistic'],['left'],['inverted'],['U0106.bmp'],['female'],[[8]],['male'],[[0]],[[0.57918257]],JC
383,[[13]],[[384]],[[8]],['low holistic'],['left'],['inverted'],['U0137.bmp'],['male'],[[2]],['male'],[[1]],[[0.33287654]],JC
384,[[13]],[[385]],[[11]],['low holistic'],['left'],['upright'],['U0164.bmp'],['female'],[[2]],['female'],[[1]],[[0.25461494]],JC
385,[[13]],[[386]],[[14]],['low holistic'],['left'],['inverted'],['U0228.bmp'],['male'],[[12]],['male'],[[1]],[[0.53297282]],JC
386,[[13]],[[387]],[[8]],['high holistic'],['right'],['inverted'],['U0137.bmp'],['female'],[[4]],['male'],[[0]],[[0.42355831]],JC
387,[[13]],[[388]],[[11]],['low holistic'],['left'],['inverted'],['U0164.bmp'],['female'],[[6]],['male'],[[0]],[[0.50252368]],JC
388,[[13]],[[389]],[[11]],['low holistic'],['left'],['upright'],['U0164.bmp'],['female'],[[10]],['female'],[[1]],[[0.61929328]],JC
389,[[13]],[[390]],[[6]],['low holistic'],['right'],['inverted'],['U0106.bmp'],['male'],[[10]],['male'],[[1]],[[0.59218545]],JC
390,[[13]],[[391]],[[17]],['high holistic'],['left'],['inverted'],['U0346.bmp'],['male'],[[6]],['male'],[[1]],[[0.34112281]],JC
391,[[13]],[[392]],[[17]],['high holistic'],['right'],['inverted'],['U0346.bmp'],['male'],[[8]],['male'],[[1]],[[0.09607402]],JC
392,[[13]],[[393]],[[3]],['low holistic'],['right'],['upright'],['U0020.bmp'],['female'],[[6]],['female'],[[1]],[[0.24277153]],JC
393,[[13]],[[394]],[[8]],['low holistic'],['left'],['inverted'],['U0137.bmp'],['male'],[[10]],['male'],[[1]],[[0.49772606]],JC
394,[[13]],[[395]],[[13]],['low holistic'],['fovea'],['inverted'],['U0181.bmp'],['male'],[[0]],['male'],[[1]],[[0.07078219]],JC
395,[[13]],[[396]],[[9]],['low holistic'],['right'],['inverted'],['U0155.bmp'],['male'],[[6]],['male'],[[1]],[[0.6741163]],JC
396,[[13]],[[397]],[[2]],['low holistic'],['left'],['inverted'],['U0014.bmp'],['male'],[[8]],['male'],[[1]],[[0.71948466]],JC
397,[[13]],[[398]],[[20]],['low holistic'],['left'],['inverted'],['U0362.bmp'],['male'],[[2]],['male'],[[1]],[[2.67442399]],JC
398,[[13]],[[399]],[[8]],['low holistic'],['left'],['inverted'],['U0137.bmp'],['male'],[[10]],['male'],[[1]],[[0.504661]],JC
399,[[13]],[[400]],[[17]],['high holistic'],['left'],['inverted'],['U0346.bmp'],['male'],[[6]],['male'],[[1]],[[2.73997175]],JC
400,[[13]],[[401]],[[6]],['low holistic'],['fovea'],['inverted'],['U0106.bmp'],['male'],[[0]],['male'],[[1]],[[0.51765614]],JC
401,[[13]],[[402]],[[18]],['low holistic'],['right'],['inverted'],['U0359.bmp'],['male'],[[6]],['male'],[[1]],[[0.36917881]],JC
402,[[13]],[[403]],[[9]],['low holistic'],['right'],['upright'],['U0155.bmp'],['male'],[[8]],['male'],[[1]],[[0.25059872]],JC
403,[[13]],[[404]],[[14]],['low holistic'],['left'],['inverted'],['U0228.bmp'],['male'],[[4]],['male'],[[1]],[[0.1849429]],JC
404,[[13]],[[405]],[[19]],['high holistic'],['fovea'],['inverted'],['U0361.bmp'],['female'],[[0]],['male'],[[0]],[[4.47218707]],JC
405,[[13]],[[406]],[[14]],['low holistic'],['left'],['upright'],['U0228.bmp'],['male'],[[10]],['male'],[[1]],[[0.1094945]],JC
406,[[13]],[[407]],[[18]],['high holistic'],['right'],['inverted'],['U0359.bmp'],['male'],[[2]],['male'],[[1]],[[1.11233894]],JC
407,[[13]],[[408]],[[18]],['high holistic'],['left'],['inverted'],['U0359.bmp'],['male'],[[12]],['male'],[[1]],[[0.317257]],JC
408,[[13]],[[409]],[[6]],['high holistic'],['left'],['inverted'],['U0106.bmp'],['female'],[[8]],['male'],[[0]],[[0.66321484]],JC
409,[[13]],[[410]],[[11]],['low holistic'],['left'],['inverted'],['U0164.bmp'],['female'],[[6]],['female'],[[1]],[[1.36501121]],JC
410,[[13]],[[411]],[[14]],['high holistic'],['left'],['inverted'],['U0228.bmp'],['male'],[[4]],['male'],[[1]],[[1.48532378]],JC
411,[[13]],[[412]],[[9]],['high holistic'],['fovea'],['inverted'],['U0155.bmp'],['female'],[[0]],['female'],[[1]],[[0.95574629]],JC
412,[[13]],[[413]],[[14]],['high holistic'],['right'],['inverted'],['U0228.bmp'],['male'],[[12]],['male'],[[1]],[[0.37177739]],JC
413,[[13]],[[414]],[[17]],['low holistic'],['right'],['inverted'],['U0346.bmp'],['female'],[[8]],['female'],[[1]],[[0.34681018]],JC
414,[[13]],[[415]],[[17]],['high holistic'],['left'],['inverted'],['U0346.bmp'],['male'],[[8]],['female'],[[0]],[[2.04647886]],JC
415,[[13]],[[416]],[[10]],['low holistic'],['left'],['inverted'],['U0159.bmp'],['female'],[[6]],['female'],[[1]],[[0.23681057]],JC
416,[[13]],[[417]],[[4]],['low holistic'],['right'],['upright'],['U0061.bmp'],['female'],[[4]],['female'],[[1]],[[0.03590951]],JC
417,[[13]],[[418]],[[6]],['low holistic'],['right'],['inverted'],['U0106.bmp'],['male'],[[8]],['male'],[[1]],[[0.58682942]],JC
418,[[13]],[[419]],[[1]],['high holistic'],['left'],['inverted'],['U0006.bmp'],['female'],[[4]],['female'],[[1]],[[0.80267934]],JC
419,[[13]],[[420]],[[20]],['low holistic'],['right'],['upright'],['U0362.bmp'],['male'],[[10]],['male'],[[1]],[[0.52840568]],JC
420,[[13]],[[421]],[[7]],['low holistic'],['right'],['upright'],['U0107.bmp'],['female'],[[8]],['female'],[[1]],[[0.49195943]],JC
421,[[13]],[[422]],[[16]],['low holistic'],['right'],['inverted'],['U0335.bmp'],['female'],[[12]],['female'],[[1]],[[0.3768408]],JC
422,[[13]],[[423]],[[18]],['low holistic'],['fovea'],['inverted'],['U0359.bmp'],['male'],[[0]],['male'],[[1]],[[0.24133208]],JC
423,[[13]],[[424]],[[3]],['low holistic'],['right'],['upright'],['U0020.bmp'],['female'],[[10]],['female'],[[1]],[[0.22206965]],JC
424,[[13]],[[425]],[[3]],['high holistic'],['right'],['upright'],['U0020.bmp'],['male'],[[6]],['male'],[[1]],[[0.29411479]],JC
425,[[13]],[[426]],[[18]],['low holistic'],['right'],['upright'],['U0359.bmp'],['male'],[[12]],['male'],[[1]],[[0.30590691]],JC
426,[[13]],[[427]],[[20]],['low holistic'],['right'],['upright'],['U0362.bmp'],['male'],[[6]],['male'],[[1]],[[0.2688837]],JC
427,[[13]],[[428]],[[5]],['high holistic'],['right'],['inverted'],['U0076.bmp'],['female'],[[4]],['male'],[[0]],[[0.41755823]],JC
428,[[13]],[[429]],[[19]],['high holistic'],['right'],['upright'],['U0361.bmp'],['female'],[[2]],['male'],[[0]],[[1.11976892]],JC
429,[[13]],[[430]],[[4]],['high holistic'],['left'],['inverted'],['U0061.bmp'],['female'],[[10]],['female'],[[1]],[[3.2267053]],JC
430,[[13]],[[431]],[[3]],['high holistic'],['left'],['upright'],['U0020.bmp'],['male'],[[12]],['male'],[[1]],[[0.31343032]],JC
431,[[13]],[[432]],[[8]],['low holistic'],['right'],['upright'],['U0137.bmp'],['male'],[[10]],['male'],[[1]],[[0.28431419]],JC
432,[[13]],[[433]],[[4]],['high holistic'],['fovea'],['inverted'],['U0061.bmp'],['female'],[[0]],['male'],[[0]],[[2.90432445]],JC
433,[[13]],[[434]],[[20]],['high holistic'],['left'],['upright'],['U0362.bmp'],['female'],[[8]],['female'],[[1]],[[0.77941618]],JC
434,[[13]],[[435]],[[16]],['high holistic'],['left'],['inverted'],['U0335.bmp'],['female'],[[12]],['female'],[[1]],[[0.63573254]],JC
435,[[13]],[[436]],[[11]],['high holistic'],['left'],['upright'],['U0164.bmp'],['female'],[[6]],['female'],[[1]],[[0.2359712]],JC
436,[[13]],[[437]],[[3]],['high holistic'],['left'],['upright'],['U0020.bmp'],['male'],[[10]],['male'],[[1]],[[3.24063207]],JC
437,[[13]],[[438]],[[5]],['high holistic'],['right'],['upright'],['U0076.bmp'],['female'],[[6]],['female'],[[1]],[[0.28785652]],JC
438,[[13]],[[439]],[[19]],['low holistic'],['left'],['upright'],['U0361.bmp'],['female'],[[10]],['male'],[[0]],[[0.7721067]],JC
439,[[13]],[[440]],[[15]],['high holistic'],['right'],['upright'],['U0312.bmp'],['male'],[[8]],['male'],[[1]],[[0.22092271]],JC
440,[[13]],[[441]],[[6]],['low holistic'],['left'],['inverted'],['U0106.bmp'],['male'],[[12]],['male'],[[1]],[[0.77897524]],JC
441,[[13]],[[442]],[[1]],['low holistic'],['right'],['upright'],['U0006.bmp'],['female'],[[4]],['female'],[[1]],[[0.18912738]],JC
442,[[13]],[[443]],[[20]],['high holistic'],['right'],['upright'],['U0362.bmp'],['female'],[[4]],['female'],[[1]],[[0.3084758]],JC
443,[[13]],[[444]],[[13]],['high holistic'],['right'],['upright'],['U0181.bmp'],['female'],[[4]],['female'],[[1]],[[0.12689839]],JC
444,[[13]],[[445]],[[7]],['low holistic'],['left'],['inverted'],['U0107.bmp'],['female'],[[2]],['female'],[[1]],[[0.28960505]],JC
445,[[13]],[[446]],[[14]],['high holistic'],['left'],['upright'],['U0228.bmp'],['male'],[[8]],['male'],[[1]],[[0.28452664]],JC
446,[[13]],[[447]],[[12]],['high holistic'],['right'],['upright'],['U0178.bmp'],['male'],[[8]],['male'],[[1]],[[2.13831844]],JC
447,[[13]],[[448]],[[11]],['low holistic'],['left'],['inverted'],['U0164.bmp'],['female'],[[4]],['female'],[[1]],[[4.24559746]],JC
448,[[13]],[[449]],[[15]],['low holistic'],['left'],['upright'],['U0312.bmp'],['male'],[[8]],['male'],[[1]],[[0.38628638]],JC
449,[[13]],[[450]],[[7]],['high holistic'],['right'],['inverted'],['U0107.bmp'],['female'],[[6]],['female'],[[1]],[[0.9480556]],JC
450,[[13]],[[451]],[[12]],['low holistic'],['left'],['inverted'],['U0178.bmp'],['female'],[[8]],['female'],[[1]],[[0.30923283]],JC
451,[[13]],[[452]],[[13]],['high holistic'],['fovea'],['upright'],['U0181.bmp'],['female'],[[0]],['female'],[[1]],[[0.19065488]],JC
452,[[13]],[[453]],[[10]],['low holistic'],['right'],['inverted'],['U0159.bmp'],['female'],[[12]],['female'],[[1]],[[0.631233]],JC
453,[[13]],[[454]],[[13]],['high holistic'],['fovea'],['upright'],['U0181.bmp'],['female'],[[0]],['female'],[[1]],[[1.13539092]],JC
454,[[13]],[[455]],[[18]],['low holistic'],['left'],['inverted'],['U0359.bmp'],['male'],[[4]],['male'],[[1]],[[1.07188919]],JC
455,[[13]],[[456]],[[9]],['low holistic'],['left'],['inverted'],['U0155.bmp'],['male'],[[8]],['male'],[[1]],[[0.36626188]],JC
456,[[13]],[[457]],[[1]],['high holistic'],['right'],['upright'],['U0006.bmp'],['female'],[[10]],['female'],[[1]],[[0.67865453]],JC
457,[[13]],[[458]],[[12]],['low holistic'],['left'],['inverted'],['U0178.bmp'],['female'],[[2]],['female'],[[1]],[[0.22800844]],JC
458,[[13]],[[459]],[[18]],['low holistic'],['left'],['inverted'],['U0359.bmp'],['male'],[[12]],['male'],[[1]],[[0.24287014]],JC
459,[[13]],[[460]],[[19]],['high holistic'],['right'],['upright'],['U0361.bmp'],['female'],[[12]],['male'],[[0]],[[2.17547416]],JC
460,[[13]],[[461]],[[6]],['high holistic'],['fovea'],['upright'],['U0106.bmp'],['female'],[[0]],['female'],[[1]],[[0.42569842]],JC
461,[[13]],[[462]],[[18]],['high holistic'],['left'],['inverted'],['U0359.bmp'],['male'],[[10]],['male'],[[1]],[[0.67193677]],JC
462,[[13]],[[463]],[[6]],['high holistic'],['left'],['inverted'],['U0106.bmp'],['female'],[[4]],['male'],[[0]],[[0.48276915]],JC
463,[[13]],[[464]],[[19]],['high holistic'],['right'],['upright'],['U0361.bmp'],['female'],[[12]],['female'],[[1]],[[1.13604893]],JC
464,[[13]],[[465]],[[5]],['high holistic'],['left'],['inverted'],['U0076.bmp'],['female'],[[6]],['male'],[[0]],[[1.37139054]],JC
465,[[13]],[[466]],[[2]],['high holistic'],['fovea'],['inverted'],['U0014.bmp'],['male'],[[0]],['male'],[[1]],[[0.609576]],JC
466,[[13]],[[467]],[[1]],['low holistic'],['left'],['inverted'],['U0006.bmp'],['female'],[[10]],['female'],[[1]],[[0.27446487]],JC
467,[[13]],[[468]],[[1]],['high holistic'],['right'],['upright'],['U0006.bmp'],['female'],[[12]],['female'],[[1]],[[0.40663604]],JC
468,[[13]],[[469]],[[7]],['low holistic'],['left'],['inverted'],['U0107.bmp'],['female'],[[8]],['female'],[[1]],[[0.44608215]],JC
469,[[13]],[[470]],[[17]],['high holistic'],['left'],['upright'],['U0346.bmp'],['male'],[[4]],['male'],[[1]],[[0.41960525]],JC
470,[[13]],[[471]],[[17]],['high holistic'],['left'],['inverted'],['U0346.bmp'],['male'],[[6]],['male'],[[1]],[[0.12247337]],JC
471,[[13]],[[472]],[[15]],['low holistic'],['right'],['upright'],['U0312.bmp'],['male'],[[12]],['male'],[[1]],[[0.37354036]],JC
472,[[13]],[[473]],[[6]],['low holistic'],['right'],['upright'],['U0106.bmp'],['male'],[[2]],['male'],[[1]],[[0.80618963]],JC
473,[[13]],[[474]],[[9]],['low holistic'],['right'],['inverted'],['U0155.bmp'],['male'],[[8]],['male'],[[1]],[[0.542443]],JC
474,[[13]],[[475]],[[10]],['low holistic'],['right'],['inverted'],['U0159.bmp'],['female'],[[12]],['female'],[[1]],[[0.30337389]],JC
475,[[13]],[[476]],[[9]],['high holistic'],['left'],['inverted'],['U0155.bmp'],['female'],[[12]],['female'],[[1]],[[0.37908389]],JC
476,[[13]],[[477]],[[8]],['high holistic'],['right'],['upright'],['U0137.bmp'],['female'],[[8]],['male'],[[0]],[[2.44349307]],JC
477,[[13]],[[478]],[[15]],['low holistic'],['fovea'],['upright'],['U0312.bmp'],['male'],[[0]],['male'],[[1]],[[0.31325314]],JC
478,[[13]],[[479]],[[1]],['high holistic'],['left'],['upright'],['U0006.bmp'],['female'],[[8]],['female'],[[1]],[[0.30871387]],JC
479,[[13]],[[480]],[[6]],['low holistic'],['fovea'],['inverted'],['U0106.bmp'],['male'],[[0]],['male'],[[1]],[[0.74297067]],JC
480,[[13]],[[481]],[[20]],['low holistic'],['right'],['inverted'],['U0362.bmp'],['male'],[[12]],['male'],[[1]],[[0.54710197]],JC
481,[[13]],[[482]],[[14]],['low holistic'],['right'],['inverted'],['U0228.bmp'],['male'],[[12]],['male'],[[1]],[[0.46713009]],JC
482,[[13]],[[483]],[[9]],['high holistic'],['right'],['inverted'],['U0155.bmp'],['female'],[[6]],['male'],[[0]],[[2.53621218]],JC
483,[[13]],[[484]],[[17]],['low holistic'],['right'],['upright'],['U0346.bmp'],['female'],[[2]],['female'],[[1]],[[0.31416007]],JC
484,[[13]],[[485]],[[11]],['low holistic'],['left'],['upright'],['U0164.bmp'],['female'],[[12]],['female'],[[1]],[[1.5500754]],JC
485,[[13]],[[486]],[[1]],['high holistic'],['right'],['upright'],['U0006.bmp'],['female'],[[2]],['female'],[[1]],[[0.51831708]],JC
486,[[13]],[[487]],[[6]],['high holistic'],['right'],['inverted'],['U0106.bmp'],['female'],[[10]],['female'],[[1]],[[0.89837449]],JC
487,[[13]],[[488]],[[18]],['high holistic'],['right'],['upright'],['U0359.bmp'],['male'],[[10]],['male'],[[1]],[[0.14951571]],JC
488,[[13]],[[489]],[[20]],['high holistic'],['left'],['inverted'],['U0362.bmp'],['female'],[[6]],['male'],[[0]],[[0.23829082]],JC
489,[[13]],[[490]],[[19]],['low holistic'],['left'],['inverted'],['U0361.bmp'],['female'],[[2]],['female'],[[1]],[[0.6924296]],JC
490,[[13]],[[491]],[[5]],['high holistic'],['left'],['upright'],['U0076.bmp'],['female'],[[8]],['female'],[[1]],[[0.3610078]],JC
491,[[13]],[[492]],[[19]],['low holistic'],['left'],['inverted'],['U0361.bmp'],['female'],[[12]],['female'],[[1]],[[0.14671987]],JC
492,[[13]],[[493]],[[11]],['high holistic'],['left'],['inverted'],['U0164.bmp'],['female'],[[2]],['male'],[[0]],[[0.77348974]],JC
493,[[13]],[[494]],[[10]],['low holistic'],['right'],['inverted'],['U0159.bmp'],['female'],[[6]],['female'],[[1]],[[0.84569239]],JC
494,[[13]],[[495]],[[18]],['low holistic'],['left'],['upright'],['U0359.bmp'],['male'],[[10]],['male'],[[1]],[[0.37043696]],JC
495,[[13]],[[496]],[[4]],['low holistic'],['right'],['inverted'],['U0061.bmp'],['female'],[[2]],['female'],[[1]],[[0.16300481]],JC
496,[[13]],[[497]],[[15]],['low holistic'],['right'],['upright'],['U0312.bmp'],['male'],[[2]],['male'],[[1]],[[0.05408705]],JC
497,[[13]],[[498]],[[3]],['low holistic'],['right'],['inverted'],['U0020.bmp'],['female'],[[12]],['female'],[[1]],[[0.21063802]],JC
498,[[13]],[[499]],[[6]],['low holistic'],['left'],['inverted'],['U0106.bmp'],['male'],[[8]],['female'],[[0]],[[3.62756355]],JC
499,[[13]],[[500]],[[1]],['high holistic'],['right'],['inverted'],['U0006.bmp'],['female'],[[2]],['female'],[[1]],[[0.40079464]],JC
500,[[13]],[[501]],[[20]],['low holistic'],['left'],['inverted'],['U0362.bmp'],['male'],[[12]],['male'],[[1]],[[0.26496565]],JC
501,[[13]],[[502]],[[14]],['low holistic'],['right'],['inverted'],['U0228.bmp'],['male'],[[8]],['male'],[[1]],[[0.4610961]],JC
502,[[13]],[[503]],[[5]],['low holistic'],['right'],['inverted'],['U0076.bmp'],['male'],[[8]],['male'],[[1]],[[0.32345311]],JC
503,[[13]],[[504]],[[2]],['high holistic'],['left'],['upright'],['U0014.bmp'],['male'],[[10]],['male'],[[1]],[[0.1829404]],JC
504,[[13]],[[505]],[[1]],['high holistic'],['left'],['upright'],['U0006.bmp'],['female'],[[6]],['female'],[[1]],[[0.15771761]],JC
505,[[13]],[[506]],[[10]],['low holistic'],['left'],['inverted'],['U0159.bmp'],['female'],[[8]],['female'],[[1]],[[0.12705193]],JC
506,[[13]],[[507]],[[13]],['high holistic'],['left'],['inverted'],['U0181.bmp'],['female'],[[8]],['female'],[[1]],[[0.15376068]],JC
507,[[13]],[[508]],[[13]],['high holistic'],['left'],['upright'],['U0181.bmp'],['female'],[[10]],['female'],[[1]],[[0.32425243]],JC
508,[[13]],[[509]],[[6]],['high holistic'],['left'],['inverted'],['U0106.bmp'],['female'],[[8]],['female'],[[1]],[[0.59014123]],JC
509,[[13]],[[510]],[[12]],['low holistic'],['right'],['upright'],['U0178.bmp'],['female'],[[2]],['female'],[[1]],[[0.64525069]],JC
510,[[13]],[[511]],[[19]],['high holistic'],['left'],['inverted'],['U0361.bmp'],['female'],[[8]],['female'],[[1]],[[0.85240608]],JC
511,[[13]],[[512]],[[20]],['low holistic'],['left'],['upright'],['U0362.bmp'],['male'],[[6]],['male'],[[1]],[[0.31484556]],JC
512,[[13]],[[513]],[[16]],['high holistic'],['right'],['inverted'],['U0335.bmp'],['female'],[[6]],['female'],[[1]],[[0.60355583]],JC
513,[[13]],[[514]],[[8]],['high holistic'],['right'],['inverted'],['U0137.bmp'],['female'],[[6]],['female'],[[1]],[[2.9638402]],JC
514,[[13]],[[515]],[[4]],['high holistic'],['left'],['upright'],['U0061.bmp'],['female'],[[6]],['female'],[[1]],[[0.37332947]],JC
515,[[13]],[[516]],[[10]],['low holistic'],['left'],['upright'],['U0159.bmp'],['female'],[[12]],['female'],[[1]],[[0.27658156]],JC
516,[[13]],[[517]],[[3]],['high holistic'],['left'],['upright'],['U0020.bmp'],['male'],[[6]],['male'],[[1]],[[0.12812313]],JC
517,[[13]],[[518]],[[17]],['low holistic'],['left'],['inverted'],['U0346.bmp'],['female'],[[4]],['female'],[[1]],[[0.30192354]],JC
518,[[13]],[[519]],[[16]],['low holistic'],['right'],['inverted'],['U0335.bmp'],['female'],[[2]],['female'],[[1]],[[0.21551207]],JC
519,[[13]],[[520]],[[6]],['high holistic'],['left'],['inverted'],['U0106.bmp'],['female'],[[10]],['male'],[[0]],[[2.74228922]],JC
520,[[13]],[[521]],[[5]],['low holistic'],['right'],['upright'],['U0076.bmp'],['male'],[[8]],['male'],[[1]],[[2.72758323]],JC
521,[[13]],[[522]],[[8]],['high holistic'],['left'],['upright'],['U0137.bmp'],['female'],[[4]],['female'],[[1]],[[0.96232645]],JC
522,[[13]],[[523]],[[4]],['low holistic'],['right'],['inverted'],['U0061.bmp'],['female'],[[4]],['female'],[[1]],[[0.53149617]],JC
523,[[13]],[[524]],[[14]],['high holistic'],['right'],['upright'],['U0228.bmp'],['male'],[[4]],['male'],[[1]],[[0.67742139]],JC
524,[[13]],[[525]],[[1]],['low holistic'],['left'],['upright'],['U0006.bmp'],['female'],[[6]],['female'],[[1]],[[0.34525156]],JC
525,[[13]],[[526]],[[20]],['high holistic'],['right'],['upright'],['U0362.bmp'],['female'],[[4]],['female'],[[1]],[[1.40435544]],JC
526,[[13]],[[527]],[[8]],['high holistic'],['right'],['inverted'],['U0137.bmp'],['female'],[[6]],['female'],[[1]],[[0.81044799]],JC
527,[[13]],[[528]],[[4]],['high holistic'],['right'],['inverted'],['U0061.bmp'],['female'],[[2]],['female'],[[1]],[[0.38661439]],JC
528,[[13]],[[529]],[[7]],['low holistic'],['left'],['upright'],['U0107.bmp'],['female'],[[10]],['female'],[[1]],[[0.1380525]],JC
529,[[13]],[[530]],[[6]],['low holistic'],['fovea'],['inverted'],['U0106.bmp'],['male'],[[0]],['male'],[[1]],[[0.71741502]],JC
530,[[13]],[[531]],[[17]],['low holistic'],['right'],['inverted'],['U0346.bmp'],['female'],[[12]],['female'],[[1]],[[0.67879102]],JC
531,[[13]],[[532]],[[3]],['low holistic'],['right'],['upright'],['U0020.bmp'],['female'],[[12]],['female'],[[1]],[[0.36333399]],JC
532,[[13]],[[533]],[[4]],['high holistic'],['left'],['inverted'],['U0061.bmp'],['female'],[[6]],['female'],[[1]],[[0.33192037]],JC
533,[[13]],[[534]],[[6]],['low holistic'],['fovea'],['upright'],['U0106.bmp'],['male'],[[0]],['male'],[[1]],[[0.76835654]],JC
534,[[13]],[[535]],[[15]],['high holistic'],['right'],['inverted'],['U0312.bmp'],['male'],[[10]],['male'],[[1]],[[0.5057467]],JC
535,[[13]],[[536]],[[1]],['low holistic'],['left'],['inverted'],['U0006.bmp'],['female'],[[4]],['female'],[[1]],[[0.82732669]],JC
536,[[13]],[[537]],[[20]],['high holistic'],['left'],['upright'],['U0362.bmp'],['female'],[[10]],['female'],[[1]],[[0.72349913]],JC
537,[[13]],[[538]],[[4]],['low holistic'],['left'],['upright'],['U0061.bmp'],['female'],[[4]],['female'],[[1]],[[2.78975399]],JC
538,[[13]],[[539]],[[8]],['low holistic'],['left'],['upright'],['U0137.bmp'],['male'],[[8]],['male'],[[1]],[[0.37193359]],JC
539,[[13]],[[540]],[[16]],['low holistic'],['left'],['upright'],['U0335.bmp'],['female'],[[12]],['female'],[[1]],[[0.43739626]],JC
540,[[13]],[[541]],[[17]],['low holistic'],['right'],['upright'],['U0346.bmp'],['female'],[[6]],['female'],[[1]],[[3.35493629]],JC
541,[[13]],[[542]],[[17]],['low holistic'],['left'],['inverted'],['U0346.bmp'],['female'],[[8]],['female'],[[1]],[[0.34991217]],JC
542,[[13]],[[543]],[[19]],['high holistic'],['right'],['upright'],['U0361.bmp'],['female'],[[8]],['female'],[[1]],[[2.16719235]],JC
543,[[13]],[[544]],[[16]],['low holistic'],['fovea'],['upright'],['U0335.bmp'],['female'],[[0]],['female'],[[1]],[[1.42312128]],JC
544,[[13]],[[545]],[[7]],['high holistic'],['right'],['inverted'],['U0107.bmp'],['female'],[[12]],['female'],[[1]],[[2.95059071]],JC
545,[[13]],[[546]],[[1]],['low holistic'],['right'],['upright'],['U0006.bmp'],['female'],[[4]],['female'],[[1]],[[0.04671392]],JC
546,[[13]],[[547]],[[10]],['high holistic'],['right'],['upright'],['U0159.bmp'],['male'],[[2]],['male'],[[1]],[[0.50010233]],JC
547,[[13]],[[548]],[[19]],['low holistic'],['right'],['upright'],['U0361.bmp'],['female'],[[6]],['female'],[[1]],[[0.32022183]],JC
548,[[13]],[[549]],[[10]],['high holistic'],['left'],['upright'],['U0159.bmp'],['male'],[[6]],['male'],[[1]],[[0.41882122]],JC
549,[[13]],[[550]],[[9]],['low holistic'],['fovea'],['inverted'],['U0155.bmp'],['male'],[[0]],['male'],[[1]],[[0.20208489]],JC
550,[[13]],[[551]],[[8]],['low holistic'],['left'],['inverted'],['U0137.bmp'],['male'],[[8]],['male'],[[1]],[[0.39401896]],JC
551,[[13]],[[552]],[[14]],['low holistic'],['right'],['upright'],['U0228.bmp'],['male'],[[12]],['male'],[[1]],[[0.00022734]],JC
552,[[13]],[[553]],[[12]],['low holistic'],['right'],['inverted'],['U0178.bmp'],['female'],[[2]],['female'],[[1]],[[0.21140497]],JC
553,[[13]],[[554]],[[14]],['high holistic'],['left'],['upright'],['U0228.bmp'],['male'],[[4]],['male'],[[1]],[[0.34444557]],JC
554,[[13]],[[555]],[[3]],['low holistic'],['left'],['upright'],['U0020.bmp'],['female'],[[10]],['female'],[[1]],[[0.35477079]],JC
555,[[13]],[[556]],[[9]],['low holistic'],['right'],['inverted'],['U0155.bmp'],['male'],[[4]],['male'],[[1]],[[0.45194418]],JC
556,[[13]],[[557]],[[3]],['low holistic'],['right'],['inverted'],['U0020.bmp'],['female'],[[6]],['female'],[[1]],[[0.86696851]],JC
557,[[13]],[[558]],[[20]],['high holistic'],['right'],['inverted'],['U0362.bmp'],['female'],[[2]],['male'],[[0]],[[1.52061723]],JC
558,[[13]],[[559]],[[7]],['high holistic'],['left'],['inverted'],['U0107.bmp'],['female'],[[2]],['male'],[[0]],[[0.49751207]],JC
559,[[13]],[[560]],[[3]],['high holistic'],['left'],['upright'],['U0020.bmp'],['male'],[[4]],['male'],[[1]],[[0.30305037]],JC
560,[[13]],[[561]],[[1]],['high holistic'],['right'],['upright'],['U0006.bmp'],['female'],[[12]],['female'],[[1]],[[0.41000588]],JC
561,[[13]],[[562]],[[11]],['low holistic'],['fovea'],['upright'],['U0164.bmp'],['female'],[[0]],['female'],[[1]],[[1.63967932]],JC
562,[[13]],[[563]],[[18]],['high holistic'],['fovea'],['inverted'],['U0359.bmp'],['male'],[[0]],['male'],[[1]],[[0.32584479]],JC
563,[[13]],[[564]],[[17]],['low holistic'],['right'],['upright'],['U0346.bmp'],['female'],[[12]],['female'],[[1]],[[0.26425487]],JC
564,[[13]],[[565]],[[5]],['high holistic'],['left'],['upright'],['U0076.bmp'],['female'],[[8]],['female'],[[1]],[[0.45445302]],JC
565,[[13]],[[566]],[[11]],['low holistic'],['right'],['inverted'],['U0164.bmp'],['female'],[[6]],['female'],[[1]],[[1.61934594]],JC
566,[[13]],[[567]],[[6]],['high holistic'],['right'],['upright'],['U0106.bmp'],['female'],[[8]],['female'],[[1]],[[0.43510915]],JC
567,[[13]],[[568]],[[7]],['low holistic'],['left'],['inverted'],['U0107.bmp'],['female'],[[6]],['female'],[[1]],[[0.86455062]],JC
568,[[13]],[[569]],[[16]],['low holistic'],['left'],['upright'],['U0335.bmp'],['female'],[[12]],['female'],[[1]],[[0.17284262]],JC
569,[[13]],[[570]],[[11]],['high holistic'],['right'],['inverted'],['U0164.bmp'],['female'],[[10]],['male'],[[0]],[[0.7103065]],JC
570,[[13]],[[571]],[[19]],['low holistic'],['right'],['inverted'],['U0361.bmp'],['female'],[[8]],['female'],[[1]],[[0.57598352]],JC
571,[[13]],[[572]],[[12]],['high holistic'],['right'],['inverted'],['U0178.bmp'],['male'],[[12]],['female'],[[0]],[[0.6417817]],JC
572,[[13]],[[573]],[[8]],['low holistic'],['right'],['inverted'],['U0137.bmp'],['male'],[[12]],['male'],[[1]],[[0.3367615]],JC
573,[[13]],[[574]],[[11]],['high holistic'],['left'],['inverted'],['U0164.bmp'],['female'],[[8]],['female'],[[1]],[[1.24267848]],JC
574,[[13]],[[575]],[[17]],['low holistic'],['right'],['upright'],['U0346.bmp'],['female'],[[12]],['female'],[[1]],[[0.46552102]],JC
575,[[13]],[[576]],[[1]],['high holistic'],['right'],['inverted'],['U0006.bmp'],['female'],[[6]],['female'],[[1]],[[0.2219368]],JC
576,[[13]],[[577]],[[15]],['low holistic'],['right'],['inverted'],['U0312.bmp'],['male'],[[2]],['male'],[[1]],[[0.42149589]],JC
577,[[13]],[[578]],[[14]],['low holistic'],['left'],['inverted'],['U0228.bmp'],['male'],[[2]],['male'],[[1]],[[0.39441878]],JC
578,[[13]],[[579]],[[19]],['high holistic'],['left'],['upright'],['U0361.bmp'],['female'],[[12]],['female'],[[1]],[[2.1233337]],JC
579,[[13]],[[580]],[[18]],['high holistic'],['left'],['inverted'],['U0359.bmp'],['male'],[[2]],['male'],[[1]],[[1.95010662]],JC
580,[[13]],[[581]],[[6]],['high holistic'],['right'],['inverted'],['U0106.bmp'],['female'],[[12]],['male'],[[0]],[[0.63989363]],JC
581,[[13]],[[582]],[[7]],['low holistic'],['right'],['inverted'],['U0107.bmp'],['female'],[[6]],['female'],[[1]],[[0.34184351]],JC
582,[[13]],[[583]],[[13]],['low holistic'],['right'],['upright'],['U0181.bmp'],['male'],[[8]],['male'],[[1]],[[2.5757197]],JC
583,[[13]],[[584]],[[3]],['high holistic'],['right'],['inverted'],['U0020.bmp'],['male'],[[2]],['male'],[[1]],[[0.52754664]],JC
584,[[13]],[[585]],[[3]],['low holistic'],['left'],['upright'],['U0020.bmp'],['female'],[[2]],['female'],[[1]],[[0.06758338]],JC
585,[[13]],[[586]],[[9]],['high holistic'],['right'],['inverted'],['U0155.bmp'],['female'],[[4]],['male'],[[0]],[[1.16689157]],JC
586,[[13]],[[587]],[[16]],['low holistic'],['left'],['upright'],['U0335.bmp'],['female'],[[12]],['female'],[[1]],[[0.20956395]],JC
587,[[13]],[[588]],[[3]],['high holistic'],['left'],['inverted'],['U0020.bmp'],['male'],[[12]],['male'],[[1]],[[0.69642862]],JC
588,[[13]],[[589]],[[1]],['low holistic'],['right'],['inverted'],['U0006.bmp'],['female'],[[10]],['female'],[[1]],[[0.37068377]],JC
589,[[13]],[[590]],[[9]],['low holistic'],['right'],['inverted'],['U0155.bmp'],['male'],[[6]],['male'],[[1]],[[0.44393147]],JC
590,[[13]],[[591]],[[1]],['high holistic'],['right'],['upright'],['U0006.bmp'],['female'],[[10]],['female'],[[1]],[[0.35378782]],JC
591,[[13]],[[592]],[[4]],['low holistic'],['right'],['upright'],['U0061.bmp'],['female'],[[6]],['female'],[[1]],[[0.31606589]],JC
592,[[13]],[[593]],[[17]],['low holistic'],['right'],['upright'],['U0346.bmp'],['female'],[[12]],['female'],[[1]],[[0.38296871]],JC
593,[[13]],[[594]],[[13]],['low holistic'],['right'],['upright'],['U0181.bmp'],['male'],[[2]],['male'],[[1]],[[0.70319951]],JC
594,[[13]],[[595]],[[19]],['high holistic'],['left'],['upright'],['U0361.bmp'],['female'],[[4]],['female'],[[1]],[[1.12274419]],JC
595,[[13]],[[596]],[[20]],['low holistic'],['right'],['upright'],['U0362.bmp'],['male'],[[4]],['male'],[[1]],[[0.62168534]],JC
596,[[13]],[[597]],[[2]],['low holistic'],['fovea'],['upright'],['U0014.bmp'],['male'],[[0]],['male'],[[1]],[[0.27529794]],JC
597,[[13]],[[598]],[[6]],['high holistic'],['left'],['inverted'],['U0106.bmp'],['female'],[[10]],['male'],[[0]],[[0.78509064]],JC
598,[[13]],[[599]],[[1]],['high holistic'],['left'],['upright'],['U0006.bmp'],['female'],[[8]],['female'],[[1]],[[1.23239519]],JC
599,[[13]],[[600]],[[12]],['low holistic'],['right'],['inverted'],['U0178.bmp'],['female'],[[2]],['female'],[[1]],[[0.17633475]],JC
600,[[13]],[[601]],[[12]],['low holistic'],['left'],['upright'],['U0178.bmp'],['female'],[[4]],['female'],[[1]],[[0.00036802]],JC
601,[[13]],[[602]],[[15]],['high holistic'],['right'],['inverted'],['U0312.bmp'],['male'],[[4]],['male'],[[1]],[[0.68089492]],JC
602,[[13]],[[603]],[[12]],['low holistic'],['left'],['inverted'],['U0178.bmp'],['female'],[[10]],['female'],[[1]],[[3.66884404]],JC
603,[[13]],[[604]],[[12]],['high holistic'],['left'],['upright'],['U0178.bmp'],['male'],[[6]],['male'],[[1]],[[0.26439873]],JC
604,[[13]],[[605]],[[5]],['low holistic'],['left'],['inverted'],['U0076.bmp'],['male'],[[8]],['male'],[[1]],[[1.92711517]],JC
605,[[13]],[[606]],[[10]],['high holistic'],['right'],['upright'],['U0159.bmp'],['male'],[[12]],['male'],[[1]],[[0.43951201]],JC
606,[[13]],[[607]],[[11]],['high holistic'],['left'],['inverted'],['U0164.bmp'],['female'],[[12]],['male'],[[0]],[[0.46179134]],JC
607,[[13]],[[608]],[[18]],['low holistic'],['left'],['inverted'],['U0359.bmp'],['male'],[[10]],['male'],[[1]],[[0.94672779]],JC
608,[[13]],[[609]],[[20]],['high holistic'],['right'],['upright'],['U0362.bmp'],['female'],[[8]],['male'],[[0]],[[3.05256765]],JC
609,[[13]],[[610]],[[8]],['low holistic'],['left'],['upright'],['U0137.bmp'],['male'],[[8]],['male'],[[1]],[[0.20179441]],JC
610,[[13]],[[611]],[[15]],['low holistic'],['right'],['upright'],['U0312.bmp'],['male'],[[4]],['male'],[[1]],[[0.24966556]],JC
611,[[13]],[[612]],[[13]],['high holistic'],['fovea'],['upright'],['U0181.bmp'],['female'],[[0]],['female'],[[1]],[[0.28867731]],JC
612,[[13]],[[613]],[[19]],['low holistic'],['fovea'],['inverted'],['U0361.bmp'],['female'],[[0]],['female'],[[1]],[[0.34007434]],JC
613,[[13]],[[614]],[[14]],['high holistic'],['right'],['inverted'],['U0228.bmp'],['male'],[[12]],['male'],[[1]],[[0.38974127]],JC
614,[[13]],[[615]],[[5]],['high holistic'],['left'],['inverted'],['U0076.bmp'],['female'],[[10]],['male'],[[0]],[[0.47022261]],JC
615,[[13]],[[616]],[[3]],['low holistic'],['left'],['upright'],['U0020.bmp'],['female'],[[6]],['female'],[[1]],[[0.36372413]],JC
616,[[13]],[[617]],[[10]],['low holistic'],['right'],['upright'],['U0159.bmp'],['female'],[[2]],['female'],[[1]],[[0.25315727]],JC
617,[[13]],[[618]],[[15]],['high holistic'],['fovea'],['inverted'],['U0312.bmp'],['male'],[[0]],['female'],[[0]],[[0.15395014]],JC
618,[[13]],[[619]],[[6]],['high holistic'],['right'],['inverted'],['U0106.bmp'],['female'],[[10]],['male'],[[0]],[[0.54687649]],JC
619,[[13]],[[620]],[[9]],['high holistic'],['left'],['upright'],['U0155.bmp'],['female'],[[2]],['female'],[[1]],[[0.58990614]],JC
620,[[13]],[[621]],[[15]],['high holistic'],['right'],['upright'],['U0312.bmp'],['male'],[[10]],['male'],[[1]],[[0.18109864]],JC
621,[[13]],[[622]],[[14]],['high holistic'],['right'],['inverted'],['U0228.bmp'],['male'],[[4]],['male'],[[1]],[[0.34873489]],JC
622,[[13]],[[623]],[[7]],['high holistic'],['right'],['upright'],['U0107.bmp'],['female'],[[2]],['male'],[[0]],[[0.77583581]],JC
623,[[13]],[[624]],[[17]],['low holistic'],['right'],['upright'],['U0346.bmp'],['female'],[[8]],['female'],[[1]],[[0.41609163]],JC
624,[[13]],[[625]],[[5]],['high holistic'],['right'],['inverted'],['U0076.bmp'],['female'],[[4]],['male'],[[0]],[[1.31887928]],JC
625,[[13]],[[626]],[[17]],['high holistic'],['left'],['upright'],['U0346.bmp'],['male'],[[4]],['male'],[[1]],[[0.3783077]],JC
626,[[13]],[[627]],[[18]],['low holistic'],['right'],['inverted'],['U0359.bmp'],['male'],[[8]],['male'],[[1]],[[0.30555808]],JC
627,[[13]],[[628]],[[7]],['high holistic'],['right'],['upright'],['U0107.bmp'],['female'],[[10]],['female'],[[1]],[[1.50249669]],JC
628,[[13]],[[629]],[[20]],['high holistic'],['right'],['inverted'],['U0362.bmp'],['female'],[[6]],['male'],[[0]],[[1.04752654]],JC
629,[[13]],[[630]],[[6]],['high holistic'],['left'],['inverted'],['U0106.bmp'],['female'],[[6]],['male'],[[0]],[[0.59722636]],JC
630,[[13]],[[631]],[[10]],['low holistic'],['left'],['upright'],['U0159.bmp'],['female'],[[2]],['female'],[[1]],[[0.33361894]],JC
631,[[13]],[[632]],[[3]],['high holistic'],['right'],['inverted'],['U0020.bmp'],['male'],[[4]],['male'],[[1]],[[0.63166305]],JC
632,[[13]],[[633]],[[11]],['low holistic'],['left'],['upright'],['U0164.bmp'],['female'],[[10]],['female'],[[1]],[[1.60710707]],JC
633,[[13]],[[634]],[[20]],['high holistic'],['fovea'],['inverted'],['U0362.bmp'],['female'],[[0]],['male'],[[0]],[[0.31717232]],JC
634,[[13]],[[635]],[[8]],['low holistic'],['right'],['inverted'],['U0137.bmp'],['male'],[[6]],['male'],[[1]],[[0.56191614]],JC
635,[[13]],[[636]],[[1]],['low holistic'],['left'],['inverted'],['U0006.bmp'],['female'],[[6]],['female'],[[1]],[[1.13831546]],JC
636,[[13]],[[637]],[[19]],['low holistic'],['right'],['inverted'],['U0361.bmp'],['female'],[[4]],['female'],[[1]],[[0.30776611]],JC
637,[[13]],[[638]],[[7]],['high holistic'],['right'],['upright'],['U0107.bmp'],['female'],[[6]],['female'],[[1]],[[3.35098118]],JC
638,[[13]],[[639]],[[14]],['high holistic'],['fovea'],['upright'],['U0228.bmp'],['male'],[[0]],['male'],[[1]],[[0.06539924]],JC
639,[[13]],[[640]],[[9]],['high holistic'],['right'],['inverted'],['U0155.bmp'],['female'],[[10]],['male'],[[0]],[[1.42120489]],JC
640,[[13]],[[641]],[[6]],['low holistic'],['left'],['upright'],['U0106.bmp'],['male'],[[12]],['male'],[[1]],[[0.37358344]],JC
641,[[13]],[[642]],[[9]],['high holistic'],['right'],['upright'],['U0155.bmp'],['female'],[[8]],['female'],[[1]],[[0.4387331]],JC
642,[[13]],[[643]],[[16]],['low holistic'],['left'],['inverted'],['U0335.bmp'],['female'],[[2]],['female'],[[1]],[[0.28247282]],JC
643,[[13]],[[644]],[[5]],['low holistic'],['left'],['inverted'],['U0076.bmp'],['male'],[[6]],['male'],[[1]],[[0.32692274]],JC
644,[[13]],[[645]],[[12]],['high holistic'],['left'],['upright'],['U0178.bmp'],['male'],[[8]],['male'],[[1]],[[1.0096578]],JC
645,[[13]],[[646]],[[17]],['low holistic'],['right'],['inverted'],['U0346.bmp'],['female'],[[4]],['female'],[[1]],[[0.60940649]],JC
646,[[13]],[[647]],[[2]],['low holistic'],['right'],['upright'],['U0014.bmp'],['male'],[[2]],['male'],[[1]],[[0.35258921]],JC
647,[[13]],[[648]],[[18]],['low holistic'],['right'],['upright'],['U0359.bmp'],['male'],[[2]],['male'],[[1]],[[0.24233675]],JC
648,[[13]],[[649]],[[1]],['low holistic'],['left'],['upright'],['U0006.bmp'],['female'],[[6]],['female'],[[1]],[[0.06581137]],JC
649,[[13]],[[650]],[[7]],['low holistic'],['right'],['upright'],['U0107.bmp'],['female'],[[2]],['female'],[[1]],[[0.11003379]],JC
650,[[13]],[[651]],[[18]],['low holistic'],['left'],['upright'],['U0359.bmp'],['male'],[[2]],['male'],[[1]],[[0.37542669]],JC
651,[[13]],[[652]],[[9]],['high holistic'],['fovea'],['upright'],['U0155.bmp'],['female'],[[0]],['female'],[[1]],[[0.07079432]],JC
652,[[13]],[[653]],[[14]],['low holistic'],['left'],['inverted'],['U0228.bmp'],['male'],[[2]],['male'],[[1]],[[0.16464894]],JC
653,[[13]],[[654]],[[18]],['low holistic'],['right'],['upright'],['U0359.bmp'],['male'],[[2]],['female'],[[0]],[[0.00012436]],JC
654,[[13]],[[655]],[[15]],['high holistic'],['left'],['upright'],['U0312.bmp'],['male'],[[12]],['male'],[[1]],[[0.5003138]],JC
655,[[13]],[[656]],[[15]],['high holistic'],['left'],['inverted'],['U0312.bmp'],['male'],[[8]],['male'],[[1]],[[1.74310158]],JC
656,[[13]],[[657]],[[8]],['low holistic'],['right'],['upright'],['U0137.bmp'],['male'],[[12]],['male'],[[1]],[[0.16128452]],JC
657,[[13]],[[658]],[[13]],['low holistic'],['left'],['inverted'],['U0181.bmp'],['male'],[[12]],['male'],[[1]],[[0.13818621]],JC
658,[[13]],[[659]],[[15]],['high holistic'],['left'],['inverted'],['U0312.bmp'],['male'],[[4]],['male'],[[1]],[[9.86233354e-05]],JC
659,[[13]],[[660]],[[8]],['high holistic'],['right'],['inverted'],['U0137.bmp'],['female'],[[8]],['female'],[[1]],[[2.293439]],JC
660,[[13]],[[661]],[[4]],['high holistic'],['right'],['upright'],['U0061.bmp'],['female'],[[10]],['female'],[[1]],[[0.30552947]],JC
661,[[13]],[[662]],[[16]],['low holistic'],['fovea'],['upright'],['U0335.bmp'],['female'],[[0]],['female'],[[1]],[[0.18723855]],JC
662,[[13]],[[663]],[[4]],['low holistic'],['right'],['upright'],['U0061.bmp'],['female'],[[12]],['female'],[[1]],[[0.22021854]],JC
663,[[13]],[[664]],[[17]],['high holistic'],['fovea'],['upright'],['U0346.bmp'],['male'],[[0]],['male'],[[1]],[[0.18654723]],JC
664,[[13]],[[665]],[[19]],['high holistic'],['right'],['upright'],['U0361.bmp'],['female'],[[10]],['male'],[[0]],[[0.64279503]],JC
665,[[13]],[[666]],[[4]],['low holistic'],['right'],['inverted'],['U0061.bmp'],['female'],[[4]],['female'],[[1]],[[0.33670645]],JC
666,[[13]],[[667]],[[15]],['high holistic'],['left'],['inverted'],['U0312.bmp'],['male'],[[2]],['male'],[[1]],[[0.65052685]],JC
667,[[13]],[[668]],[[17]],['high holistic'],['left'],['inverted'],['U0346.bmp'],['male'],[[4]],['female'],[[0]],[[2.59386647]],JC
668,[[13]],[[669]],[[7]],['high holistic'],['right'],['upright'],['U0107.bmp'],['female'],[[6]],['female'],[[1]],[[0.60048862]],JC
669,[[13]],[[670]],[[15]],['high holistic'],['right'],['upright'],['U0312.bmp'],['male'],[[4]],['male'],[[1]],[[0.3918445]],JC
670,[[13]],[[671]],[[5]],['high holistic'],['left'],['upright'],['U0076.bmp'],['female'],[[8]],['female'],[[1]],[[2.240012]],JC
671,[[13]],[[672]],[[19]],['low holistic'],['right'],['inverted'],['U0361.bmp'],['female'],[[12]],['female'],[[1]],[[0.52608752]],JC
672,[[13]],[[673]],[[17]],['high holistic'],['left'],['inverted'],['U0346.bmp'],['male'],[[4]],['female'],[[0]],[[0.40864706]],JC
673,[[13]],[[674]],[[4]],['low holistic'],['left'],['inverted'],['U0061.bmp'],['female'],[[4]],['female'],[[1]],[[0.15230616]],JC
674,[[13]],[[675]],[[13]],['high holistic'],['right'],['inverted'],['U0181.bmp'],['female'],[[12]],['female'],[[1]],[[0.22675065]],JC
675,[[13]],[[676]],[[7]],['low holistic'],['left'],['upright'],['U0107.bmp'],['female'],[[12]],['female'],[[1]],[[0.00032407]],JC
676,[[13]],[[677]],[[7]],['high holistic'],['left'],['upright'],['U0107.bmp'],['female'],[[2]],['female'],[[1]],[[0.35127499]],JC
677,[[13]],[[678]],[[10]],['low holistic'],['left'],['upright'],['U0159.bmp'],['female'],[[10]],['female'],[[1]],[[0.15435725]],JC
678,[[13]],[[679]],[[17]],['high holistic'],['right'],['upright'],['U0346.bmp'],['male'],[[6]],['male'],[[1]],[[0.30760654]],JC
679,[[13]],[[680]],[[3]],['high holistic'],['right'],['upright'],['U0020.bmp'],['male'],[[6]],['male'],[[1]],[[0.43155217]],JC
680,[[13]],[[681]],[[1]],['low holistic'],['fovea'],['inverted'],['U0006.bmp'],['female'],[[0]],['female'],[[1]],[[3.0369131]],JC
681,[[13]],[[682]],[[18]],['low holistic'],['right'],['inverted'],['U0359.bmp'],['male'],[[12]],['male'],[[1]],[[0.42742317]],JC
682,[[13]],[[683]],[[9]],['high holistic'],['right'],['inverted'],['U0155.bmp'],['female'],[[10]],['male'],[[0]],[[1.43964601]],JC
683,[[13]],[[684]],[[13]],['high holistic'],['right'],['upright'],['U0181.bmp'],['female'],[[6]],['female'],[[1]],[[0.50932566]],JC
684,[[13]],[[685]],[[11]],['low holistic'],['left'],['upright'],['U0164.bmp'],['female'],[[8]],['female'],[[1]],[[1.60971149]],JC
685,[[13]],[[686]],[[15]],['low holistic'],['right'],['upright'],['U0312.bmp'],['male'],[[10]],['male'],[[1]],[[0.23230576]],JC
686,[[13]],[[687]],[[12]],['low holistic'],['right'],['inverted'],['U0178.bmp'],['female'],[[8]],['female'],[[1]],[[0.42190453]],JC
687,[[13]],[[688]],[[5]],['high holistic'],['right'],['upright'],['U0076.bmp'],['female'],[[6]],['female'],[[1]],[[0.69420367]],JC
688,[[13]],[[689]],[[6]],['low holistic'],['left'],['inverted'],['U0106.bmp'],['male'],[[4]],['female'],[[0]],[[3.83515633]],JC
689,[[13]],[[690]],[[4]],['low holistic'],['right'],['inverted'],['U0061.bmp'],['female'],[[8]],['female'],[[1]],[[0.27931255]],JC
690,[[13]],[[691]],[[4]],['low holistic'],['left'],['inverted'],['U0061.bmp'],['female'],[[4]],['female'],[[1]],[[0.32370458]],JC
691,[[13]],[[692]],[[4]],['low holistic'],['left'],['inverted'],['U0061.bmp'],['female'],[[10]],['female'],[[1]],[[0.00011578]],JC
692,[[13]],[[693]],[[11]],['low holistic'],['right'],['inverted'],['U0164.bmp'],['female'],[[10]],['female'],[[1]],[[0.70244714]],JC
693,[[13]],[[694]],[[3]],['high holistic'],['fovea'],['upright'],['U0020.bmp'],['male'],[[0]],['male'],[[1]],[[0.91477778]],JC
694,[[13]],[[695]],[[16]],['high holistic'],['left'],['inverted'],['U0335.bmp'],['female'],[[2]],['female'],[[1]],[[0.62985804]],JC
695,[[13]],[[696]],[[9]],['low holistic'],['right'],['inverted'],['U0155.bmp'],['male'],[[6]],['male'],[[1]],[[0.16614245]],JC
696,[[13]],[[697]],[[13]],['high holistic'],['right'],['inverted'],['U0181.bmp'],['female'],[[6]],['female'],[[1]],[[1.02746119]],JC
697,[[13]],[[698]],[[9]],['high holistic'],['left'],['inverted'],['U0155.bmp'],['female'],[[12]],['male'],[[0]],[[2.41948382]],JC
698,[[13]],[[699]],[[4]],['high holistic'],['right'],['inverted'],['U0061.bmp'],['female'],[[8]],['female'],[[1]],[[0.33664577]],JC
699,[[13]],[[700]],[[14]],['high holistic'],['left'],['upright'],['U0228.bmp'],['male'],[[2]],['female'],[[0]],[[0.26903733]],JC
700,[[13]],[[701]],[[7]],['high holistic'],['right'],['upright'],['U0107.bmp'],['female'],[[2]],['female'],[[1]],[[1.75290929]],JC
701,[[13]],[[702]],[[19]],['high holistic'],['right'],['upright'],['U0361.bmp'],['female'],[[6]],['male'],[[0]],[[0.98689537]],JC
702,[[13]],[[703]],[[7]],['low holistic'],['fovea'],['upright'],['U0107.bmp'],['female'],[[0]],['female'],[[1]],[[0.58642899]],JC
703,[[13]],[[704]],[[8]],['high holistic'],['right'],['inverted'],['U0137.bmp'],['female'],[[6]],['female'],[[1]],[[0.97150775]],JC
704,[[13]],[[705]],[[11]],['low holistic'],['left'],['upright'],['U0164.bmp'],['female'],[[2]],['male'],[[0]],[[0.58825884]],JC
705,[[13]],[[706]],[[2]],['low holistic'],['right'],['inverted'],['U0014.bmp'],['male'],[[4]],['male'],[[1]],[[0.60442293]],JC
706,[[13]],[[707]],[[2]],['high holistic'],['right'],['inverted'],['U0014.bmp'],['male'],[[12]],['male'],[[1]],[[0.46656723]],JC
707,[[13]],[[708]],[[1]],['high holistic'],['fovea'],['upright'],['U0006.bmp'],['female'],[[0]],['female'],[[1]],[[0.14382475]],JC
708,[[13]],[[709]],[[17]],['high holistic'],['right'],['inverted'],['U0346.bmp'],['male'],[[4]],['male'],[[1]],[[0.73770138]],JC
709,[[13]],[[710]],[[9]],['high holistic'],['left'],['inverted'],['U0155.bmp'],['female'],[[12]],['female'],[[1]],[[0.97132255]],JC
710,[[13]],[[711]],[[6]],['low holistic'],['right'],['upright'],['U0106.bmp'],['male'],[[6]],['male'],[[1]],[[2.47731662]],JC
711,[[13]],[[712]],[[19]],['low holistic'],['left'],['upright'],['U0361.bmp'],['female'],[[2]],['female'],[[1]],[[0.15303751]],JC
712,[[13]],[[713]],[[15]],['low holistic'],['right'],['upright'],['U0312.bmp'],['male'],[[12]],['male'],[[1]],[[0.08190486]],JC
713,[[13]],[[714]],[[10]],['low holistic'],['left'],['upright'],['U0159.bmp'],['female'],[[4]],['female'],[[1]],[[0.10325966]],JC
714,[[13]],[[715]],[[6]],['low holistic'],['left'],['inverted'],['U0106.bmp'],['male'],[[6]],['male'],[[1]],[[0.9628484]],JC
715,[[13]],[[716]],[[20]],['high holistic'],['left'],['inverted'],['U0362.bmp'],['female'],[[10]],['male'],[[0]],[[0.64318211]],JC
716,[[13]],[[717]],[[4]],['high holistic'],['right'],['inverted'],['U0061.bmp'],['female'],[[8]],['female'],[[1]],[[0.25005853]],JC
717,[[13]],[[718]],[[4]],['low holistic'],['fovea'],['inverted'],['U0061.bmp'],['female'],[[0]],['female'],[[1]],[[0.34333251]],JC
718,[[13]],[[719]],[[20]],['low holistic'],['right'],['upright'],['U0362.bmp'],['male'],[[4]],['male'],[[1]],[[0.19255647]],JC
719,[[13]],[[720]],[[16]],['low holistic'],['fovea'],['inverted'],['U0335.bmp'],['female'],[[0]],['female'],[[1]],[[0.24836826]],JC
720,[[13]],[[721]],[[8]],['high holistic'],['left'],['inverted'],['U0137.bmp'],['female'],[[10]],['female'],[[1]],[[0.49388017]],JC
721,[[13]],[[722]],[[3]],['low holistic'],['right'],['upright'],['U0020.bmp'],['female'],[[6]],['female'],[[1]],[[0.26639545]],JC
722,[[13]],[[723]],[[17]],['high holistic'],['left'],['upright'],['U0346.bmp'],['male'],[[12]],['male'],[[1]],[[0.28726426]],JC
723,[[13]],[[724]],[[7]],['high holistic'],['left'],['inverted'],['U0107.bmp'],['female'],[[6]],['male'],[[0]],[[0.6443589]],JC
724,[[13]],[[725]],[[10]],['high holistic'],['right'],['inverted'],['U0159.bmp'],['male'],[[2]],['male'],[[1]],[[0.57684465]],JC
725,[[13]],[[726]],[[17]],['high holistic'],['left'],['upright'],['U0346.bmp'],['male'],[[4]],['male'],[[1]],[[0.13856526]],JC
726,[[13]],[[727]],[[4]],['low holistic'],['right'],['inverted'],['U0061.bmp'],['female'],[[10]],['female'],[[1]],[[0.23547293]],JC
727,[[13]],[[728]],[[9]],['low holistic'],['right'],['inverted'],['U0155.bmp'],['male'],[[12]],['male'],[[1]],[[0.54688242]],JC
728,[[13]],[[729]],[[7]],['low holistic'],['right'],['inverted'],['U0107.bmp'],['female'],[[10]],['female'],[[1]],[[0.45898157]],JC
729,[[13]],[[730]],[[10]],['low holistic'],['left'],['upright'],['U0159.bmp'],['female'],[[4]],['female'],[[1]],[[0.74608145]],JC
730,[[13]],[[731]],[[18]],['low holistic'],['right'],['inverted'],['U0359.bmp'],['male'],[[4]],['male'],[[1]],[[0.28340244]],JC
731,[[13]],[[732]],[[3]],['high holistic'],['right'],['upright'],['U0020.bmp'],['male'],[[10]],['male'],[[1]],[[0.66998277]],JC
732,[[13]],[[733]],[[16]],['low holistic'],['left'],['upright'],['U0335.bmp'],['female'],[[10]],['female'],[[1]],[[0.21540922]],JC
733,[[13]],[[734]],[[19]],['low holistic'],['left'],['upright'],['U0361.bmp'],['female'],[[12]],['female'],[[1]],[[0.32194904]],JC
734,[[13]],[[735]],[[18]],['low holistic'],['right'],['inverted'],['U0359.bmp'],['male'],[[12]],['male'],[[1]],[[0.38956363]],JC
735,[[13]],[[736]],[[14]],['low holistic'],['right'],['upright'],['U0228.bmp'],['male'],[[12]],['male'],[[1]],[[0.23646979]],JC
736,[[13]],[[737]],[[19]],['high holistic'],['right'],['inverted'],['U0361.bmp'],['female'],[[8]],['female'],[[1]],[[1.09907201]],JC
737,[[13]],[[738]],[[20]],['low holistic'],['right'],['upright'],['U0362.bmp'],['male'],[[2]],['male'],[[1]],[[2.45528249]],JC
738,[[13]],[[739]],[[11]],['low holistic'],['right'],['upright'],['U0164.bmp'],['female'],[[10]],['female'],[[1]],[[1.17951982]],JC
739,[[13]],[[740]],[[2]],['high holistic'],['right'],['inverted'],['U0014.bmp'],['male'],[[8]],['male'],[[1]],[[0.5414691]],JC
740,[[13]],[[741]],[[13]],['high holistic'],['right'],['inverted'],['U0181.bmp'],['female'],[[10]],['female'],[[1]],[[0.80682925]],JC
741,[[13]],[[742]],[[19]],['low holistic'],['right'],['inverted'],['U0361.bmp'],['female'],[[2]],['female'],[[1]],[[0.40372446]],JC
742,[[13]],[[743]],[[16]],['low holistic'],['left'],['upright'],['U0335.bmp'],['female'],[[6]],['female'],[[1]],[[0.17932109]],JC
743,[[13]],[[744]],[[20]],['high holistic'],['left'],['upright'],['U0362.bmp'],['female'],[[8]],['female'],[[1]],[[0.65971423]],JC
744,[[13]],[[745]],[[16]],['high holistic'],['left'],['inverted'],['U0335.bmp'],['female'],[[6]],['female'],[[1]],[[0.65791042]],JC
745,[[13]],[[746]],[[6]],['low holistic'],['left'],['upright'],['U0106.bmp'],['male'],[[6]],['female'],[[0]],[[0.65399428]],JC
746,[[13]],[[747]],[[1]],['low holistic'],['left'],['inverted'],['U0006.bmp'],['female'],[[10]],['female'],[[1]],[[0.45158203]],JC
747,[[13]],[[748]],[[20]],['low holistic'],['right'],['inverted'],['U0362.bmp'],['male'],[[4]],['male'],[[1]],[[0.35296115]],JC
748,[[13]],[[749]],[[11]],['low holistic'],['right'],['inverted'],['U0164.bmp'],['female'],[[10]],['female'],[[1]],[[0.88338404]],JC
749,[[13]],[[750]],[[13]],['low holistic'],['right'],['inverted'],['U0181.bmp'],['male'],[[10]],['male'],[[1]],[[0.27027507]],JC
750,[[13]],[[751]],[[5]],['high holistic'],['right'],['upright'],['U0076.bmp'],['female'],[[12]],['female'],[[1]],[[0.47667864]],JC
751,[[13]],[[752]],[[13]],['high holistic'],['left'],['inverted'],['U0181.bmp'],['female'],[[8]],['female'],[[1]],[[0.97639694]],JC
752,[[13]],[[753]],[[6]],['low holistic'],['right'],['inverted'],['U0106.bmp'],['male'],[[6]],['male'],[[1]],[[0.69750834]],JC
753,[[13]],[[754]],[[16]],['low holistic'],['right'],['upright'],['U0335.bmp'],['female'],[[6]],['female'],[[1]],[[0.22847604]],JC
754,[[13]],[[755]],[[1]],['low holistic'],['right'],['inverted'],['U0006.bmp'],['female'],[[4]],['female'],[[1]],[[0.19386277]],JC
755,[[13]],[[756]],[[19]],['high holistic'],['right'],['upright'],['U0361.bmp'],['female'],[[6]],['male'],[[0]],[[0.44935242]],JC
756,[[13]],[[757]],[[9]],['low holistic'],['left'],['upright'],['U0155.bmp'],['male'],[[4]],['male'],[[1]],[[0.32763303]],JC
757,[[13]],[[758]],[[5]],['low holistic'],['left'],['upright'],['U0076.bmp'],['male'],[[4]],['male'],[[1]],[[0.38581059]],JC
758,[[13]],[[759]],[[15]],['high holistic'],['right'],['inverted'],['U0312.bmp'],['male'],[[10]],['male'],[[1]],[[0.86736564]],JC
759,[[13]],[[760]],[[5]],['low holistic'],['left'],['inverted'],['U0076.bmp'],['male'],[[4]],['male'],[[1]],[[0.15145611]],JC
760,[[13]],[[761]],[[3]],['low holistic'],['left'],['upright'],['U0020.bmp'],['female'],[[2]],['female'],[[1]],[[0.28130644]],JC
761,[[13]],[[762]],[[20]],['high holistic'],['right'],['upright'],['U0362.bmp'],['female'],[[4]],['female'],[[1]],[[1.13462998]],JC
762,[[13]],[[763]],[[11]],['low holistic'],['left'],['upright'],['U0164.bmp'],['female'],[[8]],['female'],[[1]],[[0.64796083]],JC
763,[[13]],[[764]],[[4]],['high holistic'],['right'],['inverted'],['U0061.bmp'],['female'],[[4]],['male'],[[0]],[[0.95442676]],JC
764,[[13]],[[765]],[[19]],['high holistic'],['right'],['upright'],['U0361.bmp'],['female'],[[12]],['female'],[[1]],[[0.49343367]],JC
765,[[13]],[[766]],[[19]],['high holistic'],['fovea'],['inverted'],['U0361.bmp'],['female'],[[0]],['female'],[[1]],[[0.29895405]],JC
766,[[13]],[[767]],[[3]],['high holistic'],['left'],['upright'],['U0020.bmp'],['male'],[[6]],['male'],[[1]],[[0.22912687]],JC
767,[[13]],[[768]],[[12]],['high holistic'],['right'],['upright'],['U0178.bmp'],['male'],[[8]],['male'],[[1]],[[0.16342107]],JC
768,[[13]],[[769]],[[1]],['low holistic'],['right'],['upright'],['U0006.bmp'],['female'],[[6]],['female'],[[1]],[[0.18771593]],JC
769,[[13]],[[770]],[[10]],['high holistic'],['right'],['upright'],['U0159.bmp'],['male'],[[12]],['male'],[[1]],[[0.2775489]],JC
770,[[13]],[[771]],[[7]],['high holistic'],['left'],['inverted'],['U0107.bmp'],['female'],[[10]],['male'],[[0]],[[0.16127646]],JC
771,[[13]],[[772]],[[5]],['low holistic'],['left'],['upright'],['U0076.bmp'],['male'],[[8]],['male'],[[1]],[[0.25158048]],JC
772,[[13]],[[773]],[[8]],['low holistic'],['left'],['inverted'],['U0137.bmp'],['male'],[[6]],['male'],[[1]],[[0.41606395]],JC
