,SUBID,TRIAL,MOONEYID,MOONEYCATEGORY,LOC,COND,MOONEY_NAME,MOONEY_GENDER,ECCENTRICITY,RESPONSE,ACCURACY,RT,SUBINIT
0,[[6]],[[1]],[[9]],['low holistic'],['right'],['upright'],['U0155.bmp'],['male'],[],['male'],[[1]],[[0.16066253]],JO
1,[[6]],[[2]],[[15]],['high holistic'],['left'],['upright'],['U0312.bmp'],['male'],[],['male'],[[1]],[[0.17124246]],JO
2,[[6]],[[3]],[[13]],['high holistic'],['left'],['inverted'],['U0181.bmp'],['female'],[],['male'],[[0]],[[0.14729538]],JO
3,[[6]],[[4]],[[13]],['high holistic'],['right'],['upright'],['U0181.bmp'],['female'],[],['female'],[[1]],[[0.34980273]],JO
4,[[6]],[[5]],[[3]],['high holistic'],['left'],['inverted'],['U0020.bmp'],['male'],[],['female'],[[0]],[[0.30545937]],JO
5,[[6]],[[6]],[[8]],['high holistic'],['right'],['inverted'],['U0137.bmp'],['female'],[],['male'],[[0]],[[0.13309312]],JO
6,[[6]],[[7]],[[19]],['low holistic'],['left'],['inverted'],['U0361.bmp'],['female'],[],['female'],[[1]],[[0.35959748]],JO
7,[[6]],[[8]],[[2]],['low holistic'],['right'],['upright'],['U0014.bmp'],['male'],[],['male'],[[1]],[[0.16876171]],JO
8,[[6]],[[9]],[[6]],['low holistic'],['right'],['upright'],['U0106.bmp'],['male'],[],['female'],[[0]],[[0.00023657]],JO
9,[[6]],[[10]],[[20]],['high holistic'],['left'],['inverted'],['U0362.bmp'],['female'],[],['female'],[[1]],[[0.28227464]],JO
10,[[6]],[[11]],[[11]],['high holistic'],['right'],['inverted'],['U0164.bmp'],['female'],[],['male'],[[0]],[[0.08813781]],JO
11,[[6]],[[12]],[[13]],['low holistic'],['left'],['inverted'],['U0181.bmp'],['male'],[],['female'],[[0]],[[9.93516296e-05]],JO
12,[[6]],[[13]],[[8]],['low holistic'],['left'],['inverted'],['U0137.bmp'],['male'],[],['male'],[[1]],[[0.82029314]],JO
13,[[6]],[[14]],[[3]],['high holistic'],['right'],['upright'],['U0020.bmp'],['male'],[],['female'],[[0]],[[0.66118304]],JO
14,[[6]],[[15]],[[13]],['high holistic'],['left'],['upright'],['U0181.bmp'],['female'],[],['female'],[[1]],[[0.42706739]],JO
15,[[6]],[[16]],[[9]],['low holistic'],['left'],['upright'],['U0155.bmp'],['male'],[],['male'],[[1]],[[0.16917078]],JO
16,[[6]],[[17]],[[16]],['low holistic'],['right'],['inverted'],['U0335.bmp'],['female'],[],['female'],[[1]],[[0.46696899]],JO
17,[[6]],[[18]],[[1]],['high holistic'],['right'],['upright'],['U0006.bmp'],['female'],[],['female'],[[1]],[[0.15181371]],JO
18,[[6]],[[19]],[[20]],['high holistic'],['right'],['inverted'],['U0362.bmp'],['female'],[],['female'],[[1]],[[0.09164061]],JO
19,[[6]],[[20]],[[6]],['high holistic'],['fovea'],['upright'],['U0106.bmp'],['female'],[],['female'],[[1]],[[0.03042766]],JO
20,[[6]],[[21]],[[3]],['low holistic'],['left'],['upright'],['U0020.bmp'],['female'],[],['female'],[[1]],[[0.42959043]],JO
21,[[6]],[[22]],[[20]],['high holistic'],['fovea'],['inverted'],['U0362.bmp'],['female'],[],['female'],[[1]],[[0.17273702]],JO
22,[[6]],[[23]],[[11]],['high holistic'],['right'],['upright'],['U0164.bmp'],['female'],[],['female'],[[1]],[[0.32551803]],JO
23,[[6]],[[24]],[[20]],['low holistic'],['left'],['upright'],['U0362.bmp'],['male'],[],['male'],[[1]],[[0.1283757]],JO
24,[[6]],[[25]],[[17]],['high holistic'],['right'],['inverted'],['U0346.bmp'],['male'],[],['male'],[[1]],[[0.03629061]],JO
25,[[6]],[[26]],[[20]],['high holistic'],['left'],['inverted'],['U0362.bmp'],['female'],[],['male'],[[0]],[[0.58680608]],JO
26,[[6]],[[27]],[[14]],['high holistic'],['right'],['upright'],['U0228.bmp'],['male'],[],['male'],[[1]],[[0.26642489]],JO
27,[[6]],[[28]],[[10]],['low holistic'],['left'],['inverted'],['U0159.bmp'],['female'],[],['female'],[[1]],[[0.20864702]],JO
28,[[6]],[[29]],[[5]],['low holistic'],['left'],['inverted'],['U0076.bmp'],['male'],[],['male'],[[1]],[[0.13703098]],JO
29,[[6]],[[30]],[[5]],['high holistic'],['right'],['inverted'],['U0076.bmp'],['female'],[],['female'],[[1]],[[0.28455902]],JO
30,[[6]],[[31]],[[19]],['low holistic'],['fovea'],['upright'],['U0361.bmp'],['female'],[],['female'],[[1]],[[0.13628746]],JO
31,[[6]],[[32]],[[12]],['high holistic'],['left'],['upright'],['U0178.bmp'],['male'],[],['male'],[[1]],[[0.35600335]],JO
32,[[6]],[[33]],[[14]],['high holistic'],['right'],['inverted'],['U0228.bmp'],['male'],[],['female'],[[0]],[[0.41320621]],JO
33,[[6]],[[34]],[[15]],['low holistic'],['right'],['inverted'],['U0312.bmp'],['male'],[],['male'],[[1]],[[0.37883777]],JO
34,[[6]],[[35]],[[14]],['high holistic'],['left'],['upright'],['U0228.bmp'],['male'],[],['male'],[[1]],[[0.21202702]],JO
35,[[6]],[[36]],[[20]],['high holistic'],['left'],['inverted'],['U0362.bmp'],['female'],[],['female'],[[1]],[[0.1634287]],JO
36,[[6]],[[37]],[[6]],['low holistic'],['left'],['inverted'],['U0106.bmp'],['male'],[],['female'],[[0]],[[0.22988801]],JO
37,[[6]],[[38]],[[2]],['high holistic'],['right'],['upright'],['U0014.bmp'],['male'],[],['male'],[[1]],[[0.37106579]],JO
38,[[6]],[[39]],[[13]],['high holistic'],['left'],['inverted'],['U0181.bmp'],['female'],[],['female'],[[1]],[[0.24490443]],JO
39,[[6]],[[40]],[[5]],['high holistic'],['right'],['inverted'],['U0076.bmp'],['female'],[],['female'],[[1]],[[0.267185]],JO
40,[[6]],[[41]],[[18]],['high holistic'],['right'],['upright'],['U0359.bmp'],['male'],[],['female'],[[0]],[[0.67401912]],JO
41,[[6]],[[42]],[[3]],['high holistic'],['left'],['upright'],['U0020.bmp'],['male'],[],['male'],[[1]],[[0.55886591]],JO
42,[[6]],[[43]],[[19]],['low holistic'],['right'],['upright'],['U0361.bmp'],['female'],[],['female'],[[1]],[[0.21639951]],JO
43,[[6]],[[44]],[[1]],['high holistic'],['left'],['upright'],['U0006.bmp'],['female'],[],['female'],[[1]],[[0.05604206]],JO
44,[[6]],[[45]],[[11]],['low holistic'],['left'],['inverted'],['U0164.bmp'],['female'],[],['female'],[[1]],[[0.34119277]],JO
45,[[6]],[[46]],[[10]],['high holistic'],['right'],['inverted'],['U0159.bmp'],['male'],[],['male'],[[1]],[[0.25671965]],JO
46,[[6]],[[47]],[[18]],['high holistic'],['right'],['upright'],['U0359.bmp'],['male'],[],['female'],[[0]],[[0.28476888]],JO
47,[[6]],[[48]],[[7]],['high holistic'],['right'],['inverted'],['U0107.bmp'],['female'],[],['female'],[[1]],[[0.39505502]],JO
48,[[6]],[[49]],[[18]],['low holistic'],['left'],['upright'],['U0359.bmp'],['male'],[],['male'],[[1]],[[0.25127334]],JO
49,[[6]],[[50]],[[4]],['high holistic'],['left'],['inverted'],['U0061.bmp'],['female'],[],['male'],[[0]],[[0.2005618]],JO
50,[[6]],[[51]],[[5]],['low holistic'],['left'],['inverted'],['U0076.bmp'],['male'],[],['male'],[[1]],[[0.12221471]],JO
51,[[6]],[[52]],[[3]],['low holistic'],['left'],['upright'],['U0020.bmp'],['female'],[],['female'],[[1]],[[0.00017763]],JO
52,[[6]],[[53]],[[10]],['low holistic'],['fovea'],['inverted'],['U0159.bmp'],['female'],[],['female'],[[1]],[[0.07538933]],JO
53,[[6]],[[54]],[[18]],['high holistic'],['right'],['upright'],['U0359.bmp'],['male'],[],['female'],[[0]],[[0.08212069]],JO
54,[[6]],[[55]],[[3]],['low holistic'],['right'],['upright'],['U0020.bmp'],['female'],[],['female'],[[1]],[[0.054751]],JO
55,[[6]],[[56]],[[20]],['high holistic'],['fovea'],['inverted'],['U0362.bmp'],['female'],[],['female'],[[1]],[[0.21127095]],JO
56,[[6]],[[57]],[[16]],['high holistic'],['right'],['upright'],['U0335.bmp'],['female'],[],['female'],[[1]],[[0.19630057]],JO
57,[[6]],[[58]],[[20]],['high holistic'],['left'],['upright'],['U0362.bmp'],['female'],[],['female'],[[1]],[[0.79591568]],JO
58,[[6]],[[59]],[[1]],['low holistic'],['left'],['upright'],['U0006.bmp'],['female'],[],['female'],[[1]],[[0.06084538]],JO
59,[[6]],[[60]],[[10]],['low holistic'],['right'],['inverted'],['U0159.bmp'],['female'],[],['female'],[[1]],[[0.05060479]],JO
60,[[6]],[[61]],[[5]],['high holistic'],['left'],['upright'],['U0076.bmp'],['female'],[],['female'],[[1]],[[0.00803318]],JO
61,[[6]],[[62]],[[6]],['high holistic'],['right'],['inverted'],['U0106.bmp'],['female'],[],['female'],[[1]],[[0.04768399]],JO
62,[[6]],[[63]],[[17]],['high holistic'],['right'],['upright'],['U0346.bmp'],['male'],[],['male'],[[1]],[[0.14289517]],JO
63,[[6]],[[64]],[[2]],['high holistic'],['right'],['inverted'],['U0014.bmp'],['male'],[],['male'],[[1]],[[0.11317596]],JO
64,[[6]],[[65]],[[1]],['low holistic'],['left'],['upright'],['U0006.bmp'],['female'],[],['female'],[[1]],[[0.000323]],JO
65,[[6]],[[66]],[[4]],['low holistic'],['fovea'],['inverted'],['U0061.bmp'],['female'],[],['female'],[[1]],[[0.20342219]],JO
66,[[6]],[[67]],[[14]],['low holistic'],['left'],['inverted'],['U0228.bmp'],['male'],[],['male'],[[1]],[[0.19579234]],JO
67,[[6]],[[68]],[[13]],['low holistic'],['right'],['upright'],['U0181.bmp'],['male'],[],['male'],[[1]],[[0.0598096]],JO
68,[[6]],[[69]],[[11]],['high holistic'],['fovea'],['inverted'],['U0164.bmp'],['female'],[],['female'],[[1]],[[0.20139533]],JO
69,[[6]],[[70]],[[15]],['low holistic'],['left'],['inverted'],['U0312.bmp'],['male'],[],['male'],[[1]],[[0.19438331]],JO
70,[[6]],[[71]],[[13]],['low holistic'],['right'],['inverted'],['U0181.bmp'],['male'],[],['male'],[[1]],[[0.27355266]],JO
71,[[6]],[[72]],[[16]],['low holistic'],['left'],['upright'],['U0335.bmp'],['female'],[],['female'],[[1]],[[0.14340876]],JO
72,[[6]],[[73]],[[15]],['high holistic'],['left'],['upright'],['U0312.bmp'],['male'],[],['male'],[[1]],[[0.20893177]],JO
73,[[6]],[[74]],[[2]],['low holistic'],['right'],['inverted'],['U0014.bmp'],['male'],[],['male'],[[1]],[[0.23339758]],JO
74,[[6]],[[75]],[[19]],['high holistic'],['right'],['inverted'],['U0361.bmp'],['female'],[],['male'],[[0]],[[0.06463249]],JO
75,[[6]],[[76]],[[5]],['low holistic'],['left'],['upright'],['U0076.bmp'],['male'],[],['male'],[[1]],[[0.34176001]],JO
76,[[6]],[[77]],[[15]],['low holistic'],['left'],['upright'],['U0312.bmp'],['male'],[],['male'],[[1]],[[0.30294713]],JO
77,[[6]],[[78]],[[18]],['high holistic'],['right'],['upright'],['U0359.bmp'],['male'],[],['male'],[[1]],[[9.97418538e-05]],JO
78,[[6]],[[79]],[[5]],['high holistic'],['right'],['upright'],['U0076.bmp'],['female'],[],['female'],[[1]],[[0.08338503]],JO
79,[[6]],[[80]],[[7]],['low holistic'],['right'],['upright'],['U0107.bmp'],['female'],[],['female'],[[1]],[[0.19313471]],JO
80,[[6]],[[81]],[[6]],['low holistic'],['left'],['upright'],['U0106.bmp'],['male'],[],['male'],[[1]],[[0.16974726]],JO
81,[[6]],[[82]],[[1]],['high holistic'],['right'],['upright'],['U0006.bmp'],['female'],[],['female'],[[1]],[[0.1786559]],JO
82,[[6]],[[83]],[[17]],['low holistic'],['right'],['inverted'],['U0346.bmp'],['female'],[],['female'],[[1]],[[0.1066545]],JO
83,[[6]],[[84]],[[2]],['low holistic'],['right'],['inverted'],['U0014.bmp'],['male'],[],['male'],[[1]],[[0.1110765]],JO
84,[[6]],[[85]],[[6]],['low holistic'],['left'],['inverted'],['U0106.bmp'],['male'],[],['male'],[[1]],[[0.25140222]],JO
85,[[6]],[[86]],[[1]],['low holistic'],['left'],['inverted'],['U0006.bmp'],['female'],[],['female'],[[1]],[[0.15204932]],JO
86,[[6]],[[87]],[[18]],['low holistic'],['right'],['inverted'],['U0359.bmp'],['male'],[],['male'],[[1]],[[0.17886754]],JO
87,[[6]],[[88]],[[4]],['high holistic'],['left'],['inverted'],['U0061.bmp'],['female'],[],['male'],[[0]],[[0.13985314]],JO
88,[[6]],[[89]],[[19]],['high holistic'],['left'],['inverted'],['U0361.bmp'],['female'],[],['male'],[[0]],[[0.14208407]],JO
89,[[6]],[[90]],[[19]],['high holistic'],['right'],['inverted'],['U0361.bmp'],['female'],[],['male'],[[0]],[[0.00047501]],JO
90,[[6]],[[91]],[[20]],['high holistic'],['left'],['upright'],['U0362.bmp'],['female'],[],['female'],[[1]],[[0.07314676]],JO
91,[[6]],[[92]],[[18]],['low holistic'],['left'],['upright'],['U0359.bmp'],['male'],[],['male'],[[1]],[[0.13204504]],JO
92,[[6]],[[93]],[[15]],['high holistic'],['left'],['upright'],['U0312.bmp'],['male'],[],['male'],[[1]],[[0.11207587]],JO
93,[[6]],[[94]],[[9]],['high holistic'],['left'],['inverted'],['U0155.bmp'],['female'],[],['male'],[[0]],[[0.00012757]],JO
94,[[6]],[[95]],[[1]],['high holistic'],['right'],['upright'],['U0006.bmp'],['female'],[],['female'],[[1]],[[0.00368923]],JO
95,[[6]],[[96]],[[12]],['low holistic'],['fovea'],['upright'],['U0178.bmp'],['female'],[],['female'],[[1]],[[0.07648425]],JO
96,[[6]],[[97]],[[17]],['high holistic'],['right'],['inverted'],['U0346.bmp'],['male'],[],['male'],[[1]],[[0.00020416]],JO
97,[[6]],[[98]],[[2]],['low holistic'],['left'],['upright'],['U0014.bmp'],['male'],[],['male'],[[1]],[[0.16068989]],JO
98,[[6]],[[99]],[[2]],['high holistic'],['right'],['upright'],['U0014.bmp'],['male'],[],['male'],[[1]],[[0.0339529]],JO
99,[[6]],[[100]],[[16]],['high holistic'],['right'],['inverted'],['U0335.bmp'],['female'],[],['male'],[[0]],[[8.67332747]],JO
100,[[6]],[[101]],[[13]],['high holistic'],['right'],['upright'],['U0181.bmp'],['female'],[],['female'],[[1]],[[0.38126583]],JO
101,[[6]],[[102]],[[1]],['low holistic'],['right'],['inverted'],['U0006.bmp'],['female'],[],['female'],[[1]],[[0.39768632]],JO
102,[[6]],[[103]],[[8]],['high holistic'],['left'],['inverted'],['U0137.bmp'],['female'],[],['male'],[[0]],[[0.06225905]],JO
103,[[6]],[[104]],[[1]],['high holistic'],['left'],['upright'],['U0006.bmp'],['female'],[],['female'],[[1]],[[0.09123455]],JO
104,[[6]],[[105]],[[4]],['low holistic'],['right'],['inverted'],['U0061.bmp'],['female'],[],['female'],[[1]],[[0.17564304]],JO
105,[[6]],[[106]],[[1]],['high holistic'],['left'],['upright'],['U0006.bmp'],['female'],[],['male'],[[0]],[[0.00036159]],JO
106,[[6]],[[107]],[[17]],['low holistic'],['left'],['inverted'],['U0346.bmp'],['female'],[],['female'],[[1]],[[0.45112]],JO
107,[[6]],[[108]],[[20]],['high holistic'],['left'],['inverted'],['U0362.bmp'],['female'],[],['female'],[[1]],[[0.24029882]],JO
108,[[6]],[[109]],[[8]],['high holistic'],['left'],['inverted'],['U0137.bmp'],['female'],[],['male'],[[0]],[[0.46963007]],JO
109,[[6]],[[110]],[[14]],['low holistic'],['right'],['inverted'],['U0228.bmp'],['male'],[],['female'],[[0]],[[0.20349876]],JO
110,[[6]],[[111]],[[15]],['low holistic'],['left'],['upright'],['U0312.bmp'],['male'],[],['male'],[[1]],[[0.09217646]],JO
111,[[6]],[[112]],[[19]],['low holistic'],['left'],['inverted'],['U0361.bmp'],['female'],[],['female'],[[1]],[[0.23174076]],JO
112,[[6]],[[113]],[[7]],['high holistic'],['right'],['upright'],['U0107.bmp'],['female'],[],['female'],[[1]],[[0.1809626]],JO
113,[[6]],[[114]],[[15]],['high holistic'],['right'],['upright'],['U0312.bmp'],['male'],[],['male'],[[1]],[[0.0081778]],JO
114,[[6]],[[115]],[[5]],['low holistic'],['right'],['inverted'],['U0076.bmp'],['male'],[],['male'],[[1]],[[0.00030474]],JO
115,[[6]],[[116]],[[8]],['high holistic'],['left'],['upright'],['U0137.bmp'],['female'],[],['female'],[[1]],[[0.02933061]],JO
116,[[6]],[[117]],[[4]],['high holistic'],['left'],['upright'],['U0061.bmp'],['female'],[],['female'],[[1]],[[0.00036764]],JO
117,[[6]],[[118]],[[17]],['high holistic'],['right'],['upright'],['U0346.bmp'],['male'],[],['male'],[[1]],[[0.26935407]],JO
118,[[6]],[[119]],[[9]],['low holistic'],['right'],['inverted'],['U0155.bmp'],['male'],[],['male'],[[1]],[[0.19609289]],JO
119,[[6]],[[120]],[[17]],['high holistic'],['left'],['upright'],['U0346.bmp'],['male'],[],['male'],[[1]],[[0.08326536]],JO
120,[[6]],[[121]],[[8]],['high holistic'],['right'],['upright'],['U0137.bmp'],['female'],[],['female'],[[1]],[[0.03848459]],JO
121,[[6]],[[122]],[[20]],['high holistic'],['left'],['inverted'],['U0362.bmp'],['female'],[],['female'],[[1]],[[0.29450224]],JO
122,[[6]],[[123]],[[8]],['high holistic'],['left'],['inverted'],['U0137.bmp'],['female'],[],['female'],[[1]],[[0.23438128]],JO
123,[[6]],[[124]],[[2]],['high holistic'],['right'],['inverted'],['U0014.bmp'],['male'],[],['male'],[[1]],[[0.24067215]],JO
124,[[6]],[[125]],[[11]],['high holistic'],['left'],['inverted'],['U0164.bmp'],['female'],[],['female'],[[1]],[[0.39988305]],JO
125,[[6]],[[126]],[[17]],['high holistic'],['left'],['upright'],['U0346.bmp'],['male'],[],['male'],[[1]],[[0.09618641]],JO
126,[[6]],[[127]],[[15]],['low holistic'],['left'],['inverted'],['U0312.bmp'],['male'],[],['male'],[[1]],[[0.09248351]],JO
127,[[6]],[[128]],[[5]],['high holistic'],['right'],['upright'],['U0076.bmp'],['female'],[],['female'],[[1]],[[0.19221414]],JO
128,[[6]],[[129]],[[20]],['high holistic'],['right'],['upright'],['U0362.bmp'],['female'],[],['female'],[[1]],[[0.39127741]],JO
129,[[6]],[[130]],[[17]],['low holistic'],['right'],['upright'],['U0346.bmp'],['female'],[],['female'],[[1]],[[0.18506689]],JO
130,[[6]],[[131]],[[6]],['high holistic'],['left'],['upright'],['U0106.bmp'],['female'],[],['female'],[[1]],[[0.24565049]],JO
131,[[6]],[[132]],[[11]],['low holistic'],['right'],['inverted'],['U0164.bmp'],['female'],[],['female'],[[1]],[[0.07508258]],JO
132,[[6]],[[133]],[[13]],['high holistic'],['left'],['inverted'],['U0181.bmp'],['female'],[],['female'],[[1]],[[0.11197857]],JO
133,[[6]],[[134]],[[5]],['low holistic'],['left'],['upright'],['U0076.bmp'],['male'],[],['male'],[[1]],[[0.13254388]],JO
134,[[6]],[[135]],[[13]],['high holistic'],['left'],['inverted'],['U0181.bmp'],['female'],[],['female'],[[1]],[[0.27788269]],JO
135,[[6]],[[136]],[[17]],['high holistic'],['left'],['inverted'],['U0346.bmp'],['male'],[],['male'],[[1]],[[0.22732236]],JO
136,[[6]],[[137]],[[10]],['high holistic'],['right'],['upright'],['U0159.bmp'],['male'],[],['male'],[[1]],[[0.17796352]],JO
137,[[6]],[[138]],[[12]],['low holistic'],['left'],['inverted'],['U0178.bmp'],['female'],[],['female'],[[1]],[[0.00010796]],JO
138,[[6]],[[139]],[[14]],['high holistic'],['left'],['inverted'],['U0228.bmp'],['male'],[],['female'],[[0]],[[0.04455372]],JO
139,[[6]],[[140]],[[7]],['high holistic'],['left'],['inverted'],['U0107.bmp'],['female'],[],['female'],[[1]],[[0.30472375]],JO
140,[[6]],[[141]],[[19]],['low holistic'],['right'],['upright'],['U0361.bmp'],['female'],[],['female'],[[1]],[[0.08495196]],JO
141,[[6]],[[142]],[[18]],['low holistic'],['left'],['upright'],['U0359.bmp'],['male'],[],['male'],[[1]],[[0.34455771]],JO
142,[[6]],[[143]],[[13]],['high holistic'],['left'],['inverted'],['U0181.bmp'],['female'],[],['female'],[[1]],[[9.96002927e-05]],JO
143,[[6]],[[144]],[[2]],['high holistic'],['right'],['inverted'],['U0014.bmp'],['male'],[],['male'],[[1]],[[1.20494453]],JO
144,[[6]],[[145]],[[13]],['high holistic'],['right'],['upright'],['U0181.bmp'],['female'],[],['female'],[[1]],[[0.13202288]],JO
145,[[6]],[[146]],[[3]],['high holistic'],['right'],['upright'],['U0020.bmp'],['male'],[],['male'],[[1]],[[0.2545472]],JO
146,[[6]],[[147]],[[9]],['high holistic'],['right'],['inverted'],['U0155.bmp'],['female'],[],['female'],[[1]],[[0.22041558]],JO
147,[[6]],[[148]],[[15]],['low holistic'],['right'],['upright'],['U0312.bmp'],['male'],[],['male'],[[1]],[[0.07613828]],JO
148,[[6]],[[149]],[[4]],['low holistic'],['left'],['upright'],['U0061.bmp'],['female'],[],['female'],[[1]],[[0.58478957]],JO
149,[[6]],[[150]],[[17]],['low holistic'],['right'],['upright'],['U0346.bmp'],['female'],[],['female'],[[1]],[[0.28940777]],JO
150,[[6]],[[151]],[[17]],['low holistic'],['right'],['upright'],['U0346.bmp'],['female'],[],['female'],[[1]],[[0.05997423]],JO
151,[[6]],[[152]],[[13]],['high holistic'],['fovea'],['upright'],['U0181.bmp'],['female'],[],['female'],[[1]],[[0.89116206]],JO
152,[[6]],[[153]],[[19]],['low holistic'],['right'],['upright'],['U0361.bmp'],['female'],[],['female'],[[1]],[[0.20785203]],JO
153,[[6]],[[154]],[[18]],['high holistic'],['left'],['upright'],['U0359.bmp'],['male'],[],['female'],[[0]],[[0.44629845]],JO
154,[[6]],[[155]],[[18]],['high holistic'],['left'],['inverted'],['U0359.bmp'],['male'],[],['female'],[[0]],[[0.49283425]],JO
155,[[6]],[[156]],[[2]],['low holistic'],['left'],['inverted'],['U0014.bmp'],['male'],[],['male'],[[1]],[[0.26639101]],JO
156,[[6]],[[157]],[[20]],['low holistic'],['right'],['upright'],['U0362.bmp'],['male'],[],['male'],[[1]],[[0.67989393]],JO
157,[[6]],[[158]],[[10]],['low holistic'],['right'],['inverted'],['U0159.bmp'],['female'],[],['female'],[[1]],[[0.33178126]],JO
158,[[6]],[[159]],[[6]],['high holistic'],['right'],['upright'],['U0106.bmp'],['female'],[],['female'],[[1]],[[0.37345439]],JO
159,[[6]],[[160]],[[9]],['low holistic'],['left'],['inverted'],['U0155.bmp'],['male'],[],['male'],[[1]],[[0.19925536]],JO
160,[[6]],[[161]],[[16]],['low holistic'],['right'],['inverted'],['U0335.bmp'],['female'],[],['female'],[[1]],[[0.12749456]],JO
161,[[6]],[[162]],[[3]],['low holistic'],['right'],['inverted'],['U0020.bmp'],['female'],[],['female'],[[1]],[[0.20348014]],JO
162,[[6]],[[163]],[[12]],['high holistic'],['left'],['upright'],['U0178.bmp'],['male'],[],['male'],[[1]],[[0.00020089]],JO
163,[[6]],[[164]],[[19]],['high holistic'],['left'],['inverted'],['U0361.bmp'],['female'],[],['male'],[[0]],[[0.08197605]],JO
164,[[6]],[[165]],[[12]],['low holistic'],['fovea'],['inverted'],['U0178.bmp'],['female'],[],['female'],[[1]],[[0.41554416]],JO
165,[[6]],[[166]],[[10]],['high holistic'],['right'],['inverted'],['U0159.bmp'],['male'],[],['female'],[[0]],[[0.42313355]],JO
166,[[6]],[[167]],[[8]],['high holistic'],['fovea'],['inverted'],['U0137.bmp'],['female'],[],['female'],[[1]],[[0.22075683]],JO
167,[[6]],[[168]],[[10]],['high holistic'],['left'],['upright'],['U0159.bmp'],['male'],[],['male'],[[1]],[[0.01308139]],JO
168,[[6]],[[169]],[[16]],['high holistic'],['left'],['upright'],['U0335.bmp'],['female'],[],['female'],[[1]],[[0.15501979]],JO
169,[[6]],[[170]],[[19]],['high holistic'],['right'],['inverted'],['U0361.bmp'],['female'],[],['male'],[[0]],[[0.09206153]],JO
170,[[6]],[[171]],[[11]],['low holistic'],['left'],['inverted'],['U0164.bmp'],['female'],[],['female'],[[1]],[[0.24981332]],JO
171,[[6]],[[172]],[[7]],['low holistic'],['left'],['upright'],['U0107.bmp'],['female'],[],['female'],[[1]],[[0.1840116]],JO
172,[[6]],[[173]],[[11]],['high holistic'],['left'],['upright'],['U0164.bmp'],['female'],[],['female'],[[1]],[[2.81661853]],JO
173,[[6]],[[174]],[[19]],['low holistic'],['right'],['inverted'],['U0361.bmp'],['female'],[],['female'],[[1]],[[0.23866065]],JO
174,[[6]],[[175]],[[16]],['low holistic'],['right'],['upright'],['U0335.bmp'],['female'],[],['female'],[[1]],[[0.00010663]],JO
175,[[6]],[[176]],[[16]],['low holistic'],['fovea'],['upright'],['U0335.bmp'],['female'],[],['female'],[[1]],[[3.5107559]],JO
176,[[6]],[[177]],[[17]],['high holistic'],['left'],['inverted'],['U0346.bmp'],['male'],[],['male'],[[1]],[[0.12816983]],JO
177,[[6]],[[178]],[[17]],['high holistic'],['right'],['upright'],['U0346.bmp'],['male'],[],['male'],[[1]],[[1.66896556]],JO
178,[[6]],[[179]],[[11]],['low holistic'],['right'],['upright'],['U0164.bmp'],['female'],[],['female'],[[1]],[[0.12226257]],JO
179,[[6]],[[180]],[[7]],['high holistic'],['right'],['upright'],['U0107.bmp'],['female'],[],['female'],[[1]],[[0.4041077]],JO
180,[[6]],[[181]],[[1]],['low holistic'],['right'],['inverted'],['U0006.bmp'],['female'],[],['female'],[[1]],[[0.21186025]],JO
181,[[6]],[[182]],[[2]],['low holistic'],['right'],['upright'],['U0014.bmp'],['male'],[],['male'],[[1]],[[0.01152315]],JO
182,[[6]],[[183]],[[4]],['low holistic'],['right'],['inverted'],['U0061.bmp'],['female'],[],['female'],[[1]],[[0.01925371]],JO
183,[[6]],[[184]],[[18]],['low holistic'],['right'],['inverted'],['U0359.bmp'],['male'],[],['male'],[[1]],[[0.33879065]],JO
184,[[6]],[[185]],[[10]],['high holistic'],['left'],['inverted'],['U0159.bmp'],['male'],[],['female'],[[0]],[[0.67012869]],JO
185,[[6]],[[186]],[[7]],['high holistic'],['left'],['upright'],['U0107.bmp'],['female'],[],['female'],[[1]],[[0.2582096]],JO
186,[[6]],[[187]],[[14]],['low holistic'],['left'],['inverted'],['U0228.bmp'],['male'],[],['female'],[[0]],[[0.54420161]],JO
187,[[6]],[[188]],[[14]],['high holistic'],['left'],['upright'],['U0228.bmp'],['male'],[],['male'],[[1]],[[0.22631801]],JO
188,[[6]],[[189]],[[1]],['low holistic'],['left'],['upright'],['U0006.bmp'],['female'],[],['female'],[[1]],[[0.08288252]],JO
189,[[6]],[[190]],[[20]],['high holistic'],['right'],['inverted'],['U0362.bmp'],['female'],[],['female'],[[1]],[[0.25428549]],JO
190,[[6]],[[191]],[[4]],['high holistic'],['right'],['inverted'],['U0061.bmp'],['female'],[],['male'],[[0]],[[0.01355253]],JO
191,[[6]],[[192]],[[5]],['low holistic'],['right'],['upright'],['U0076.bmp'],['male'],[],['male'],[[1]],[[0.21962706]],JO
192,[[6]],[[193]],[[4]],['high holistic'],['right'],['upright'],['U0061.bmp'],['female'],[],['female'],[[1]],[[0.53875886]],JO
193,[[6]],[[194]],[[19]],['low holistic'],['right'],['inverted'],['U0361.bmp'],['female'],[],['female'],[[1]],[[0.5102077]],JO
194,[[6]],[[195]],[[4]],['low holistic'],['left'],['inverted'],['U0061.bmp'],['female'],[],['female'],[[1]],[[0.26596035]],JO
195,[[6]],[[196]],[[12]],['high holistic'],['left'],['upright'],['U0178.bmp'],['male'],[],['male'],[[1]],[[0.03786069]],JO
196,[[6]],[[197]],[[11]],['low holistic'],['left'],['inverted'],['U0164.bmp'],['female'],[],['female'],[[1]],[[0.07598231]],JO
197,[[6]],[[198]],[[18]],['high holistic'],['right'],['inverted'],['U0359.bmp'],['male'],[],['female'],[[0]],[[0.7449814]],JO
198,[[6]],[[199]],[[19]],['high holistic'],['right'],['upright'],['U0361.bmp'],['female'],[],['male'],[[0]],[[0.56493907]],JO
199,[[6]],[[200]],[[19]],['low holistic'],['right'],['upright'],['U0361.bmp'],['female'],[],['female'],[[1]],[[0.0854154]],JO
200,[[6]],[[201]],[[2]],['low holistic'],['left'],['inverted'],['U0014.bmp'],['male'],[],['male'],[[1]],[[0.34518376]],JO
201,[[6]],[[202]],[[17]],['high holistic'],['left'],['inverted'],['U0346.bmp'],['male'],[],['female'],[[0]],[[0.02911847]],JO
202,[[6]],[[203]],[[1]],['high holistic'],['left'],['upright'],['U0006.bmp'],['female'],[],['female'],[[1]],[[0.179911]],JO
203,[[6]],[[204]],[[19]],['low holistic'],['left'],['inverted'],['U0361.bmp'],['female'],[],['female'],[[1]],[[0.33289159]],JO
204,[[6]],[[205]],[[18]],['high holistic'],['left'],['inverted'],['U0359.bmp'],['male'],[],['female'],[[0]],[[0.3993927]],JO
205,[[6]],[[206]],[[4]],['high holistic'],['left'],['inverted'],['U0061.bmp'],['female'],[],['female'],[[1]],[[0.30974449]],JO
206,[[6]],[[207]],[[9]],['high holistic'],['right'],['inverted'],['U0155.bmp'],['female'],[],['male'],[[0]],[[0.58524188]],JO
207,[[6]],[[208]],[[2]],['low holistic'],['right'],['inverted'],['U0014.bmp'],['male'],[],['male'],[[1]],[[0.10706667]],JO
208,[[6]],[[209]],[[2]],['low holistic'],['left'],['inverted'],['U0014.bmp'],['male'],[],['male'],[[1]],[[0.07879848]],JO
209,[[6]],[[210]],[[11]],['high holistic'],['fovea'],['inverted'],['U0164.bmp'],['female'],[],['male'],[[0]],[[0.01243303]],JO
210,[[6]],[[211]],[[15]],['low holistic'],['right'],['inverted'],['U0312.bmp'],['male'],[],['male'],[[1]],[[0.09823284]],JO
211,[[6]],[[212]],[[5]],['high holistic'],['fovea'],['inverted'],['U0076.bmp'],['female'],[],['male'],[[0]],[[0.0778004]],JO
212,[[6]],[[213]],[[11]],['high holistic'],['left'],['inverted'],['U0164.bmp'],['female'],[],['female'],[[1]],[[0.25909652]],JO
213,[[6]],[[214]],[[14]],['low holistic'],['left'],['inverted'],['U0228.bmp'],['male'],[],['female'],[[0]],[[0.04059693]],JO
214,[[6]],[[215]],[[19]],['high holistic'],['left'],['inverted'],['U0361.bmp'],['female'],[],['male'],[[0]],[[0.0950878]],JO
215,[[6]],[[216]],[[18]],['high holistic'],['right'],['inverted'],['U0359.bmp'],['male'],[],['female'],[[0]],[[0.12507459]],JO
216,[[6]],[[217]],[[13]],['high holistic'],['left'],['inverted'],['U0181.bmp'],['female'],[],['female'],[[1]],[[0.16824968]],JO
217,[[6]],[[218]],[[17]],['high holistic'],['right'],['upright'],['U0346.bmp'],['male'],[],['male'],[[1]],[[0.09016512]],JO
218,[[6]],[[219]],[[10]],['low holistic'],['left'],['inverted'],['U0159.bmp'],['female'],[],['female'],[[1]],[[0.07006529]],JO
219,[[6]],[[220]],[[7]],['low holistic'],['left'],['inverted'],['U0107.bmp'],['female'],[],['female'],[[1]],[[0.05109401]],JO
220,[[6]],[[221]],[[5]],['low holistic'],['left'],['upright'],['U0076.bmp'],['male'],[],['male'],[[1]],[[0.12065343]],JO
221,[[6]],[[222]],[[15]],['low holistic'],['right'],['upright'],['U0312.bmp'],['male'],[],['male'],[[1]],[[0.02850134]],JO
222,[[6]],[[223]],[[14]],['low holistic'],['left'],['upright'],['U0228.bmp'],['male'],[],['male'],[[1]],[[0.00018369]],JO
223,[[6]],[[224]],[[1]],['high holistic'],['right'],['upright'],['U0006.bmp'],['female'],[],['female'],[[1]],[[0.03436268]],JO
224,[[6]],[[225]],[[14]],['low holistic'],['right'],['upright'],['U0228.bmp'],['male'],[],['male'],[[1]],[[0.0001006]],JO
225,[[6]],[[226]],[[18]],['low holistic'],['left'],['upright'],['U0359.bmp'],['male'],[],['male'],[[1]],[[0.0401413]],JO
226,[[6]],[[227]],[[19]],['low holistic'],['right'],['inverted'],['U0361.bmp'],['female'],[],['male'],[[0]],[[0.07108015]],JO
227,[[6]],[[228]],[[16]],['low holistic'],['left'],['inverted'],['U0335.bmp'],['female'],[],['male'],[[0]],[[0.13126842]],JO
228,[[6]],[[229]],[[5]],['high holistic'],['left'],['inverted'],['U0076.bmp'],['female'],[],['male'],[[0]],[[0.14252261]],JO
229,[[6]],[[230]],[[20]],['high holistic'],['right'],['inverted'],['U0362.bmp'],['female'],[],['female'],[[1]],[[0.78646723]],JO
230,[[6]],[[231]],[[7]],['low holistic'],['right'],['inverted'],['U0107.bmp'],['female'],[],['female'],[[1]],[[0.15293657]],JO
231,[[6]],[[232]],[[11]],['high holistic'],['left'],['upright'],['U0164.bmp'],['female'],[],['female'],[[1]],[[0.27435454]],JO
232,[[6]],[[233]],[[20]],['high holistic'],['left'],['inverted'],['U0362.bmp'],['female'],[],['female'],[[1]],[[0.26452872]],JO
233,[[6]],[[234]],[[5]],['high holistic'],['left'],['inverted'],['U0076.bmp'],['female'],[],['female'],[[1]],[[0.08723617]],JO
234,[[6]],[[235]],[[7]],['low holistic'],['right'],['inverted'],['U0107.bmp'],['female'],[],['female'],[[1]],[[0.11374906]],JO
235,[[6]],[[236]],[[2]],['low holistic'],['left'],['inverted'],['U0014.bmp'],['male'],[],['male'],[[1]],[[0.15052419]],JO
236,[[6]],[[237]],[[17]],['high holistic'],['left'],['upright'],['U0346.bmp'],['male'],[],['male'],[[1]],[[0.0889515]],JO
237,[[6]],[[238]],[[11]],['high holistic'],['left'],['upright'],['U0164.bmp'],['female'],[],['male'],[[0]],[[0.09257072]],JO
238,[[6]],[[239]],[[5]],['low holistic'],['right'],['inverted'],['U0076.bmp'],['male'],[],['male'],[[1]],[[0.25677937]],JO
239,[[6]],[[240]],[[20]],['high holistic'],['right'],['inverted'],['U0362.bmp'],['female'],[],['male'],[[0]],[[0.33456894]],JO
240,[[6]],[[241]],[[4]],['low holistic'],['right'],['upright'],['U0061.bmp'],['female'],[],['female'],[[1]],[[0.08173809]],JO
241,[[6]],[[242]],[[16]],['low holistic'],['right'],['upright'],['U0335.bmp'],['female'],[],['female'],[[1]],[[5.04666183]],JO
242,[[6]],[[243]],[[18]],['low holistic'],['right'],['inverted'],['U0359.bmp'],['male'],[],['male'],[[1]],[[0.13124236]],JO
243,[[6]],[[244]],[[9]],['high holistic'],['left'],['upright'],['U0155.bmp'],['female'],[],['male'],[[0]],[[0.73471499]],JO
244,[[6]],[[245]],[[17]],['high holistic'],['right'],['upright'],['U0346.bmp'],['male'],[],['male'],[[1]],[[0.0001951]],JO
245,[[6]],[[246]],[[11]],['low holistic'],['right'],['inverted'],['U0164.bmp'],['female'],[],['female'],[[1]],[[0.0340044]],JO
246,[[6]],[[247]],[[6]],['low holistic'],['left'],['upright'],['U0106.bmp'],['male'],[],['male'],[[1]],[[0.32152587]],JO
247,[[6]],[[248]],[[18]],['low holistic'],['right'],['upright'],['U0359.bmp'],['male'],[],['male'],[[1]],[[0.25936935]],JO
248,[[6]],[[249]],[[5]],['low holistic'],['right'],['inverted'],['U0076.bmp'],['male'],[],['male'],[[1]],[[0.15274347]],JO
249,[[6]],[[250]],[[19]],['low holistic'],['left'],['inverted'],['U0361.bmp'],['female'],[],['female'],[[1]],[[0.27539328]],JO
250,[[6]],[[251]],[[2]],['low holistic'],['left'],['inverted'],['U0014.bmp'],['male'],[],['male'],[[1]],[[0.20777997]],JO
251,[[6]],[[252]],[[19]],['low holistic'],['right'],['upright'],['U0361.bmp'],['female'],[],['female'],[[1]],[[0.3746466]],JO
252,[[6]],[[253]],[[12]],['low holistic'],['left'],['upright'],['U0178.bmp'],['female'],[],['female'],[[1]],[[0.10480417]],JO
253,[[6]],[[254]],[[7]],['high holistic'],['right'],['inverted'],['U0107.bmp'],['female'],[],['male'],[[0]],[[0.30950976]],JO
254,[[6]],[[255]],[[11]],['high holistic'],['left'],['inverted'],['U0164.bmp'],['female'],[],['male'],[[0]],[[0.56076614]],JO
255,[[6]],[[256]],[[19]],['low holistic'],['right'],['upright'],['U0361.bmp'],['female'],[],['female'],[[1]],[[0.0981286]],JO
256,[[6]],[[257]],[[19]],['high holistic'],['fovea'],['inverted'],['U0361.bmp'],['female'],[],['male'],[[0]],[[0.56586654]],JO
257,[[6]],[[258]],[[13]],['high holistic'],['right'],['inverted'],['U0181.bmp'],['female'],[],['female'],[[1]],[[0.28634934]],JO
258,[[6]],[[259]],[[2]],['high holistic'],['left'],['upright'],['U0014.bmp'],['male'],[],['male'],[[1]],[[0.4610458]],JO
259,[[6]],[[260]],[[19]],['high holistic'],['left'],['upright'],['U0361.bmp'],['female'],[],['female'],[[1]],[[0.1141097]],JO
260,[[6]],[[261]],[[7]],['high holistic'],['left'],['upright'],['U0107.bmp'],['female'],[],['female'],[[1]],[[0.32496448]],JO
261,[[6]],[[262]],[[7]],['high holistic'],['fovea'],['upright'],['U0107.bmp'],['female'],[],['female'],[[1]],[[9.97213647e-05]],JO
262,[[6]],[[263]],[[9]],['high holistic'],['right'],['upright'],['U0155.bmp'],['female'],[],['female'],[[1]],[[0.48894392]],JO
263,[[6]],[[264]],[[9]],['low holistic'],['left'],['upright'],['U0155.bmp'],['male'],[],['male'],[[1]],[[0.00026236]],JO
264,[[6]],[[265]],[[18]],['high holistic'],['left'],['inverted'],['U0359.bmp'],['male'],[],['female'],[[0]],[[0.32579245]],JO
265,[[6]],[[266]],[[7]],['high holistic'],['left'],['inverted'],['U0107.bmp'],['female'],[],['female'],[[1]],[[0.0564445]],JO
266,[[6]],[[267]],[[11]],['high holistic'],['fovea'],['upright'],['U0164.bmp'],['female'],[],['female'],[[1]],[[0.06265127]],JO
267,[[6]],[[268]],[[3]],['high holistic'],['left'],['inverted'],['U0020.bmp'],['male'],[],['female'],[[0]],[[0.09251046]],JO
268,[[6]],[[269]],[[19]],['low holistic'],['left'],['inverted'],['U0361.bmp'],['female'],[],['female'],[[1]],[[4.7838486]],JO
269,[[6]],[[270]],[[15]],['high holistic'],['right'],['upright'],['U0312.bmp'],['male'],[],['male'],[[1]],[[0.29009345]],JO
270,[[6]],[[271]],[[18]],['high holistic'],['left'],['inverted'],['U0359.bmp'],['male'],[],['male'],[[1]],[[0.66104662]],JO
271,[[6]],[[272]],[[20]],['high holistic'],['left'],['upright'],['U0362.bmp'],['female'],[],['female'],[[1]],[[0.38761332]],JO
272,[[6]],[[273]],[[3]],['low holistic'],['left'],['upright'],['U0020.bmp'],['female'],[],['female'],[[1]],[[0.17892682]],JO
273,[[6]],[[274]],[[18]],['high holistic'],['right'],['inverted'],['U0359.bmp'],['male'],[],['female'],[[0]],[[0.3397739]],JO
274,[[6]],[[275]],[[19]],['low holistic'],['right'],['inverted'],['U0361.bmp'],['female'],[],['female'],[[1]],[[0.00013167]],JO
275,[[6]],[[276]],[[6]],['high holistic'],['right'],['upright'],['U0106.bmp'],['female'],[],['female'],[[1]],[[0.14148678]],JO
276,[[6]],[[277]],[[12]],['low holistic'],['fovea'],['upright'],['U0178.bmp'],['female'],[],['female'],[[1]],[[0.41652699]],JO
277,[[6]],[[278]],[[10]],['low holistic'],['left'],['upright'],['U0159.bmp'],['female'],[],['female'],[[1]],[[0.0001108]],JO
278,[[6]],[[279]],[[19]],['high holistic'],['right'],['inverted'],['U0361.bmp'],['female'],[],['male'],[[0]],[[0.39259361]],JO
279,[[6]],[[280]],[[1]],['low holistic'],['right'],['inverted'],['U0006.bmp'],['female'],[],['female'],[[1]],[[0.12814189]],JO
280,[[6]],[[281]],[[17]],['high holistic'],['right'],['inverted'],['U0346.bmp'],['male'],[],['female'],[[0]],[[0.1949878]],JO
281,[[6]],[[282]],[[1]],['low holistic'],['left'],['inverted'],['U0006.bmp'],['female'],[],['female'],[[1]],[[0.00048139]],JO
282,[[6]],[[283]],[[11]],['high holistic'],['fovea'],['upright'],['U0164.bmp'],['female'],[],['female'],[[1]],[[0.0512225]],JO
283,[[6]],[[284]],[[4]],['low holistic'],['right'],['upright'],['U0061.bmp'],['female'],[],['female'],[[1]],[[0.06522234]],JO
284,[[6]],[[285]],[[7]],['low holistic'],['left'],['inverted'],['U0107.bmp'],['female'],[],['female'],[[1]],[[0.03139566]],JO
285,[[6]],[[286]],[[9]],['high holistic'],['left'],['upright'],['U0155.bmp'],['female'],[],['male'],[[0]],[[1.14293767]],JO
286,[[6]],[[287]],[[17]],['high holistic'],['right'],['inverted'],['U0346.bmp'],['male'],[],['male'],[[1]],[[0.47271325]],JO
287,[[6]],[[288]],[[17]],['low holistic'],['left'],['inverted'],['U0346.bmp'],['female'],[],['male'],[[0]],[[0.38127778]],JO
288,[[6]],[[289]],[[4]],['high holistic'],['left'],['upright'],['U0061.bmp'],['female'],[],['female'],[[1]],[[0.29394414]],JO
289,[[6]],[[290]],[[1]],['high holistic'],['left'],['upright'],['U0006.bmp'],['female'],[],['female'],[[1]],[[0.3866618]],JO
290,[[6]],[[291]],[[1]],['high holistic'],['right'],['inverted'],['U0006.bmp'],['female'],[],['female'],[[1]],[[0.05887863]],JO
291,[[6]],[[292]],[[7]],['high holistic'],['left'],['upright'],['U0107.bmp'],['female'],[],['female'],[[1]],[[0.41650625]],JO
292,[[6]],[[293]],[[8]],['low holistic'],['right'],['upright'],['U0137.bmp'],['male'],[],['male'],[[1]],[[0.21559394]],JO
293,[[6]],[[294]],[[17]],['low holistic'],['left'],['inverted'],['U0346.bmp'],['female'],[],['female'],[[1]],[[0.19928881]],JO
294,[[6]],[[295]],[[20]],['high holistic'],['left'],['upright'],['U0362.bmp'],['female'],[],['female'],[[1]],[[0.1519002]],JO
295,[[6]],[[296]],[[16]],['low holistic'],['right'],['inverted'],['U0335.bmp'],['female'],[],['female'],[[1]],[[0.12094804]],JO
296,[[6]],[[297]],[[13]],['low holistic'],['left'],['upright'],['U0181.bmp'],['male'],[],['male'],[[1]],[[0.084332]],JO
297,[[6]],[[298]],[[16]],['low holistic'],['fovea'],['upright'],['U0335.bmp'],['female'],[],['female'],[[1]],[[0.00038564]],JO
298,[[6]],[[299]],[[10]],['high holistic'],['left'],['inverted'],['U0159.bmp'],['male'],[],['female'],[[0]],[[0.39214316]],JO
299,[[6]],[[300]],[[11]],['high holistic'],['left'],['inverted'],['U0164.bmp'],['female'],[],['female'],[[1]],[[0.08818926]],JO
300,[[6]],[[301]],[[6]],['low holistic'],['right'],['inverted'],['U0106.bmp'],['male'],[],['male'],[[1]],[[0.10072264]],JO
301,[[6]],[[302]],[[10]],['low holistic'],['right'],['inverted'],['U0159.bmp'],['female'],[],['female'],[[1]],[[0.06466919]],JO
302,[[6]],[[303]],[[18]],['low holistic'],['right'],['inverted'],['U0359.bmp'],['male'],[],['male'],[[1]],[[0.12604438]],JO
303,[[6]],[[304]],[[5]],['low holistic'],['right'],['upright'],['U0076.bmp'],['male'],[],['male'],[[1]],[[0.06671059]],JO
304,[[6]],[[305]],[[11]],['high holistic'],['right'],['upright'],['U0164.bmp'],['female'],[],['female'],[[1]],[[0.00012849]],JO
305,[[6]],[[306]],[[12]],['low holistic'],['left'],['upright'],['U0178.bmp'],['female'],[],['female'],[[1]],[[0.03013049]],JO
306,[[6]],[[307]],[[7]],['low holistic'],['fovea'],['inverted'],['U0107.bmp'],['female'],[],['female'],[[1]],[[0.20650673]],JO
307,[[6]],[[308]],[[3]],['high holistic'],['left'],['inverted'],['U0020.bmp'],['male'],[],['female'],[[0]],[[0.1337173]],JO
308,[[6]],[[309]],[[8]],['high holistic'],['left'],['upright'],['U0137.bmp'],['female'],[],['female'],[[1]],[[2.23976628]],JO
309,[[6]],[[310]],[[5]],['low holistic'],['fovea'],['upright'],['U0076.bmp'],['male'],[],['male'],[[1]],[[0.07016071]],JO
310,[[6]],[[311]],[[12]],['high holistic'],['right'],['inverted'],['U0178.bmp'],['male'],[],['male'],[[1]],[[0.06070523]],JO
311,[[6]],[[312]],[[6]],['low holistic'],['fovea'],['upright'],['U0106.bmp'],['male'],[],['male'],[[1]],[[0.21760343]],JO
312,[[6]],[[313]],[[4]],['high holistic'],['left'],['inverted'],['U0061.bmp'],['female'],[],['female'],[[1]],[[0.34551792]],JO
313,[[6]],[[314]],[[10]],['low holistic'],['right'],['inverted'],['U0159.bmp'],['female'],[],['female'],[[1]],[[0.05985129]],JO
314,[[6]],[[315]],[[5]],['low holistic'],['right'],['inverted'],['U0076.bmp'],['male'],[],['male'],[[1]],[[0.07993717]],JO
315,[[6]],[[316]],[[11]],['high holistic'],['left'],['inverted'],['U0164.bmp'],['female'],[],['female'],[[1]],[[0.13232318]],JO
316,[[6]],[[317]],[[2]],['low holistic'],['left'],['upright'],['U0014.bmp'],['male'],[],['male'],[[1]],[[0.44130062]],JO
317,[[6]],[[318]],[[10]],['low holistic'],['left'],['upright'],['U0159.bmp'],['female'],[],['female'],[[1]],[[0.70293679]],JO
318,[[6]],[[319]],[[20]],['high holistic'],['fovea'],['inverted'],['U0362.bmp'],['female'],[],['male'],[[0]],[[0.88239846]],JO
319,[[6]],[[320]],[[15]],['low holistic'],['right'],['inverted'],['U0312.bmp'],['male'],[],['male'],[[1]],[[0.38987711]],JO
320,[[6]],[[321]],[[11]],['high holistic'],['left'],['inverted'],['U0164.bmp'],['female'],[],['female'],[[1]],[[0.21536391]],JO
321,[[6]],[[322]],[[3]],['high holistic'],['fovea'],['upright'],['U0020.bmp'],['male'],[],['male'],[[1]],[[0.9593983]],JO
322,[[6]],[[323]],[[8]],['low holistic'],['right'],['inverted'],['U0137.bmp'],['male'],[],['male'],[[1]],[[0.15988366]],JO
323,[[6]],[[324]],[[2]],['high holistic'],['left'],['upright'],['U0014.bmp'],['male'],[],['male'],[[1]],[[0.26706867]],JO
324,[[6]],[[325]],[[14]],['low holistic'],['right'],['upright'],['U0228.bmp'],['male'],[],['male'],[[1]],[[0.21523079]],JO
325,[[6]],[[326]],[[11]],['high holistic'],['right'],['inverted'],['U0164.bmp'],['female'],[],['male'],[[0]],[[0.35959889]],JO
326,[[6]],[[327]],[[4]],['high holistic'],['right'],['inverted'],['U0061.bmp'],['female'],[],['male'],[[0]],[[0.44771248]],JO
327,[[6]],[[328]],[[9]],['high holistic'],['left'],['inverted'],['U0155.bmp'],['female'],[],['male'],[[0]],[[0.57458472]],JO
328,[[6]],[[329]],[[15]],['low holistic'],['right'],['upright'],['U0312.bmp'],['male'],[],['male'],[[1]],[[0.07197934]],JO
329,[[6]],[[330]],[[9]],['low holistic'],['fovea'],['upright'],['U0155.bmp'],['male'],[],['male'],[[1]],[[0.00026768]],JO
330,[[6]],[[331]],[[17]],['low holistic'],['right'],['inverted'],['U0346.bmp'],['female'],[],['female'],[[1]],[[0.51506491]],JO
331,[[6]],[[332]],[[19]],['low holistic'],['right'],['upright'],['U0361.bmp'],['female'],[],['female'],[[1]],[[0.00010765]],JO
332,[[6]],[[333]],[[11]],['high holistic'],['right'],['inverted'],['U0164.bmp'],['female'],[],['female'],[[1]],[[0.15163283]],JO
333,[[6]],[[334]],[[9]],['low holistic'],['right'],['upright'],['U0155.bmp'],['male'],[],['female'],[[0]],[[0.06530383]],JO
334,[[6]],[[335]],[[4]],['low holistic'],['right'],['upright'],['U0061.bmp'],['female'],[],['female'],[[1]],[[0.00010369]],JO
335,[[6]],[[336]],[[12]],['low holistic'],['right'],['upright'],['U0178.bmp'],['female'],[],['female'],[[1]],[[9.94931906e-05]],JO
336,[[6]],[[337]],[[9]],['high holistic'],['fovea'],['upright'],['U0155.bmp'],['female'],[],['female'],[[1]],[[0.38146651]],JO
337,[[6]],[[338]],[[2]],['high holistic'],['left'],['inverted'],['U0014.bmp'],['male'],[],['male'],[[1]],[[0.27166143]],JO
338,[[6]],[[339]],[[8]],['high holistic'],['left'],['upright'],['U0137.bmp'],['female'],[],['female'],[[1]],[[0.2133712]],JO
339,[[6]],[[340]],[[6]],['low holistic'],['right'],['inverted'],['U0106.bmp'],['male'],[],['male'],[[1]],[[0.31588987]],JO
340,[[6]],[[341]],[[8]],['high holistic'],['right'],['inverted'],['U0137.bmp'],['female'],[],['female'],[[1]],[[0.3200479]],JO
341,[[6]],[[342]],[[11]],['high holistic'],['fovea'],['inverted'],['U0164.bmp'],['female'],[],['female'],[[1]],[[0.20955176]],JO
342,[[6]],[[343]],[[16]],['high holistic'],['fovea'],['inverted'],['U0335.bmp'],['female'],[],['male'],[[0]],[[0.38663314]],JO
343,[[6]],[[344]],[[8]],['low holistic'],['left'],['upright'],['U0137.bmp'],['male'],[],['male'],[[1]],[[0.11393575]],JO
344,[[6]],[[345]],[[20]],['high holistic'],['left'],['inverted'],['U0362.bmp'],['female'],[],['female'],[[1]],[[0.20479188]],JO
345,[[6]],[[346]],[[7]],['low holistic'],['right'],['inverted'],['U0107.bmp'],['female'],[],['female'],[[1]],[[0.00544167]],JO
346,[[6]],[[347]],[[7]],['high holistic'],['left'],['upright'],['U0107.bmp'],['female'],[],['female'],[[1]],[[0.19671531]],JO
347,[[6]],[[348]],[[16]],['low holistic'],['right'],['inverted'],['U0335.bmp'],['female'],[],['female'],[[1]],[[0.00027551]],JO
348,[[6]],[[349]],[[2]],['low holistic'],['left'],['inverted'],['U0014.bmp'],['male'],[],['male'],[[1]],[[0.62864847]],JO
349,[[6]],[[350]],[[5]],['high holistic'],['right'],['upright'],['U0076.bmp'],['female'],[],['female'],[[1]],[[0.10734111]],JO
350,[[6]],[[351]],[[6]],['low holistic'],['right'],['inverted'],['U0106.bmp'],['male'],[],['male'],[[1]],[[0.11052192]],JO
351,[[6]],[[352]],[[20]],['high holistic'],['left'],['upright'],['U0362.bmp'],['female'],[],['female'],[[1]],[[0.21145569]],JO
352,[[6]],[[353]],[[10]],['high holistic'],['left'],['upright'],['U0159.bmp'],['male'],[],['male'],[[1]],[[0.33871327]],JO
353,[[6]],[[354]],[[13]],['high holistic'],['right'],['upright'],['U0181.bmp'],['female'],[],['female'],[[1]],[[0.08661543]],JO
354,[[6]],[[355]],[[20]],['low holistic'],['left'],['inverted'],['U0362.bmp'],['male'],[],['male'],[[1]],[[0.514999]],JO
355,[[6]],[[356]],[[14]],['high holistic'],['right'],['inverted'],['U0228.bmp'],['male'],[],['female'],[[0]],[[0.00010702]],JO
356,[[6]],[[357]],[[14]],['low holistic'],['right'],['upright'],['U0228.bmp'],['male'],[],['male'],[[1]],[[0.31620726]],JO
357,[[6]],[[358]],[[10]],['high holistic'],['left'],['inverted'],['U0159.bmp'],['male'],[],['female'],[[0]],[[0.04066432]],JO
358,[[6]],[[359]],[[13]],['high holistic'],['right'],['upright'],['U0181.bmp'],['female'],[],['female'],[[1]],[[0.19173802]],JO
359,[[6]],[[360]],[[2]],['high holistic'],['left'],['upright'],['U0014.bmp'],['male'],[],['male'],[[1]],[[0.08781146]],JO
360,[[6]],[[361]],[[18]],['low holistic'],['left'],['upright'],['U0359.bmp'],['male'],[],['male'],[[1]],[[0.22763364]],JO
361,[[6]],[[362]],[[8]],['low holistic'],['left'],['upright'],['U0137.bmp'],['male'],[],['male'],[[1]],[[0.16396258]],JO
362,[[6]],[[363]],[[20]],['low holistic'],['left'],['inverted'],['U0362.bmp'],['male'],[],['male'],[[1]],[[0.0532595]],JO
363,[[6]],[[364]],[[13]],['low holistic'],['right'],['inverted'],['U0181.bmp'],['male'],[],['male'],[[1]],[[0.05114582]],JO
364,[[6]],[[365]],[[7]],['low holistic'],['left'],['inverted'],['U0107.bmp'],['female'],[],['female'],[[1]],[[0.10349469]],JO
365,[[6]],[[366]],[[6]],['high holistic'],['right'],['inverted'],['U0106.bmp'],['female'],[],['female'],[[1]],[[0.08413244]],JO
366,[[6]],[[367]],[[18]],['low holistic'],['left'],['inverted'],['U0359.bmp'],['male'],[],['male'],[[1]],[[0.20089002]],JO
367,[[6]],[[368]],[[12]],['high holistic'],['right'],['upright'],['U0178.bmp'],['male'],[],['male'],[[1]],[[0.40020546]],JO
368,[[6]],[[369]],[[4]],['low holistic'],['right'],['upright'],['U0061.bmp'],['female'],[],['female'],[[1]],[[0.01577921]],JO
369,[[6]],[[370]],[[1]],['low holistic'],['right'],['inverted'],['U0006.bmp'],['female'],[],['female'],[[1]],[[0.19106008]],JO
370,[[6]],[[371]],[[20]],['low holistic'],['right'],['upright'],['U0362.bmp'],['male'],[],['male'],[[1]],[[0.15306307]],JO
371,[[6]],[[372]],[[11]],['low holistic'],['right'],['inverted'],['U0164.bmp'],['female'],[],['female'],[[1]],[[0.00231751]],JO
372,[[6]],[[373]],[[18]],['low holistic'],['left'],['upright'],['U0359.bmp'],['male'],[],['male'],[[1]],[[0.12214242]],JO
373,[[6]],[[374]],[[20]],['high holistic'],['left'],['upright'],['U0362.bmp'],['female'],[],['female'],[[1]],[[0.00010139]],JO
374,[[6]],[[375]],[[3]],['high holistic'],['right'],['inverted'],['U0020.bmp'],['male'],[],['male'],[[1]],[[0.00010584]],JO
375,[[6]],[[376]],[[4]],['low holistic'],['left'],['inverted'],['U0061.bmp'],['female'],[],['female'],[[1]],[[0.34852174]],JO
376,[[6]],[[377]],[[3]],['low holistic'],['right'],['upright'],['U0020.bmp'],['female'],[],['female'],[[1]],[[0.03915229]],JO
377,[[6]],[[378]],[[6]],['low holistic'],['left'],['upright'],['U0106.bmp'],['male'],[],['male'],[[1]],[[0.10090425]],JO
378,[[6]],[[379]],[[4]],['low holistic'],['left'],['inverted'],['U0061.bmp'],['female'],[],['female'],[[1]],[[0.11251199]],JO
379,[[6]],[[380]],[[5]],['high holistic'],['right'],['upright'],['U0076.bmp'],['female'],[],['female'],[[1]],[[0.18007119]],JO
380,[[6]],[[381]],[[6]],['high holistic'],['right'],['inverted'],['U0106.bmp'],['female'],[],['female'],[[1]],[[0.03718988]],JO
381,[[6]],[[382]],[[10]],['high holistic'],['right'],['upright'],['U0159.bmp'],['male'],[],['female'],[[0]],[[0.04367279]],JO
382,[[6]],[[383]],[[15]],['high holistic'],['right'],['inverted'],['U0312.bmp'],['male'],[],['female'],[[0]],[[0.40238496]],JO
383,[[6]],[[384]],[[6]],['high holistic'],['right'],['inverted'],['U0106.bmp'],['female'],[],['female'],[[1]],[[0.1785568]],JO
384,[[6]],[[385]],[[7]],['high holistic'],['right'],['inverted'],['U0107.bmp'],['female'],[],['female'],[[1]],[[0.019342]],JO
385,[[6]],[[386]],[[8]],['high holistic'],['left'],['upright'],['U0137.bmp'],['female'],[],['male'],[[0]],[[0.00031856]],JO
386,[[6]],[[387]],[[13]],['low holistic'],['left'],['upright'],['U0181.bmp'],['male'],[],['male'],[[1]],[[0.12318162]],JO
387,[[6]],[[388]],[[2]],['low holistic'],['left'],['upright'],['U0014.bmp'],['male'],[],['male'],[[1]],[[0.75027044]],JO
388,[[6]],[[389]],[[16]],['high holistic'],['right'],['upright'],['U0335.bmp'],['female'],[],['female'],[[1]],[[0.14366213]],JO
389,[[6]],[[390]],[[11]],['high holistic'],['left'],['upright'],['U0164.bmp'],['female'],[],['female'],[[1]],[[0.06497066]],JO
390,[[6]],[[391]],[[15]],['low holistic'],['right'],['upright'],['U0312.bmp'],['male'],[],['male'],[[1]],[[0.55402491]],JO
391,[[6]],[[392]],[[10]],['high holistic'],['right'],['inverted'],['U0159.bmp'],['male'],[],['female'],[[0]],[[0.53950006]],JO
392,[[6]],[[393]],[[20]],['low holistic'],['left'],['upright'],['U0362.bmp'],['male'],[],['male'],[[1]],[[0.3346856]],JO
393,[[6]],[[394]],[[19]],['low holistic'],['left'],['inverted'],['U0361.bmp'],['female'],[],['female'],[[1]],[[0.39291819]],JO
394,[[6]],[[395]],[[11]],['low holistic'],['fovea'],['upright'],['U0164.bmp'],['female'],[],['male'],[[0]],[[0.1876174]],JO
395,[[6]],[[396]],[[11]],['low holistic'],['right'],['inverted'],['U0164.bmp'],['female'],[],['male'],[[0]],[[0.14407491]],JO
396,[[6]],[[397]],[[16]],['high holistic'],['right'],['inverted'],['U0335.bmp'],['female'],[],['male'],[[0]],[[0.29030422]],JO
397,[[6]],[[398]],[[6]],['low holistic'],['right'],['inverted'],['U0106.bmp'],['male'],[],['male'],[[1]],[[0.86281424]],JO
398,[[6]],[[399]],[[19]],['low holistic'],['left'],['inverted'],['U0361.bmp'],['female'],[],['male'],[[0]],[[9.99998301e-05]],JO
399,[[6]],[[400]],[[2]],['low holistic'],['right'],['inverted'],['U0014.bmp'],['male'],[],['male'],[[1]],[[0.16398582]],JO
400,[[6]],[[401]],[[12]],['low holistic'],['left'],['inverted'],['U0178.bmp'],['female'],[],['female'],[[1]],[[0.00015113]],JO
401,[[6]],[[402]],[[6]],['high holistic'],['fovea'],['inverted'],['U0106.bmp'],['female'],[],['female'],[[1]],[[0.01432328]],JO
402,[[6]],[[403]],[[14]],['low holistic'],['left'],['upright'],['U0228.bmp'],['male'],[],['male'],[[1]],[[0.19626584]],JO
403,[[6]],[[404]],[[8]],['low holistic'],['right'],['upright'],['U0137.bmp'],['male'],[],['male'],[[1]],[[0.34698493]],JO
404,[[6]],[[405]],[[9]],['high holistic'],['right'],['upright'],['U0155.bmp'],['female'],[],['male'],[[0]],[[0.26970285]],JO
405,[[6]],[[406]],[[1]],['high holistic'],['right'],['inverted'],['U0006.bmp'],['female'],[],['male'],[[0]],[[0.0420772]],JO
406,[[6]],[[407]],[[11]],['low holistic'],['fovea'],['inverted'],['U0164.bmp'],['female'],[],['female'],[[1]],[[0.01935421]],JO
407,[[6]],[[408]],[[15]],['low holistic'],['left'],['inverted'],['U0312.bmp'],['male'],[],['male'],[[1]],[[0.21637229]],JO
408,[[6]],[[409]],[[11]],['high holistic'],['left'],['inverted'],['U0164.bmp'],['female'],[],['female'],[[1]],[[0.33699643]],JO
409,[[6]],[[410]],[[3]],['low holistic'],['right'],['inverted'],['U0020.bmp'],['female'],[],['female'],[[1]],[[0.65871933]],JO
410,[[6]],[[411]],[[19]],['high holistic'],['right'],['upright'],['U0361.bmp'],['female'],[],['female'],[[1]],[[0.49738393]],JO
411,[[6]],[[412]],[[16]],['high holistic'],['left'],['upright'],['U0335.bmp'],['female'],[],['female'],[[1]],[[0.27729846]],JO
412,[[6]],[[413]],[[6]],['high holistic'],['left'],['upright'],['U0106.bmp'],['female'],[],['female'],[[1]],[[0.20043495]],JO
413,[[6]],[[414]],[[6]],['low holistic'],['left'],['upright'],['U0106.bmp'],['male'],[],['male'],[[1]],[[0.19289422]],JO
414,[[6]],[[415]],[[4]],['low holistic'],['left'],['upright'],['U0061.bmp'],['female'],[],['female'],[[1]],[[0.2177222]],JO
415,[[6]],[[416]],[[18]],['high holistic'],['right'],['upright'],['U0359.bmp'],['male'],[],['female'],[[0]],[[0.62538087]],JO
416,[[6]],[[417]],[[2]],['high holistic'],['right'],['upright'],['U0014.bmp'],['male'],[],['male'],[[1]],[[0.21689162]],JO
417,[[6]],[[418]],[[19]],['high holistic'],['right'],['upright'],['U0361.bmp'],['female'],[],['female'],[[1]],[[0.07969916]],JO
418,[[6]],[[419]],[[12]],['low holistic'],['right'],['inverted'],['U0178.bmp'],['female'],[],['female'],[[1]],[[0.58108166]],JO
419,[[6]],[[420]],[[17]],['high holistic'],['left'],['inverted'],['U0346.bmp'],['male'],[],['male'],[[1]],[[0.26016507]],JO
420,[[6]],[[421]],[[17]],['high holistic'],['left'],['upright'],['U0346.bmp'],['male'],[],['male'],[[1]],[[0.00021949]],JO
421,[[6]],[[422]],[[16]],['high holistic'],['right'],['inverted'],['U0335.bmp'],['female'],[],['male'],[[0]],[[0.23522405]],JO
422,[[6]],[[423]],[[20]],['high holistic'],['fovea'],['upright'],['U0362.bmp'],['female'],[],['female'],[[1]],[[0.13723529]],JO
423,[[6]],[[424]],[[16]],['high holistic'],['left'],['inverted'],['U0335.bmp'],['female'],[],['male'],[[0]],[[0.22880482]],JO
424,[[6]],[[425]],[[11]],['high holistic'],['right'],['upright'],['U0164.bmp'],['female'],[],['female'],[[1]],[[0.15426439]],JO
425,[[6]],[[426]],[[4]],['high holistic'],['left'],['inverted'],['U0061.bmp'],['female'],[],['male'],[[0]],[[0.21200598]],JO
426,[[6]],[[427]],[[5]],['low holistic'],['right'],['inverted'],['U0076.bmp'],['male'],[],['male'],[[1]],[[0.3066237]],JO
427,[[6]],[[428]],[[5]],['low holistic'],['right'],['upright'],['U0076.bmp'],['male'],[],['male'],[[1]],[[0.2309662]],JO
428,[[6]],[[429]],[[20]],['low holistic'],['right'],['inverted'],['U0362.bmp'],['male'],[],['male'],[[1]],[[0.48583816]],JO
429,[[6]],[[430]],[[18]],['low holistic'],['left'],['inverted'],['U0359.bmp'],['male'],[],['male'],[[1]],[[0.14706685]],JO
430,[[6]],[[431]],[[17]],['low holistic'],['right'],['inverted'],['U0346.bmp'],['female'],[],['female'],[[1]],[[0.24472944]],JO
431,[[6]],[[432]],[[11]],['low holistic'],['left'],['inverted'],['U0164.bmp'],['female'],[],['female'],[[1]],[[0.47495419]],JO
432,[[6]],[[433]],[[1]],['low holistic'],['left'],['upright'],['U0006.bmp'],['female'],[],['female'],[[1]],[[0.02172158]],JO
433,[[6]],[[434]],[[2]],['high holistic'],['left'],['upright'],['U0014.bmp'],['male'],[],['male'],[[1]],[[0.15821505]],JO
434,[[6]],[[435]],[[1]],['high holistic'],['right'],['inverted'],['U0006.bmp'],['female'],[],['female'],[[1]],[[0.66964916]],JO
435,[[6]],[[436]],[[10]],['high holistic'],['right'],['inverted'],['U0159.bmp'],['male'],[],['male'],[[1]],[[0.82817567]],JO
436,[[6]],[[437]],[[4]],['high holistic'],['left'],['inverted'],['U0061.bmp'],['female'],[],['male'],[[0]],[[0.11539069]],JO
437,[[6]],[[438]],[[16]],['low holistic'],['right'],['upright'],['U0335.bmp'],['female'],[],['female'],[[1]],[[0.00736631]],JO
438,[[6]],[[439]],[[1]],['high holistic'],['right'],['upright'],['U0006.bmp'],['female'],[],['female'],[[1]],[[0.11669499]],JO
439,[[6]],[[440]],[[7]],['low holistic'],['left'],['inverted'],['U0107.bmp'],['female'],[],['female'],[[1]],[[0.24867205]],JO
440,[[6]],[[441]],[[17]],['low holistic'],['right'],['inverted'],['U0346.bmp'],['female'],[],['female'],[[1]],[[0.67071758]],JO
441,[[6]],[[442]],[[5]],['low holistic'],['right'],['inverted'],['U0076.bmp'],['male'],[],['male'],[[1]],[[0.17087762]],JO
442,[[6]],[[443]],[[5]],['low holistic'],['fovea'],['upright'],['U0076.bmp'],['male'],[],['male'],[[1]],[[0.00021564]],JO
443,[[6]],[[444]],[[20]],['high holistic'],['left'],['inverted'],['U0362.bmp'],['female'],[],['male'],[[0]],[[0.26659092]],JO
444,[[6]],[[445]],[[16]],['low holistic'],['fovea'],['upright'],['U0335.bmp'],['female'],[],['female'],[[1]],[[0.04067709]],JO
445,[[6]],[[446]],[[10]],['high holistic'],['left'],['upright'],['U0159.bmp'],['male'],[],['male'],[[1]],[[0.13574214]],JO
446,[[6]],[[447]],[[7]],['high holistic'],['left'],['upright'],['U0107.bmp'],['female'],[],['male'],[[0]],[[0.22658046]],JO
447,[[6]],[[448]],[[17]],['low holistic'],['left'],['inverted'],['U0346.bmp'],['female'],[],['female'],[[1]],[[0.17678839]],JO
448,[[6]],[[449]],[[10]],['low holistic'],['fovea'],['upright'],['U0159.bmp'],['female'],[],['female'],[[1]],[[0.12080415]],JO
449,[[6]],[[450]],[[19]],['low holistic'],['left'],['inverted'],['U0361.bmp'],['female'],[],['female'],[[1]],[[0.09159898]],JO
450,[[6]],[[451]],[[19]],['high holistic'],['right'],['inverted'],['U0361.bmp'],['female'],[],['male'],[[0]],[[0.0973566]],JO
451,[[6]],[[452]],[[20]],['high holistic'],['right'],['upright'],['U0362.bmp'],['female'],[],['female'],[[1]],[[0.18091986]],JO
452,[[6]],[[453]],[[18]],['high holistic'],['right'],['inverted'],['U0359.bmp'],['male'],[],['male'],[[1]],[[0.60566006]],JO
453,[[6]],[[454]],[[4]],['low holistic'],['right'],['upright'],['U0061.bmp'],['female'],[],['female'],[[1]],[[0.03747496]],JO
454,[[6]],[[455]],[[8]],['low holistic'],['right'],['inverted'],['U0137.bmp'],['male'],[],['male'],[[1]],[[0.19638608]],JO
455,[[6]],[[456]],[[20]],['low holistic'],['right'],['upright'],['U0362.bmp'],['male'],[],['male'],[[1]],[[0.13959572]],JO
456,[[6]],[[457]],[[20]],['high holistic'],['right'],['upright'],['U0362.bmp'],['female'],[],['female'],[[1]],[[0.15821785]],JO
457,[[6]],[[458]],[[5]],['high holistic'],['left'],['upright'],['U0076.bmp'],['female'],[],['female'],[[1]],[[0.14474728]],JO
458,[[6]],[[459]],[[5]],['high holistic'],['left'],['inverted'],['U0076.bmp'],['female'],[],['female'],[[1]],[[0.06628144]],JO
459,[[6]],[[460]],[[13]],['low holistic'],['left'],['inverted'],['U0181.bmp'],['male'],[],['female'],[[0]],[[0.01428762]],JO
460,[[6]],[[461]],[[4]],['high holistic'],['right'],['inverted'],['U0061.bmp'],['female'],[],['female'],[[1]],[[0.6372321]],JO
461,[[6]],[[462]],[[8]],['high holistic'],['left'],['inverted'],['U0137.bmp'],['female'],[],['female'],[[1]],[[0.33115035]],JO
462,[[6]],[[463]],[[12]],['low holistic'],['right'],['upright'],['U0178.bmp'],['female'],[],['female'],[[1]],[[0.03895607]],JO
463,[[6]],[[464]],[[4]],['high holistic'],['left'],['inverted'],['U0061.bmp'],['female'],[],['male'],[[0]],[[0.54190223]],JO
464,[[6]],[[465]],[[17]],['high holistic'],['left'],['upright'],['U0346.bmp'],['male'],[],['male'],[[1]],[[0.19007867]],JO
465,[[6]],[[466]],[[6]],['low holistic'],['right'],['upright'],['U0106.bmp'],['male'],[],['male'],[[1]],[[0.18173835]],JO
466,[[6]],[[467]],[[19]],['low holistic'],['left'],['inverted'],['U0361.bmp'],['female'],[],['female'],[[1]],[[0.08058744]],JO
467,[[6]],[[468]],[[18]],['high holistic'],['right'],['inverted'],['U0359.bmp'],['male'],[],['male'],[[1]],[[0.11610806]],JO
468,[[6]],[[469]],[[17]],['high holistic'],['left'],['upright'],['U0346.bmp'],['male'],[],['male'],[[1]],[[0.20734011]],JO
469,[[6]],[[470]],[[7]],['high holistic'],['left'],['upright'],['U0107.bmp'],['female'],[],['female'],[[1]],[[0.21473244]],JO
470,[[6]],[[471]],[[6]],['low holistic'],['right'],['upright'],['U0106.bmp'],['male'],[],['male'],[[1]],[[0.83064078]],JO
471,[[6]],[[472]],[[1]],['high holistic'],['left'],['inverted'],['U0006.bmp'],['female'],[],['female'],[[1]],[[0.17129725]],JO
472,[[6]],[[473]],[[11]],['low holistic'],['left'],['upright'],['U0164.bmp'],['female'],[],['female'],[[1]],[[0.09273767]],JO
473,[[6]],[[474]],[[3]],['high holistic'],['right'],['inverted'],['U0020.bmp'],['male'],[],['female'],[[0]],[[0.26507377]],JO
474,[[6]],[[475]],[[19]],['low holistic'],['right'],['upright'],['U0361.bmp'],['female'],[],['female'],[[1]],[[0.06163876]],JO
475,[[6]],[[476]],[[7]],['low holistic'],['right'],['upright'],['U0107.bmp'],['female'],[],['female'],[[1]],[[0.31609336]],JO
476,[[6]],[[477]],[[2]],['low holistic'],['right'],['inverted'],['U0014.bmp'],['male'],[],['male'],[[1]],[[0.13447041]],JO
477,[[6]],[[478]],[[19]],['high holistic'],['left'],['inverted'],['U0361.bmp'],['female'],[],['male'],[[0]],[[0.12774975]],JO
478,[[6]],[[479]],[[13]],['low holistic'],['left'],['upright'],['U0181.bmp'],['male'],[],['male'],[[1]],[[0.03722325]],JO
479,[[6]],[[480]],[[3]],['high holistic'],['right'],['upright'],['U0020.bmp'],['male'],[],['male'],[[1]],[[0.1528353]],JO
480,[[6]],[[481]],[[6]],['high holistic'],['right'],['upright'],['U0106.bmp'],['female'],[],['male'],[[0]],[[0.00030593]],JO
481,[[6]],[[482]],[[12]],['low holistic'],['left'],['upright'],['U0178.bmp'],['female'],[],['female'],[[1]],[[0.00024108]],JO
482,[[6]],[[483]],[[20]],['low holistic'],['left'],['upright'],['U0362.bmp'],['male'],[],['male'],[[1]],[[0.00293064]],JO
483,[[6]],[[484]],[[18]],['high holistic'],['right'],['upright'],['U0359.bmp'],['male'],[],['female'],[[0]],[[0.21059341]],JO
484,[[6]],[[485]],[[16]],['low holistic'],['left'],['inverted'],['U0335.bmp'],['female'],[],['female'],[[1]],[[0.73777155]],JO
485,[[6]],[[486]],[[2]],['high holistic'],['right'],['inverted'],['U0014.bmp'],['male'],[],['male'],[[1]],[[0.26169811]],JO
486,[[6]],[[487]],[[5]],['low holistic'],['right'],['inverted'],['U0076.bmp'],['male'],[],['male'],[[1]],[[0.09734062]],JO
487,[[6]],[[488]],[[6]],['low holistic'],['right'],['upright'],['U0106.bmp'],['male'],[],['male'],[[1]],[[0.07014968]],JO
488,[[6]],[[489]],[[12]],['low holistic'],['right'],['upright'],['U0178.bmp'],['female'],[],['female'],[[1]],[[0.03511337]],JO
489,[[6]],[[490]],[[18]],['high holistic'],['right'],['inverted'],['U0359.bmp'],['male'],[],['female'],[[0]],[[0.49593467]],JO
490,[[6]],[[491]],[[6]],['high holistic'],['right'],['upright'],['U0106.bmp'],['female'],[],['female'],[[1]],[[0.54793913]],JO
491,[[6]],[[492]],[[3]],['high holistic'],['left'],['upright'],['U0020.bmp'],['male'],[],['male'],[[1]],[[0.27121163]],JO
492,[[6]],[[493]],[[6]],['high holistic'],['left'],['upright'],['U0106.bmp'],['female'],[],['female'],[[1]],[[0.43488721]],JO
493,[[6]],[[494]],[[8]],['low holistic'],['fovea'],['inverted'],['U0137.bmp'],['male'],[],['male'],[[1]],[[0.28913089]],JO
494,[[6]],[[495]],[[4]],['low holistic'],['left'],['inverted'],['U0061.bmp'],['female'],[],['female'],[[1]],[[0.15862879]],JO
495,[[6]],[[496]],[[5]],['low holistic'],['left'],['inverted'],['U0076.bmp'],['male'],[],['male'],[[1]],[[0.293671]],JO
496,[[6]],[[497]],[[3]],['low holistic'],['right'],['upright'],['U0020.bmp'],['female'],[],['female'],[[1]],[[0.14611685]],JO
497,[[6]],[[498]],[[1]],['high holistic'],['fovea'],['inverted'],['U0006.bmp'],['female'],[],['female'],[[1]],[[0.7490977]],JO
498,[[6]],[[499]],[[2]],['high holistic'],['fovea'],['upright'],['U0014.bmp'],['male'],[],['male'],[[1]],[[0.4697636]],JO
499,[[6]],[[500]],[[6]],['low holistic'],['right'],['upright'],['U0106.bmp'],['male'],[],['male'],[[1]],[[0.02645398]],JO
500,[[6]],[[501]],[[6]],['high holistic'],['fovea'],['upright'],['U0106.bmp'],['female'],[],['female'],[[1]],[[0.10501996]],JO
501,[[6]],[[502]],[[1]],['high holistic'],['left'],['upright'],['U0006.bmp'],['female'],[],['female'],[[1]],[[0.00010332]],JO
502,[[6]],[[503]],[[13]],['high holistic'],['right'],['inverted'],['U0181.bmp'],['female'],[],['female'],[[1]],[[0.17299246]],JO
503,[[6]],[[504]],[[8]],['low holistic'],['right'],['upright'],['U0137.bmp'],['male'],[],['male'],[[1]],[[9.97092575e-05]],JO
504,[[6]],[[505]],[[9]],['low holistic'],['fovea'],['inverted'],['U0155.bmp'],['male'],[],['male'],[[1]],[[0.45385614]],JO
505,[[6]],[[506]],[[7]],['high holistic'],['right'],['upright'],['U0107.bmp'],['female'],[],['female'],[[1]],[[0.04188085]],JO
506,[[6]],[[507]],[[4]],['high holistic'],['left'],['upright'],['U0061.bmp'],['female'],[],['female'],[[1]],[[1.4008472]],JO
507,[[6]],[[508]],[[19]],['low holistic'],['right'],['inverted'],['U0361.bmp'],['female'],[],['female'],[[1]],[[0.23204473]],JO
508,[[6]],[[509]],[[1]],['low holistic'],['left'],['upright'],['U0006.bmp'],['female'],[],['female'],[[1]],[[9.78205353e-05]],JO
509,[[6]],[[510]],[[4]],['high holistic'],['right'],['inverted'],['U0061.bmp'],['female'],[],['male'],[[0]],[[0.03010969]],JO
510,[[6]],[[511]],[[3]],['high holistic'],['right'],['inverted'],['U0020.bmp'],['male'],[],['female'],[[0]],[[0.26777899]],JO
511,[[6]],[[512]],[[4]],['low holistic'],['left'],['inverted'],['U0061.bmp'],['female'],[],['female'],[[1]],[[0.21768047]],JO
512,[[6]],[[513]],[[16]],['high holistic'],['fovea'],['inverted'],['U0335.bmp'],['female'],[],['female'],[[1]],[[0.04915635]],JO
513,[[6]],[[514]],[[2]],['high holistic'],['left'],['inverted'],['U0014.bmp'],['male'],[],['female'],[[0]],[[0.03844229]],JO
514,[[6]],[[515]],[[7]],['low holistic'],['left'],['inverted'],['U0107.bmp'],['female'],[],['female'],[[1]],[[0.00025419]],JO
515,[[6]],[[516]],[[5]],['low holistic'],['right'],['inverted'],['U0076.bmp'],['male'],[],['male'],[[1]],[[0.07710553]],JO
516,[[6]],[[517]],[[17]],['low holistic'],['right'],['inverted'],['U0346.bmp'],['female'],[],['female'],[[1]],[[0.2166296]],JO
517,[[6]],[[518]],[[2]],['high holistic'],['right'],['upright'],['U0014.bmp'],['male'],[],['female'],[[0]],[[0.23075192]],JO
518,[[6]],[[519]],[[19]],['high holistic'],['left'],['inverted'],['U0361.bmp'],['female'],[],['male'],[[0]],[[0.36673135]],JO
519,[[6]],[[520]],[[11]],['high holistic'],['right'],['upright'],['U0164.bmp'],['female'],[],['female'],[[1]],[[0.23828633]],JO
520,[[6]],[[521]],[[1]],['high holistic'],['right'],['upright'],['U0006.bmp'],['female'],[],['female'],[[1]],[[0.43719091]],JO
521,[[6]],[[522]],[[17]],['high holistic'],['left'],['upright'],['U0346.bmp'],['male'],[],['male'],[[1]],[[0.06911304]],JO
522,[[6]],[[523]],[[10]],['low holistic'],['right'],['inverted'],['U0159.bmp'],['female'],[],['female'],[[1]],[[0.04979037]],JO
523,[[6]],[[524]],[[11]],['low holistic'],['left'],['upright'],['U0164.bmp'],['female'],[],['female'],[[1]],[[0.02988907]],JO
524,[[6]],[[525]],[[15]],['low holistic'],['right'],['inverted'],['U0312.bmp'],['male'],[],['male'],[[1]],[[0.0001071]],JO
525,[[6]],[[526]],[[2]],['low holistic'],['left'],['upright'],['U0014.bmp'],['male'],[],['male'],[[1]],[[0.01256901]],JO
526,[[6]],[[527]],[[1]],['high holistic'],['right'],['inverted'],['U0006.bmp'],['female'],[],['male'],[[0]],[[0.0001007]],JO
527,[[6]],[[528]],[[7]],['low holistic'],['right'],['upright'],['U0107.bmp'],['female'],[],['male'],[[0]],[[0.0498974]],JO
528,[[6]],[[529]],[[20]],['low holistic'],['right'],['upright'],['U0362.bmp'],['male'],[],['female'],[[0]],[[5.26507009]],JO
529,[[6]],[[530]],[[19]],['high holistic'],['right'],['inverted'],['U0361.bmp'],['female'],[],['male'],[[0]],[[0.102118]],JO
530,[[6]],[[531]],[[2]],['low holistic'],['left'],['inverted'],['U0014.bmp'],['male'],[],['male'],[[1]],[[0.22873367]],JO
531,[[6]],[[532]],[[5]],['high holistic'],['left'],['inverted'],['U0076.bmp'],['female'],[],['female'],[[1]],[[0.20025416]],JO
532,[[6]],[[533]],[[4]],['low holistic'],['right'],['upright'],['U0061.bmp'],['female'],[],['female'],[[1]],[[0.15875572]],JO
533,[[6]],[[534]],[[19]],['low holistic'],['left'],['upright'],['U0361.bmp'],['female'],[],['female'],[[1]],[[0.00043332]],JO
534,[[6]],[[535]],[[3]],['low holistic'],['left'],['upright'],['U0020.bmp'],['female'],[],['female'],[[1]],[[0.00028162]],JO
535,[[6]],[[536]],[[2]],['high holistic'],['right'],['upright'],['U0014.bmp'],['male'],[],['male'],[[1]],[[0.05664891]],JO
536,[[6]],[[537]],[[2]],['high holistic'],['right'],['inverted'],['U0014.bmp'],['male'],[],['male'],[[1]],[[0.4533372]],JO
537,[[6]],[[538]],[[9]],['low holistic'],['right'],['upright'],['U0155.bmp'],['male'],[],['male'],[[1]],[[9.93823633e-05]],JO
538,[[6]],[[539]],[[5]],['low holistic'],['left'],['inverted'],['U0076.bmp'],['male'],[],['male'],[[1]],[[0.09012586]],JO
539,[[6]],[[540]],[[11]],['high holistic'],['left'],['upright'],['U0164.bmp'],['female'],[],['female'],[[1]],[[0.16269397]],JO
540,[[6]],[[541]],[[10]],['high holistic'],['right'],['inverted'],['U0159.bmp'],['male'],[],['male'],[[1]],[[0.8068156]],JO
541,[[6]],[[542]],[[2]],['low holistic'],['right'],['upright'],['U0014.bmp'],['male'],[],['male'],[[1]],[[0.45551788]],JO
542,[[6]],[[543]],[[20]],['low holistic'],['right'],['upright'],['U0362.bmp'],['male'],[],['male'],[[1]],[[0.26865982]],JO
543,[[6]],[[544]],[[19]],['low holistic'],['fovea'],['inverted'],['U0361.bmp'],['female'],[],['female'],[[1]],[[0.00013507]],JO
544,[[6]],[[545]],[[1]],['low holistic'],['left'],['upright'],['U0006.bmp'],['female'],[],['female'],[[1]],[[0.13715908]],JO
545,[[6]],[[546]],[[4]],['high holistic'],['left'],['upright'],['U0061.bmp'],['female'],[],['female'],[[1]],[[0.10817206]],JO
546,[[6]],[[547]],[[14]],['high holistic'],['right'],['upright'],['U0228.bmp'],['male'],[],['male'],[[1]],[[0.2224032]],JO
547,[[6]],[[548]],[[2]],['high holistic'],['right'],['inverted'],['U0014.bmp'],['male'],[],['male'],[[1]],[[0.09380607]],JO
548,[[6]],[[549]],[[13]],['low holistic'],['right'],['upright'],['U0181.bmp'],['male'],[],['male'],[[1]],[[0.17020975]],JO
549,[[6]],[[550]],[[8]],['low holistic'],['right'],['upright'],['U0137.bmp'],['male'],[],['male'],[[1]],[[0.13101242]],JO
550,[[6]],[[551]],[[9]],['high holistic'],['left'],['upright'],['U0155.bmp'],['female'],[],['female'],[[1]],[[0.34759591]],JO
551,[[6]],[[552]],[[10]],['low holistic'],['left'],['upright'],['U0159.bmp'],['female'],[],['female'],[[1]],[[0.21311828]],JO
552,[[6]],[[553]],[[11]],['low holistic'],['right'],['inverted'],['U0164.bmp'],['female'],[],['female'],[[1]],[[0.17265554]],JO
553,[[6]],[[554]],[[20]],['high holistic'],['left'],['inverted'],['U0362.bmp'],['female'],[],['female'],[[1]],[[0.08611135]],JO
554,[[6]],[[555]],[[3]],['high holistic'],['left'],['upright'],['U0020.bmp'],['male'],[],['male'],[[1]],[[0.25119866]],JO
555,[[6]],[[556]],[[16]],['low holistic'],['left'],['inverted'],['U0335.bmp'],['female'],[],['female'],[[1]],[[0.4240858]],JO
556,[[6]],[[557]],[[7]],['high holistic'],['left'],['inverted'],['U0107.bmp'],['female'],[],['female'],[[1]],[[0.20670668]],JO
557,[[6]],[[558]],[[10]],['high holistic'],['left'],['upright'],['U0159.bmp'],['male'],[],['male'],[[1]],[[0.26266291]],JO
558,[[6]],[[559]],[[11]],['high holistic'],['left'],['inverted'],['U0164.bmp'],['female'],[],['female'],[[1]],[[0.33035693]],JO
559,[[6]],[[560]],[[18]],['low holistic'],['left'],['upright'],['U0359.bmp'],['male'],[],['male'],[[1]],[[0.26091403]],JO
560,[[6]],[[561]],[[16]],['low holistic'],['left'],['inverted'],['U0335.bmp'],['female'],[],['female'],[[1]],[[0.21987402]],JO
561,[[6]],[[562]],[[16]],['low holistic'],['fovea'],['inverted'],['U0335.bmp'],['female'],[],['female'],[[1]],[[0.17775813]],JO
562,[[6]],[[563]],[[18]],['low holistic'],['right'],['inverted'],['U0359.bmp'],['male'],[],['male'],[[1]],[[0.29836412]],JO
563,[[6]],[[564]],[[17]],['high holistic'],['right'],['inverted'],['U0346.bmp'],['male'],[],['male'],[[1]],[[0.46167992]],JO
564,[[6]],[[565]],[[8]],['high holistic'],['fovea'],['upright'],['U0137.bmp'],['female'],[],['female'],[[1]],[[0.20389586]],JO
565,[[6]],[[566]],[[5]],['high holistic'],['fovea'],['inverted'],['U0076.bmp'],['female'],[],['male'],[[0]],[[0.17798819]],JO
566,[[6]],[[567]],[[13]],['low holistic'],['left'],['inverted'],['U0181.bmp'],['male'],[],['male'],[[1]],[[0.60342272]],JO
567,[[6]],[[568]],[[19]],['high holistic'],['right'],['inverted'],['U0361.bmp'],['female'],[],['male'],[[0]],[[0.13178647]],JO
568,[[6]],[[569]],[[9]],['high holistic'],['left'],['upright'],['U0155.bmp'],['female'],[],['female'],[[1]],[[0.31841226]],JO
569,[[6]],[[570]],[[13]],['low holistic'],['right'],['inverted'],['U0181.bmp'],['male'],[],['male'],[[1]],[[0.12009095]],JO
570,[[6]],[[571]],[[20]],['low holistic'],['right'],['upright'],['U0362.bmp'],['male'],[],['male'],[[1]],[[0.14635525]],JO
571,[[6]],[[572]],[[14]],['high holistic'],['left'],['inverted'],['U0228.bmp'],['male'],[],['male'],[[1]],[[0.37263769]],JO
572,[[6]],[[573]],[[3]],['high holistic'],['right'],['inverted'],['U0020.bmp'],['male'],[],['male'],[[1]],[[0.41507889]],JO
573,[[6]],[[574]],[[9]],['low holistic'],['right'],['upright'],['U0155.bmp'],['male'],[],['male'],[[1]],[[0.15722592]],JO
574,[[6]],[[575]],[[17]],['high holistic'],['right'],['upright'],['U0346.bmp'],['male'],[],['male'],[[1]],[[0.23158672]],JO
575,[[6]],[[576]],[[2]],['low holistic'],['left'],['upright'],['U0014.bmp'],['male'],[],['male'],[[1]],[[0.38935861]],JO
576,[[6]],[[577]],[[13]],['low holistic'],['right'],['inverted'],['U0181.bmp'],['male'],[],['male'],[[1]],[[0.00024782]],JO
577,[[6]],[[578]],[[19]],['low holistic'],['left'],['upright'],['U0361.bmp'],['female'],[],['female'],[[1]],[[9.93367285e-05]],JO
578,[[6]],[[579]],[[1]],['high holistic'],['right'],['inverted'],['U0006.bmp'],['female'],[],['female'],[[1]],[[0.32327753]],JO
579,[[6]],[[580]],[[5]],['high holistic'],['right'],['upright'],['U0076.bmp'],['female'],[],['female'],[[1]],[[0.0856438]],JO
580,[[6]],[[581]],[[17]],['high holistic'],['right'],['upright'],['U0346.bmp'],['male'],[],['male'],[[1]],[[0.06693209]],JO
581,[[6]],[[582]],[[13]],['low holistic'],['right'],['upright'],['U0181.bmp'],['male'],[],['male'],[[1]],[[0.21388282]],JO
582,[[6]],[[583]],[[1]],['low holistic'],['left'],['upright'],['U0006.bmp'],['female'],[],['female'],[[1]],[[0.04692048]],JO
583,[[6]],[[584]],[[1]],['high holistic'],['left'],['inverted'],['U0006.bmp'],['female'],[],['female'],[[1]],[[0.98682964]],JO
584,[[6]],[[585]],[[4]],['high holistic'],['right'],['inverted'],['U0061.bmp'],['female'],[],['male'],[[0]],[[0.14851562]],JO
585,[[6]],[[586]],[[1]],['high holistic'],['right'],['upright'],['U0006.bmp'],['female'],[],['female'],[[1]],[[0.0001069]],JO
586,[[6]],[[587]],[[4]],['low holistic'],['right'],['inverted'],['U0061.bmp'],['female'],[],['female'],[[1]],[[0.20454885]],JO
587,[[6]],[[588]],[[20]],['low holistic'],['right'],['inverted'],['U0362.bmp'],['male'],[],['male'],[[1]],[[0.18719578]],JO
588,[[6]],[[589]],[[10]],['low holistic'],['left'],['inverted'],['U0159.bmp'],['female'],[],['female'],[[1]],[[0.10103077]],JO
589,[[6]],[[590]],[[9]],['high holistic'],['right'],['inverted'],['U0155.bmp'],['female'],[],['male'],[[0]],[[0.73723829]],JO
590,[[6]],[[591]],[[13]],['high holistic'],['right'],['upright'],['U0181.bmp'],['female'],[],['female'],[[1]],[[0.12979077]],JO
591,[[6]],[[592]],[[10]],['high holistic'],['left'],['upright'],['U0159.bmp'],['male'],[],['male'],[[1]],[[0.30075217]],JO
592,[[6]],[[593]],[[3]],['low holistic'],['right'],['upright'],['U0020.bmp'],['female'],[],['female'],[[1]],[[0.02496618]],JO
593,[[6]],[[594]],[[11]],['high holistic'],['left'],['inverted'],['U0164.bmp'],['female'],[],['male'],[[0]],[[0.03157894]],JO
594,[[6]],[[595]],[[9]],['high holistic'],['fovea'],['upright'],['U0155.bmp'],['female'],[],['female'],[[1]],[[0.04534236]],JO
595,[[6]],[[596]],[[20]],['low holistic'],['right'],['upright'],['U0362.bmp'],['male'],[],['male'],[[1]],[[0.00019353]],JO
596,[[6]],[[597]],[[4]],['low holistic'],['fovea'],['upright'],['U0061.bmp'],['female'],[],['female'],[[1]],[[0.00010664]],JO
597,[[6]],[[598]],[[18]],['low holistic'],['right'],['upright'],['U0359.bmp'],['male'],[],['male'],[[1]],[[0.31627668]],JO
598,[[6]],[[599]],[[15]],['low holistic'],['left'],['upright'],['U0312.bmp'],['male'],[],['male'],[[1]],[[0.06970496]],JO
599,[[6]],[[600]],[[12]],['high holistic'],['right'],['inverted'],['U0178.bmp'],['male'],[],['female'],[[0]],[[0.33188413]],JO
600,[[6]],[[601]],[[16]],['low holistic'],['left'],['inverted'],['U0335.bmp'],['female'],[],['female'],[[1]],[[0.11761755]],JO
601,[[6]],[[602]],[[17]],['low holistic'],['left'],['upright'],['U0346.bmp'],['female'],[],['female'],[[1]],[[0.12834562]],JO
602,[[6]],[[603]],[[13]],['low holistic'],['right'],['upright'],['U0181.bmp'],['male'],[],['male'],[[1]],[[0.09035992]],JO
603,[[6]],[[604]],[[11]],['low holistic'],['left'],['inverted'],['U0164.bmp'],['female'],[],['female'],[[1]],[[0.22347286]],JO
604,[[6]],[[605]],[[12]],['low holistic'],['fovea'],['upright'],['U0178.bmp'],['female'],[],['female'],[[1]],[[0.00017948]],JO
605,[[6]],[[606]],[[7]],['low holistic'],['left'],['inverted'],['U0107.bmp'],['female'],[],['female'],[[1]],[[0.08427239]],JO
606,[[6]],[[607]],[[18]],['low holistic'],['left'],['inverted'],['U0359.bmp'],['male'],[],['male'],[[1]],[[0.16143488]],JO
607,[[6]],[[608]],[[5]],['low holistic'],['right'],['inverted'],['U0076.bmp'],['male'],[],['male'],[[1]],[[0.13884924]],JO
608,[[6]],[[609]],[[12]],['high holistic'],['left'],['upright'],['U0178.bmp'],['male'],[],['male'],[[1]],[[0.08584362]],JO
609,[[6]],[[610]],[[6]],['high holistic'],['left'],['inverted'],['U0106.bmp'],['female'],[],['male'],[[0]],[[3.41604305]],JO
610,[[6]],[[611]],[[6]],['low holistic'],['right'],['upright'],['U0106.bmp'],['male'],[],['male'],[[1]],[[0.57759006]],JO
611,[[6]],[[612]],[[2]],['low holistic'],['right'],['upright'],['U0014.bmp'],['male'],[],['male'],[[1]],[[0.25597681]],JO
612,[[6]],[[613]],[[5]],['high holistic'],['right'],['inverted'],['U0076.bmp'],['female'],[],['female'],[[1]],[[0.54945721]],JO
613,[[6]],[[614]],[[20]],['high holistic'],['left'],['upright'],['U0362.bmp'],['female'],[],['female'],[[1]],[[0.00013098]],JO
614,[[6]],[[615]],[[2]],['low holistic'],['left'],['inverted'],['U0014.bmp'],['male'],[],['male'],[[1]],[[0.10411228]],JO
615,[[6]],[[616]],[[2]],['low holistic'],['right'],['upright'],['U0014.bmp'],['male'],[],['male'],[[1]],[[0.6758692]],JO
616,[[6]],[[617]],[[19]],['high holistic'],['left'],['upright'],['U0361.bmp'],['female'],[],['female'],[[1]],[[0.21506865]],JO
617,[[6]],[[618]],[[15]],['high holistic'],['left'],['upright'],['U0312.bmp'],['male'],[],['male'],[[1]],[[0.83119391]],JO
618,[[6]],[[619]],[[5]],['low holistic'],['left'],['upright'],['U0076.bmp'],['male'],[],['male'],[[1]],[[0.17206437]],JO
619,[[6]],[[620]],[[2]],['low holistic'],['left'],['upright'],['U0014.bmp'],['male'],[],['male'],[[1]],[[0.12682121]],JO
620,[[6]],[[621]],[[17]],['low holistic'],['right'],['upright'],['U0346.bmp'],['female'],[],['female'],[[1]],[[0.20937069]],JO
621,[[6]],[[622]],[[5]],['high holistic'],['right'],['inverted'],['U0076.bmp'],['female'],[],['female'],[[1]],[[0.41513426]],JO
622,[[6]],[[623]],[[2]],['high holistic'],['left'],['inverted'],['U0014.bmp'],['male'],[],['male'],[[1]],[[0.87928351]],JO
623,[[6]],[[624]],[[4]],['low holistic'],['right'],['inverted'],['U0061.bmp'],['female'],[],['female'],[[1]],[[0.17142215]],JO
624,[[6]],[[625]],[[15]],['high holistic'],['right'],['upright'],['U0312.bmp'],['male'],[],['male'],[[1]],[[0.13205039]],JO
625,[[6]],[[626]],[[12]],['high holistic'],['left'],['inverted'],['U0178.bmp'],['male'],[],['male'],[[1]],[[0.47970882]],JO
626,[[6]],[[627]],[[15]],['low holistic'],['left'],['inverted'],['U0312.bmp'],['male'],[],['male'],[[1]],[[0.05854416]],JO
627,[[6]],[[628]],[[13]],['low holistic'],['left'],['upright'],['U0181.bmp'],['male'],[],['male'],[[1]],[[0.18554267]],JO
628,[[6]],[[629]],[[19]],['high holistic'],['fovea'],['upright'],['U0361.bmp'],['female'],[],['female'],[[1]],[[0.08209214]],JO
629,[[6]],[[630]],[[1]],['high holistic'],['left'],['inverted'],['U0006.bmp'],['female'],[],['female'],[[1]],[[0.2607349]],JO
630,[[6]],[[631]],[[15]],['high holistic'],['left'],['upright'],['U0312.bmp'],['male'],[],['male'],[[1]],[[0.21161658]],JO
631,[[6]],[[632]],[[2]],['high holistic'],['right'],['inverted'],['U0014.bmp'],['male'],[],['male'],[[1]],[[0.25068176]],JO
632,[[6]],[[633]],[[4]],['low holistic'],['left'],['upright'],['U0061.bmp'],['female'],[],['female'],[[1]],[[0.3032901]],JO
633,[[6]],[[634]],[[16]],['low holistic'],['left'],['upright'],['U0335.bmp'],['female'],[],['female'],[[1]],[[0.17036861]],JO
634,[[6]],[[635]],[[20]],['low holistic'],['left'],['upright'],['U0362.bmp'],['male'],[],['male'],[[1]],[[0.01986848]],JO
635,[[6]],[[636]],[[10]],['high holistic'],['left'],['upright'],['U0159.bmp'],['male'],[],['male'],[[1]],[[0.16999814]],JO
636,[[6]],[[637]],[[13]],['high holistic'],['left'],['inverted'],['U0181.bmp'],['female'],[],['female'],[[1]],[[0.3795998]],JO
637,[[6]],[[638]],[[18]],['low holistic'],['left'],['inverted'],['U0359.bmp'],['male'],[],['male'],[[1]],[[0.08321364]],JO
638,[[6]],[[639]],[[4]],['high holistic'],['fovea'],['upright'],['U0061.bmp'],['female'],[],['female'],[[1]],[[0.1377539]],JO
639,[[6]],[[640]],[[13]],['high holistic'],['left'],['inverted'],['U0181.bmp'],['female'],[],['male'],[[0]],[[0.00013238]],JO
640,[[6]],[[641]],[[19]],['high holistic'],['left'],['upright'],['U0361.bmp'],['female'],[],['female'],[[1]],[[0.08192759]],JO
641,[[6]],[[642]],[[4]],['high holistic'],['right'],['upright'],['U0061.bmp'],['female'],[],['female'],[[1]],[[0.15084893]],JO
642,[[6]],[[643]],[[3]],['high holistic'],['left'],['upright'],['U0020.bmp'],['male'],[],['female'],[[0]],[[0.00018401]],JO
643,[[6]],[[644]],[[4]],['low holistic'],['left'],['inverted'],['U0061.bmp'],['female'],[],['female'],[[1]],[[0.03150938]],JO
644,[[6]],[[645]],[[12]],['low holistic'],['left'],['upright'],['U0178.bmp'],['female'],[],['female'],[[1]],[[9.92808491e-05]],JO
645,[[6]],[[646]],[[19]],['high holistic'],['right'],['upright'],['U0361.bmp'],['female'],[],['male'],[[0]],[[0.03240649]],JO
646,[[6]],[[647]],[[4]],['high holistic'],['left'],['upright'],['U0061.bmp'],['female'],[],['female'],[[1]],[[0.07704009]],JO
647,[[6]],[[648]],[[4]],['high holistic'],['left'],['inverted'],['U0061.bmp'],['female'],[],['female'],[[1]],[[0.02460565]],JO
648,[[6]],[[649]],[[18]],['low holistic'],['left'],['upright'],['U0359.bmp'],['male'],[],['male'],[[1]],[[0.10466077]],JO
649,[[6]],[[650]],[[3]],['low holistic'],['right'],['inverted'],['U0020.bmp'],['female'],[],['female'],[[1]],[[0.29229084]],JO
650,[[6]],[[651]],[[11]],['low holistic'],['right'],['upright'],['U0164.bmp'],['female'],[],['female'],[[1]],[[0.18392803]],JO
651,[[6]],[[652]],[[9]],['high holistic'],['left'],['upright'],['U0155.bmp'],['female'],[],['female'],[[1]],[[0.02426567]],JO
652,[[6]],[[653]],[[4]],['low holistic'],['left'],['upright'],['U0061.bmp'],['female'],[],['female'],[[1]],[[0.00010728]],JO
653,[[6]],[[654]],[[8]],['high holistic'],['right'],['upright'],['U0137.bmp'],['female'],[],['female'],[[1]],[[0.00023622]],JO
654,[[6]],[[655]],[[6]],['high holistic'],['left'],['inverted'],['U0106.bmp'],['female'],[],['female'],[[1]],[[0.00010689]],JO
655,[[6]],[[656]],[[6]],['high holistic'],['right'],['inverted'],['U0106.bmp'],['female'],[],['female'],[[1]],[[9.97716561e-05]],JO
656,[[6]],[[657]],[[4]],['high holistic'],['right'],['upright'],['U0061.bmp'],['female'],[],['female'],[[1]],[[0.07765151]],JO
657,[[6]],[[658]],[[9]],['high holistic'],['right'],['upright'],['U0155.bmp'],['female'],[],['female'],[[1]],[[0.09845869]],JO
658,[[6]],[[659]],[[16]],['low holistic'],['right'],['inverted'],['U0335.bmp'],['female'],[],['female'],[[1]],[[0.01385275]],JO
659,[[6]],[[660]],[[14]],['low holistic'],['left'],['upright'],['U0228.bmp'],['male'],[],['male'],[[1]],[[0.15729008]],JO
660,[[6]],[[661]],[[5]],['low holistic'],['left'],['upright'],['U0076.bmp'],['male'],[],['male'],[[1]],[[0.17503943]],JO
661,[[6]],[[662]],[[2]],['low holistic'],['left'],['inverted'],['U0014.bmp'],['male'],[],['male'],[[1]],[[0.27260611]],JO
662,[[6]],[[663]],[[9]],['high holistic'],['left'],['inverted'],['U0155.bmp'],['female'],[],['female'],[[1]],[[0.43701025]],JO
663,[[6]],[[664]],[[18]],['high holistic'],['left'],['upright'],['U0359.bmp'],['male'],[],['female'],[[0]],[[0.29130364]],JO
664,[[6]],[[665]],[[2]],['low holistic'],['left'],['upright'],['U0014.bmp'],['male'],[],['male'],[[1]],[[9.82563943e-05]],JO
665,[[6]],[[666]],[[2]],['high holistic'],['right'],['inverted'],['U0014.bmp'],['male'],[],['male'],[[1]],[[0.55740671]],JO
666,[[6]],[[667]],[[9]],['low holistic'],['left'],['upright'],['U0155.bmp'],['male'],[],['male'],[[1]],[[0.27916762]],JO
667,[[6]],[[668]],[[4]],['high holistic'],['left'],['upright'],['U0061.bmp'],['female'],[],['female'],[[1]],[[0.09157215]],JO
668,[[6]],[[669]],[[13]],['high holistic'],['fovea'],['inverted'],['U0181.bmp'],['female'],[],['male'],[[0]],[[0.80872396]],JO
669,[[6]],[[670]],[[4]],['high holistic'],['fovea'],['inverted'],['U0061.bmp'],['female'],[],['female'],[[1]],[[0.26234482]],JO
670,[[6]],[[671]],[[15]],['low holistic'],['left'],['inverted'],['U0312.bmp'],['male'],[],['male'],[[1]],[[0.22127791]],JO
671,[[6]],[[672]],[[20]],['high holistic'],['right'],['inverted'],['U0362.bmp'],['female'],[],['male'],[[0]],[[0.73064723]],JO
672,[[6]],[[673]],[[1]],['low holistic'],['left'],['upright'],['U0006.bmp'],['female'],[],['female'],[[1]],[[9.94587317e-05]],JO
673,[[6]],[[674]],[[15]],['low holistic'],['right'],['upright'],['U0312.bmp'],['male'],[],['male'],[[1]],[[0.07638416]],JO
674,[[6]],[[675]],[[2]],['low holistic'],['left'],['upright'],['U0014.bmp'],['male'],[],['male'],[[1]],[[0.17735153]],JO
675,[[6]],[[676]],[[9]],['high holistic'],['right'],['inverted'],['U0155.bmp'],['female'],[],['female'],[[1]],[[0.61755677]],JO
676,[[6]],[[677]],[[18]],['low holistic'],['right'],['inverted'],['U0359.bmp'],['male'],[],['male'],[[1]],[[0.13780358]],JO
677,[[6]],[[678]],[[19]],['high holistic'],['left'],['upright'],['U0361.bmp'],['female'],[],['female'],[[1]],[[0.08417126]],JO
678,[[6]],[[679]],[[17]],['low holistic'],['left'],['upright'],['U0346.bmp'],['female'],[],['female'],[[1]],[[0.10466899]],JO
679,[[6]],[[680]],[[16]],['high holistic'],['right'],['upright'],['U0335.bmp'],['female'],[],['female'],[[1]],[[0.11699467]],JO
680,[[6]],[[681]],[[7]],['high holistic'],['left'],['upright'],['U0107.bmp'],['female'],[],['female'],[[1]],[[0.10262978]],JO
681,[[6]],[[682]],[[19]],['high holistic'],['right'],['inverted'],['U0361.bmp'],['female'],[],['male'],[[0]],[[0.08230515]],JO
682,[[6]],[[683]],[[4]],['high holistic'],['right'],['upright'],['U0061.bmp'],['female'],[],['female'],[[1]],[[0.21461034]],JO
683,[[6]],[[684]],[[1]],['high holistic'],['right'],['inverted'],['U0006.bmp'],['female'],[],['male'],[[0]],[[0.42894761]],JO
684,[[6]],[[685]],[[19]],['low holistic'],['right'],['upright'],['U0361.bmp'],['female'],[],['female'],[[1]],[[0.10737236]],JO
685,[[6]],[[686]],[[11]],['high holistic'],['fovea'],['upright'],['U0164.bmp'],['female'],[],['female'],[[1]],[[0.43124112]],JO
686,[[6]],[[687]],[[20]],['high holistic'],['right'],['inverted'],['U0362.bmp'],['female'],[],['female'],[[1]],[[0.47707855]],JO
687,[[6]],[[688]],[[8]],['low holistic'],['right'],['upright'],['U0137.bmp'],['male'],[],['male'],[[1]],[[0.259899]],JO
688,[[6]],[[689]],[[17]],['high holistic'],['right'],['inverted'],['U0346.bmp'],['male'],[],['male'],[[1]],[[0.11281633]],JO
689,[[6]],[[690]],[[2]],['high holistic'],['left'],['upright'],['U0014.bmp'],['male'],[],['male'],[[1]],[[0.33098811]],JO
690,[[6]],[[691]],[[7]],['low holistic'],['fovea'],['upright'],['U0107.bmp'],['female'],[],['female'],[[1]],[[9.82303172e-05]],JO
691,[[6]],[[692]],[[14]],['high holistic'],['left'],['inverted'],['U0228.bmp'],['male'],[],['male'],[[1]],[[0.8926363]],JO
692,[[6]],[[693]],[[20]],['low holistic'],['left'],['inverted'],['U0362.bmp'],['male'],[],['male'],[[1]],[[0.00227492]],JO
693,[[6]],[[694]],[[5]],['low holistic'],['right'],['upright'],['U0076.bmp'],['male'],[],['male'],[[1]],[[0.12911052]],JO
694,[[6]],[[695]],[[19]],['low holistic'],['right'],['inverted'],['U0361.bmp'],['female'],[],['female'],[[1]],[[0.09083079]],JO
695,[[6]],[[696]],[[2]],['low holistic'],['right'],['upright'],['U0014.bmp'],['male'],[],['male'],[[1]],[[0.00015151]],JO
696,[[6]],[[697]],[[7]],['high holistic'],['left'],['upright'],['U0107.bmp'],['female'],[],['male'],[[0]],[[0.00010484]],JO
697,[[6]],[[698]],[[1]],['low holistic'],['right'],['upright'],['U0006.bmp'],['female'],[],['female'],[[1]],[[0.04805491]],JO
698,[[6]],[[699]],[[18]],['low holistic'],['right'],['inverted'],['U0359.bmp'],['male'],[],['male'],[[1]],[[0.14770416]],JO
699,[[6]],[[700]],[[5]],['high holistic'],['left'],['upright'],['U0076.bmp'],['female'],[],['female'],[[1]],[[0.26143854]],JO
700,[[6]],[[701]],[[4]],['low holistic'],['left'],['upright'],['U0061.bmp'],['female'],[],['female'],[[1]],[[0.16203592]],JO
701,[[6]],[[702]],[[9]],['low holistic'],['right'],['inverted'],['U0155.bmp'],['male'],[],['male'],[[1]],[[0.33147113]],JO
702,[[6]],[[703]],[[19]],['low holistic'],['left'],['inverted'],['U0361.bmp'],['female'],[],['female'],[[1]],[[0.173656]],JO
703,[[6]],[[704]],[[17]],['high holistic'],['left'],['upright'],['U0346.bmp'],['male'],[],['male'],[[1]],[[0.35169278]],JO
704,[[6]],[[705]],[[16]],['high holistic'],['right'],['inverted'],['U0335.bmp'],['female'],[],['male'],[[0]],[[0.61734613]],JO
705,[[6]],[[706]],[[8]],['high holistic'],['right'],['inverted'],['U0137.bmp'],['female'],[],['female'],[[1]],[[0.36837109]],JO
706,[[6]],[[707]],[[9]],['low holistic'],['right'],['upright'],['U0155.bmp'],['male'],[],['male'],[[1]],[[0.14354205]],JO
707,[[6]],[[708]],[[15]],['low holistic'],['right'],['inverted'],['U0312.bmp'],['male'],[],['male'],[[1]],[[0.62615198]],JO
708,[[6]],[[709]],[[6]],['high holistic'],['left'],['inverted'],['U0106.bmp'],['female'],[],['female'],[[1]],[[0.19303609]],JO
709,[[6]],[[710]],[[11]],['high holistic'],['left'],['inverted'],['U0164.bmp'],['female'],[],['female'],[[1]],[[0.28979642]],JO
710,[[6]],[[711]],[[1]],['low holistic'],['left'],['inverted'],['U0006.bmp'],['female'],[],['female'],[[1]],[[0.02950741]],JO
711,[[6]],[[712]],[[7]],['low holistic'],['left'],['upright'],['U0107.bmp'],['female'],[],['female'],[[1]],[[0.02672626]],JO
712,[[6]],[[713]],[[4]],['high holistic'],['right'],['inverted'],['U0061.bmp'],['female'],[],['male'],[[0]],[[0.33003974]],JO
713,[[6]],[[714]],[[16]],['low holistic'],['left'],['inverted'],['U0335.bmp'],['female'],[],['female'],[[1]],[[0.33356269]],JO
714,[[6]],[[715]],[[18]],['high holistic'],['left'],['inverted'],['U0359.bmp'],['male'],[],['male'],[[1]],[[0.07938878]],JO
715,[[6]],[[716]],[[19]],['low holistic'],['left'],['upright'],['U0361.bmp'],['female'],[],['female'],[[1]],[[0.00030226]],JO
716,[[6]],[[717]],[[6]],['high holistic'],['right'],['upright'],['U0106.bmp'],['female'],[],['female'],[[1]],[[0.18857624]],JO
717,[[6]],[[718]],[[20]],['high holistic'],['left'],['inverted'],['U0362.bmp'],['female'],[],['male'],[[0]],[[0.22699602]],JO
718,[[6]],[[719]],[[3]],['low holistic'],['left'],['inverted'],['U0020.bmp'],['female'],[],['female'],[[1]],[[0.16214461]],JO
719,[[6]],[[720]],[[3]],['high holistic'],['right'],['inverted'],['U0020.bmp'],['male'],[],['male'],[[1]],[[0.47503304]],JO
720,[[6]],[[721]],[[10]],['low holistic'],['left'],['upright'],['U0159.bmp'],['female'],[],['female'],[[1]],[[0.00019462]],JO
721,[[6]],[[722]],[[13]],['low holistic'],['fovea'],['inverted'],['U0181.bmp'],['male'],[],['male'],[[1]],[[0.03877203]],JO
722,[[6]],[[723]],[[8]],['high holistic'],['right'],['upright'],['U0137.bmp'],['female'],[],['female'],[[1]],[[0.02170034]],JO
723,[[6]],[[724]],[[19]],['low holistic'],['left'],['upright'],['U0361.bmp'],['female'],[],['female'],[[1]],[[0.03743112]],JO
724,[[6]],[[725]],[[14]],['low holistic'],['left'],['upright'],['U0228.bmp'],['male'],[],['male'],[[1]],[[0.0181097]],JO
725,[[6]],[[726]],[[14]],['low holistic'],['left'],['upright'],['U0228.bmp'],['male'],[],['male'],[[1]],[[0.03388471]],JO
726,[[6]],[[727]],[[17]],['high holistic'],['right'],['upright'],['U0346.bmp'],['male'],[],['male'],[[1]],[[0.15078104]],JO
727,[[6]],[[728]],[[6]],['low holistic'],['left'],['inverted'],['U0106.bmp'],['male'],[],['male'],[[1]],[[0.06562314]],JO
728,[[6]],[[729]],[[4]],['low holistic'],['fovea'],['upright'],['U0061.bmp'],['female'],[],['female'],[[1]],[[0.14934974]],JO
729,[[6]],[[730]],[[3]],['high holistic'],['right'],['inverted'],['U0020.bmp'],['male'],[],['male'],[[1]],[[0.03339535]],JO
730,[[6]],[[731]],[[11]],['high holistic'],['left'],['inverted'],['U0164.bmp'],['female'],[],['female'],[[1]],[[0.41420677]],JO
731,[[6]],[[732]],[[1]],['low holistic'],['right'],['upright'],['U0006.bmp'],['female'],[],['female'],[[1]],[[0.07898401]],JO
732,[[6]],[[733]],[[5]],['high holistic'],['right'],['upright'],['U0076.bmp'],['female'],[],['female'],[[1]],[[9.88813117e-05]],JO
733,[[6]],[[734]],[[1]],['low holistic'],['left'],['upright'],['U0006.bmp'],['female'],[],['female'],[[1]],[[0.00010687]],JO
734,[[6]],[[735]],[[5]],['high holistic'],['left'],['upright'],['U0076.bmp'],['female'],[],['female'],[[1]],[[2.45688933]],JO
735,[[6]],[[736]],[[13]],['high holistic'],['left'],['upright'],['U0181.bmp'],['female'],[],['female'],[[1]],[[0.11974026]],JO
736,[[6]],[[737]],[[18]],['high holistic'],['right'],['upright'],['U0359.bmp'],['male'],[],['female'],[[0]],[[1.28279435]],JO
737,[[6]],[[738]],[[12]],['high holistic'],['right'],['upright'],['U0178.bmp'],['male'],[],['male'],[[1]],[[0.13482683]],JO
738,[[6]],[[739]],[[9]],['high holistic'],['right'],['upright'],['U0155.bmp'],['female'],[],['female'],[[1]],[[0.40814789]],JO
739,[[6]],[[740]],[[6]],['high holistic'],['right'],['upright'],['U0106.bmp'],['female'],[],['female'],[[1]],[[0.12807954]],JO
740,[[6]],[[741]],[[20]],['high holistic'],['right'],['upright'],['U0362.bmp'],['female'],[],['female'],[[1]],[[0.0356433]],JO
741,[[6]],[[742]],[[10]],['high holistic'],['right'],['upright'],['U0159.bmp'],['male'],[],['male'],[[1]],[[0.46604408]],JO
742,[[6]],[[743]],[[15]],['high holistic'],['left'],['inverted'],['U0312.bmp'],['male'],[],['female'],[[0]],[[0.11725437]],JO
743,[[6]],[[744]],[[11]],['high holistic'],['right'],['upright'],['U0164.bmp'],['female'],[],['female'],[[1]],[[0.21618909]],JO
744,[[6]],[[745]],[[2]],['low holistic'],['right'],['inverted'],['U0014.bmp'],['male'],[],['male'],[[1]],[[0.87173364]],JO
745,[[6]],[[746]],[[6]],['high holistic'],['right'],['upright'],['U0106.bmp'],['female'],[],['female'],[[1]],[[0.13996544]],JO
746,[[6]],[[747]],[[13]],['low holistic'],['right'],['upright'],['U0181.bmp'],['male'],[],['male'],[[1]],[[9.90442932e-05]],JO
747,[[6]],[[748]],[[1]],['low holistic'],['left'],['inverted'],['U0006.bmp'],['female'],[],['female'],[[1]],[[0.26212859]],JO
748,[[6]],[[749]],[[18]],['low holistic'],['right'],['upright'],['U0359.bmp'],['male'],[],['male'],[[1]],[[0.30838448]],JO
749,[[6]],[[750]],[[12]],['low holistic'],['right'],['inverted'],['U0178.bmp'],['female'],[],['female'],[[1]],[[0.29425366]],JO
750,[[6]],[[751]],[[19]],['low holistic'],['right'],['upright'],['U0361.bmp'],['female'],[],['female'],[[1]],[[0.07534604]],JO
751,[[6]],[[752]],[[1]],['low holistic'],['left'],['upright'],['U0006.bmp'],['female'],[],['female'],[[1]],[[0.1187927]],JO
752,[[6]],[[753]],[[16]],['high holistic'],['left'],['inverted'],['U0335.bmp'],['female'],[],['male'],[[0]],[[0.32138576]],JO
753,[[6]],[[754]],[[16]],['high holistic'],['right'],['inverted'],['U0335.bmp'],['female'],[],['male'],[[0]],[[0.22147403]],JO
754,[[6]],[[755]],[[6]],['high holistic'],['right'],['inverted'],['U0106.bmp'],['female'],[],['female'],[[1]],[[0.41228743]],JO
755,[[6]],[[756]],[[11]],['high holistic'],['left'],['upright'],['U0164.bmp'],['female'],[],['female'],[[1]],[[0.34615267]],JO
756,[[6]],[[757]],[[11]],['low holistic'],['left'],['inverted'],['U0164.bmp'],['female'],[],['female'],[[1]],[[0.05233461]],JO
757,[[6]],[[758]],[[20]],['low holistic'],['left'],['inverted'],['U0362.bmp'],['male'],[],['male'],[[1]],[[0.17863357]],JO
758,[[6]],[[759]],[[15]],['high holistic'],['right'],['inverted'],['U0312.bmp'],['male'],[],['female'],[[0]],[[0.00012026]],JO
759,[[6]],[[760]],[[18]],['high holistic'],['right'],['inverted'],['U0359.bmp'],['male'],[],['female'],[[0]],[[1.10704414]],JO
760,[[6]],[[761]],[[16]],['low holistic'],['right'],['upright'],['U0335.bmp'],['female'],[],['female'],[[1]],[[0.00601792]],JO
761,[[6]],[[762]],[[15]],['low holistic'],['left'],['inverted'],['U0312.bmp'],['male'],[],['male'],[[1]],[[0.3814786]],JO
762,[[6]],[[763]],[[7]],['high holistic'],['right'],['inverted'],['U0107.bmp'],['female'],[],['female'],[[1]],[[1.16644988]],JO
763,[[6]],[[764]],[[14]],['low holistic'],['left'],['inverted'],['U0228.bmp'],['male'],[],['male'],[[1]],[[0.26221335]],JO
764,[[6]],[[765]],[[1]],['low holistic'],['fovea'],['inverted'],['U0006.bmp'],['female'],[],['female'],[[1]],[[0.15433166]],JO
765,[[6]],[[766]],[[8]],['high holistic'],['right'],['upright'],['U0137.bmp'],['female'],[],['female'],[[1]],[[0.40511821]],JO
766,[[6]],[[767]],[[12]],['low holistic'],['right'],['inverted'],['U0178.bmp'],['female'],[],['female'],[[1]],[[0.00024024]],JO
767,[[6]],[[768]],[[14]],['low holistic'],['fovea'],['upright'],['U0228.bmp'],['male'],[],['male'],[[1]],[[0.06701288]],JO
768,[[6]],[[769]],[[10]],['low holistic'],['right'],['inverted'],['U0159.bmp'],['female'],[],['female'],[[1]],[[0.00010016]],JO
769,[[6]],[[770]],[[16]],['low holistic'],['left'],['upright'],['U0335.bmp'],['female'],[],['female'],[[1]],[[0.05678582]],JO
770,[[6]],[[771]],[[15]],['high holistic'],['right'],['inverted'],['U0312.bmp'],['male'],[],['female'],[[0]],[[0.03788203]],JO
771,[[6]],[[772]],[[8]],['low holistic'],['right'],['inverted'],['U0137.bmp'],['male'],[],['male'],[[1]],[[0.36378296]],JO
772,[[6]],[[773]],[[7]],['low holistic'],['fovea'],['inverted'],['U0107.bmp'],['female'],[],['female'],[[1]],[[0.89297242]],JO
773,[[6]],[[774]],[[14]],['low holistic'],['right'],['inverted'],['U0228.bmp'],['male'],[],['male'],[[1]],[[0.03322882]],JO
774,[[6]],[[775]],[[9]],['low holistic'],['left'],['inverted'],['U0155.bmp'],['male'],[],['male'],[[1]],[[0.14995759]],JO
775,[[6]],[[776]],[[19]],['low holistic'],['right'],['inverted'],['U0361.bmp'],['female'],[],['female'],[[1]],[[2.53524551]],JO
776,[[6]],[[777]],[[2]],['low holistic'],['left'],['inverted'],['U0014.bmp'],['male'],[],['male'],[[1]],[[0.26687387]],JO
777,[[6]],[[778]],[[4]],['high holistic'],['right'],['inverted'],['U0061.bmp'],['female'],[],['female'],[[1]],[[0.55197933]],JO
778,[[6]],[[779]],[[13]],['low holistic'],['fovea'],['upright'],['U0181.bmp'],['male'],[],['male'],[[1]],[[0.01756927]],JO
779,[[6]],[[780]],[[5]],['high holistic'],['right'],['upright'],['U0076.bmp'],['female'],[],['female'],[[1]],[[0.04093883]],JO
780,[[6]],[[781]],[[12]],['high holistic'],['right'],['inverted'],['U0178.bmp'],['male'],[],['male'],[[1]],[[0.40506933]],JO
781,[[6]],[[782]],[[20]],['low holistic'],['right'],['inverted'],['U0362.bmp'],['male'],[],['male'],[[1]],[[0.12430315]],JO
782,[[6]],[[783]],[[9]],['low holistic'],['left'],['inverted'],['U0155.bmp'],['male'],[],['male'],[[1]],[[0.15006649]],JO
783,[[6]],[[784]],[[16]],['low holistic'],['left'],['upright'],['U0335.bmp'],['female'],[],['female'],[[1]],[[0.0001243]],JO
784,[[6]],[[785]],[[9]],['high holistic'],['fovea'],['inverted'],['U0155.bmp'],['female'],[],['male'],[[0]],[[0.00027792]],JO
785,[[6]],[[786]],[[15]],['low holistic'],['right'],['upright'],['U0312.bmp'],['male'],[],['male'],[[1]],[[0.0540646]],JO
786,[[6]],[[787]],[[3]],['low holistic'],['right'],['upright'],['U0020.bmp'],['female'],[],['female'],[[1]],[[0.11671035]],JO
787,[[6]],[[788]],[[10]],['high holistic'],['left'],['upright'],['U0159.bmp'],['male'],[],['male'],[[1]],[[0.03042402]],JO
788,[[6]],[[789]],[[7]],['low holistic'],['right'],['inverted'],['U0107.bmp'],['female'],[],['female'],[[1]],[[0.19047116]],JO
789,[[6]],[[790]],[[2]],['high holistic'],['left'],['inverted'],['U0014.bmp'],['male'],[],['male'],[[1]],[[0.32436164]],JO
790,[[6]],[[791]],[[10]],['low holistic'],['left'],['inverted'],['U0159.bmp'],['female'],[],['female'],[[1]],[[0.63074314]],JO
791,[[6]],[[792]],[[5]],['low holistic'],['left'],['inverted'],['U0076.bmp'],['male'],[],['male'],[[1]],[[0.28590244]],JO
792,[[6]],[[793]],[[1]],['low holistic'],['right'],['inverted'],['U0006.bmp'],['female'],[],['female'],[[1]],[[0.1709844]],JO
793,[[6]],[[794]],[[4]],['high holistic'],['left'],['upright'],['U0061.bmp'],['female'],[],['female'],[[1]],[[0.65196279]],JO
794,[[6]],[[795]],[[14]],['low holistic'],['left'],['upright'],['U0228.bmp'],['male'],[],['male'],[[1]],[[0.03255458]],JO
795,[[6]],[[796]],[[11]],['high holistic'],['left'],['inverted'],['U0164.bmp'],['female'],[],['female'],[[1]],[[0.31924236]],JO
796,[[6]],[[797]],[[17]],['high holistic'],['right'],['upright'],['U0346.bmp'],['male'],[],['male'],[[1]],[[0.11481062]],JO
797,[[6]],[[798]],[[6]],['low holistic'],['left'],['inverted'],['U0106.bmp'],['male'],[],['male'],[[1]],[[0.24591963]],JO
