,SUBID,TRIAL,MOONEYID,MOONEYCATEGORY,LOC,COND,MOONEY_NAME,MOONEY_GENDER,ECCENTRICITY,RESPONSE,ACCURACY,RT,SUBINIT
0,[[6]],[[1]],[[17]],['low holistic'],['left'],['inverted'],['U0346.bmp'],['female'],[],['male'],[[0]],[[1.74354884]],JS
1,[[6]],[[2]],[[11]],['high holistic'],['left'],['inverted'],['U0164.bmp'],['female'],[],['male'],[[0]],[[0.26935943]],JS
2,[[6]],[[3]],[[10]],['low holistic'],['left'],['inverted'],['U0159.bmp'],['female'],[],['male'],[[0]],[[0.69897888]],JS
3,[[6]],[[4]],[[2]],['high holistic'],['left'],['upright'],['U0014.bmp'],['male'],[],['female'],[[0]],[[0.4319488]],JS
4,[[6]],[[5]],[[11]],['high holistic'],['fovea'],['upright'],['U0164.bmp'],['female'],[],['male'],[[0]],[[0.42232673]],JS
5,[[6]],[[6]],[[7]],['high holistic'],['left'],['upright'],['U0107.bmp'],['female'],[],['male'],[[0]],[[0.33399792]],JS
6,[[6]],[[7]],[[2]],['high holistic'],['right'],['upright'],['U0014.bmp'],['male'],[],['female'],[[0]],[[0.20068557]],JS
7,[[6]],[[8]],[[17]],['high holistic'],['left'],['inverted'],['U0346.bmp'],['male'],[],['male'],[[1]],[[0.04936792]],JS
8,[[6]],[[9]],[[12]],['low holistic'],['left'],['inverted'],['U0178.bmp'],['female'],[],['female'],[[1]],[[0.07068836]],JS
9,[[6]],[[10]],[[1]],['low holistic'],['left'],['upright'],['U0006.bmp'],['female'],[],['male'],[[0]],[[0.29202841]],JS
10,[[6]],[[11]],[[17]],['high holistic'],['fovea'],['upright'],['U0346.bmp'],['male'],[],['female'],[[0]],[[0.13732914]],JS
11,[[6]],[[12]],[[9]],['high holistic'],['right'],['upright'],['U0155.bmp'],['female'],[],['female'],[[1]],[[0.39427455]],JS
12,[[6]],[[13]],[[13]],['high holistic'],['left'],['upright'],['U0181.bmp'],['female'],[],['female'],[[1]],[[0.40459471]],JS
13,[[6]],[[14]],[[13]],['low holistic'],['right'],['upright'],['U0181.bmp'],['male'],[],['female'],[[0]],[[0.27598041]],JS
14,[[6]],[[15]],[[13]],['low holistic'],['left'],['inverted'],['U0181.bmp'],['male'],[],['female'],[[0]],[[0.44971822]],JS
15,[[6]],[[16]],[[16]],['high holistic'],['left'],['upright'],['U0335.bmp'],['female'],[],['male'],[[0]],[[0.24799553]],JS
16,[[6]],[[17]],[[13]],['low holistic'],['right'],['inverted'],['U0181.bmp'],['male'],[],['male'],[[1]],[[0.51839587]],JS
17,[[6]],[[18]],[[2]],['low holistic'],['right'],['upright'],['U0014.bmp'],['male'],[],['male'],[[1]],[[0.00024108]],JS
18,[[6]],[[19]],[[1]],['low holistic'],['left'],['upright'],['U0006.bmp'],['female'],[],['female'],[[1]],[[6.51367107]],JS
19,[[6]],[[20]],[[2]],['high holistic'],['right'],['upright'],['U0014.bmp'],['male'],[],['female'],[[0]],[[0.21311914]],JS
20,[[6]],[[21]],[[19]],['high holistic'],['right'],['inverted'],['U0361.bmp'],['female'],[],['male'],[[0]],[[0.39715212]],JS
21,[[6]],[[22]],[[13]],['high holistic'],['fovea'],['upright'],['U0181.bmp'],['female'],[],['female'],[[1]],[[0.00046012]],JS
22,[[6]],[[23]],[[18]],['low holistic'],['right'],['upright'],['U0359.bmp'],['male'],[],['male'],[[1]],[[0.22896822]],JS
23,[[6]],[[24]],[[15]],['high holistic'],['right'],['upright'],['U0312.bmp'],['male'],[],['male'],[[1]],[[0.06022711]],JS
24,[[6]],[[25]],[[2]],['low holistic'],['fovea'],['upright'],['U0014.bmp'],['male'],[],['female'],[[0]],[[0.08958247]],JS
25,[[6]],[[26]],[[14]],['low holistic'],['right'],['upright'],['U0228.bmp'],['male'],[],['female'],[[0]],[[0.15040958]],JS
26,[[6]],[[27]],[[12]],['high holistic'],['left'],['upright'],['U0178.bmp'],['male'],[],['female'],[[0]],[[0.07200349]],JS
27,[[6]],[[28]],[[18]],['high holistic'],['left'],['upright'],['U0359.bmp'],['male'],[],['male'],[[1]],[[0.13991217]],JS
28,[[6]],[[29]],[[4]],['low holistic'],['left'],['upright'],['U0061.bmp'],['female'],[],['female'],[[1]],[[0.0946773]],JS
29,[[6]],[[30]],[[4]],['high holistic'],['right'],['upright'],['U0061.bmp'],['female'],[],['male'],[[0]],[[0.1862353]],JS
30,[[6]],[[31]],[[20]],['high holistic'],['left'],['inverted'],['U0362.bmp'],['female'],[],['female'],[[1]],[[0.23639663]],JS
31,[[6]],[[32]],[[13]],['low holistic'],['left'],['inverted'],['U0181.bmp'],['male'],[],['female'],[[0]],[[0.00014729]],JS
32,[[6]],[[33]],[[11]],['low holistic'],['right'],['upright'],['U0164.bmp'],['female'],[],['male'],[[0]],[[9.81469639e-05]],JS
33,[[6]],[[34]],[[10]],['high holistic'],['right'],['upright'],['U0159.bmp'],['male'],[],['female'],[[0]],[[3.89934194]],JS
34,[[6]],[[35]],[[15]],['high holistic'],['right'],['inverted'],['U0312.bmp'],['male'],[],['female'],[[0]],[[0.24049461]],JS
35,[[6]],[[36]],[[8]],['low holistic'],['left'],['inverted'],['U0137.bmp'],['male'],[],['male'],[[1]],[[0.12442638]],JS
36,[[6]],[[37]],[[10]],['low holistic'],['left'],['inverted'],['U0159.bmp'],['female'],[],['male'],[[0]],[[0.20165092]],JS
37,[[6]],[[38]],[[9]],['low holistic'],['left'],['inverted'],['U0155.bmp'],['male'],[],['male'],[[1]],[[0.34488435]],JS
38,[[6]],[[39]],[[9]],['low holistic'],['right'],['inverted'],['U0155.bmp'],['male'],[],['male'],[[1]],[[0.02648587]],JS
39,[[6]],[[40]],[[19]],['high holistic'],['right'],['upright'],['U0361.bmp'],['female'],[],['male'],[[0]],[[0.0171808]],JS
40,[[6]],[[41]],[[15]],['low holistic'],['right'],['inverted'],['U0312.bmp'],['male'],[],['female'],[[0]],[[0.00023454]],JS
41,[[6]],[[42]],[[9]],['low holistic'],['left'],['inverted'],['U0155.bmp'],['male'],[],['male'],[[1]],[[0.03294455]],JS
42,[[6]],[[43]],[[14]],['low holistic'],['fovea'],['upright'],['U0228.bmp'],['male'],[],['female'],[[0]],[[0.00036954]],JS
43,[[6]],[[44]],[[9]],['high holistic'],['left'],['inverted'],['U0155.bmp'],['female'],[],['male'],[[0]],[[0.01644041]],JS
44,[[6]],[[45]],[[4]],['high holistic'],['left'],['upright'],['U0061.bmp'],['female'],[],['female'],[[1]],[[0.29556568]],JS
45,[[6]],[[46]],[[12]],['low holistic'],['left'],['inverted'],['U0178.bmp'],['female'],[],['female'],[[1]],[[0.00045627]],JS
46,[[6]],[[47]],[[8]],['high holistic'],['right'],['upright'],['U0137.bmp'],['female'],[],['male'],[[0]],[[0.00010546]],JS
47,[[6]],[[48]],[[18]],['high holistic'],['right'],['upright'],['U0359.bmp'],['male'],[],['male'],[[1]],[[0.09952801]],JS
48,[[6]],[[49]],[[9]],['high holistic'],['right'],['inverted'],['U0155.bmp'],['female'],[],['female'],[[1]],[[0.25584668]],JS
49,[[6]],[[50]],[[20]],['high holistic'],['left'],['inverted'],['U0362.bmp'],['female'],[],['female'],[[1]],[[0.17298868]],JS
50,[[6]],[[51]],[[10]],['high holistic'],['left'],['upright'],['U0159.bmp'],['male'],[],['female'],[[0]],[[0.23933279]],JS
51,[[6]],[[52]],[[11]],['low holistic'],['right'],['inverted'],['U0164.bmp'],['female'],[],['male'],[[0]],[[0.15761585]],JS
52,[[6]],[[53]],[[11]],['high holistic'],['left'],['inverted'],['U0164.bmp'],['female'],[],['male'],[[0]],[[0.15987372]],JS
53,[[6]],[[54]],[[15]],['low holistic'],['left'],['upright'],['U0312.bmp'],['male'],[],['female'],[[0]],[[0.13794694]],JS
54,[[6]],[[55]],[[10]],['low holistic'],['right'],['upright'],['U0159.bmp'],['female'],[],['male'],[[0]],[[0.02722899]],JS
55,[[6]],[[56]],[[3]],['high holistic'],['left'],['upright'],['U0020.bmp'],['male'],[],['male'],[[1]],[[0.24314693]],JS
56,[[6]],[[57]],[[14]],['low holistic'],['right'],['inverted'],['U0228.bmp'],['male'],[],['female'],[[0]],[[0.92063294]],JS
57,[[6]],[[58]],[[16]],['high holistic'],['left'],['inverted'],['U0335.bmp'],['female'],[],['female'],[[1]],[[0.18738263]],JS
58,[[6]],[[59]],[[5]],['low holistic'],['right'],['inverted'],['U0076.bmp'],['male'],[],['female'],[[0]],[[0.19604585]],JS
59,[[6]],[[60]],[[9]],['high holistic'],['right'],['upright'],['U0155.bmp'],['female'],[],['female'],[[1]],[[0.59615692]],JS
60,[[6]],[[61]],[[12]],['low holistic'],['right'],['inverted'],['U0178.bmp'],['female'],[],['female'],[[1]],[[0.0609205]],JS
61,[[6]],[[62]],[[13]],['high holistic'],['left'],['inverted'],['U0181.bmp'],['female'],[],['male'],[[0]],[[0.00244503]],JS
62,[[6]],[[63]],[[8]],['low holistic'],['right'],['inverted'],['U0137.bmp'],['male'],[],['female'],[[0]],[[1.63302488]],JS
63,[[6]],[[64]],[[8]],['low holistic'],['right'],['upright'],['U0137.bmp'],['male'],[],['male'],[[1]],[[0.25551111]],JS
64,[[6]],[[65]],[[2]],['high holistic'],['right'],['upright'],['U0014.bmp'],['male'],[],['male'],[[1]],[[0.589529]],JS
65,[[6]],[[66]],[[10]],['low holistic'],['right'],['inverted'],['U0159.bmp'],['female'],[],['female'],[[1]],[[0.00031847]],JS
66,[[6]],[[67]],[[18]],['low holistic'],['left'],['upright'],['U0359.bmp'],['male'],[],['male'],[[1]],[[9.93278809e-05]],JS
67,[[6]],[[68]],[[1]],['high holistic'],['right'],['inverted'],['U0006.bmp'],['female'],[],['female'],[[1]],[[0.00022163]],JS
68,[[6]],[[69]],[[1]],['high holistic'],['left'],['inverted'],['U0006.bmp'],['female'],[],['male'],[[0]],[[9.91171692e-05]],JS
69,[[6]],[[70]],[[6]],['high holistic'],['right'],['upright'],['U0106.bmp'],['female'],[],['male'],[[0]],[[0.10107608]],JS
70,[[6]],[[71]],[[7]],['low holistic'],['right'],['upright'],['U0107.bmp'],['female'],[],['female'],[[1]],[[0.06489304]],JS
71,[[6]],[[72]],[[12]],['low holistic'],['right'],['upright'],['U0178.bmp'],['female'],[],['female'],[[1]],[[0.17527227]],JS
72,[[6]],[[73]],[[17]],['low holistic'],['left'],['inverted'],['U0346.bmp'],['female'],[],['male'],[[0]],[[0.15817503]],JS
73,[[6]],[[74]],[[15]],['high holistic'],['left'],['inverted'],['U0312.bmp'],['male'],[],['male'],[[1]],[[0.11127517]],JS
74,[[6]],[[75]],[[12]],['high holistic'],['right'],['upright'],['U0178.bmp'],['male'],[],['female'],[[0]],[[0.40327947]],JS
75,[[6]],[[76]],[[16]],['high holistic'],['left'],['upright'],['U0335.bmp'],['female'],[],['female'],[[1]],[[0.21156019]],JS
76,[[6]],[[77]],[[10]],['high holistic'],['fovea'],['upright'],['U0159.bmp'],['male'],[],['male'],[[1]],[[0.2917309]],JS
77,[[6]],[[78]],[[4]],['low holistic'],['left'],['upright'],['U0061.bmp'],['female'],[],['male'],[[0]],[[0.19916496]],JS
78,[[6]],[[79]],[[10]],['high holistic'],['left'],['inverted'],['U0159.bmp'],['male'],[],['male'],[[1]],[[0.2060578]],JS
79,[[6]],[[80]],[[5]],['low holistic'],['left'],['inverted'],['U0076.bmp'],['male'],[],['female'],[[0]],[[0.04694028]],JS
80,[[6]],[[81]],[[11]],['low holistic'],['left'],['upright'],['U0164.bmp'],['female'],[],['male'],[[0]],[[1.48595124]],JS
81,[[6]],[[82]],[[11]],['low holistic'],['right'],['upright'],['U0164.bmp'],['female'],[],['female'],[[1]],[[9.8929042e-05]],JS
82,[[6]],[[83]],[[13]],['high holistic'],['left'],['upright'],['U0181.bmp'],['female'],[],['female'],[[1]],[[0.00014236]],JS
83,[[6]],[[84]],[[13]],['high holistic'],['left'],['upright'],['U0181.bmp'],['female'],[],['female'],[[1]],[[9.90328845e-05]],JS
84,[[6]],[[85]],[[17]],['low holistic'],['left'],['inverted'],['U0346.bmp'],['female'],[],['male'],[[0]],[[6.06522878]],JS
85,[[6]],[[86]],[[8]],['low holistic'],['left'],['upright'],['U0137.bmp'],['male'],[],['male'],[[1]],[[0.07858732]],JS
86,[[6]],[[87]],[[19]],['high holistic'],['right'],['inverted'],['U0361.bmp'],['female'],[],['female'],[[1]],[[0.00011142]],JS
87,[[6]],[[88]],[[11]],['low holistic'],['right'],['upright'],['U0164.bmp'],['female'],[],['male'],[[0]],[[0.84433294]],JS
88,[[6]],[[89]],[[3]],['low holistic'],['right'],['inverted'],['U0020.bmp'],['female'],[],['female'],[[1]],[[0.64925238]],JS
89,[[6]],[[90]],[[4]],['low holistic'],['right'],['upright'],['U0061.bmp'],['female'],[],['female'],[[1]],[[0.20921874]],JS
90,[[6]],[[91]],[[3]],['low holistic'],['right'],['inverted'],['U0020.bmp'],['female'],[],['female'],[[1]],[[0.0001076]],JS
91,[[6]],[[92]],[[12]],['low holistic'],['left'],['upright'],['U0178.bmp'],['female'],[],['female'],[[1]],[[0.09346902]],JS
92,[[6]],[[93]],[[15]],['low holistic'],['fovea'],['upright'],['U0312.bmp'],['male'],[],['male'],[[1]],[[0.00012477]],JS
93,[[6]],[[94]],[[9]],['low holistic'],['right'],['inverted'],['U0155.bmp'],['male'],[],['female'],[[0]],[[0.52967344]],JS
94,[[6]],[[95]],[[14]],['high holistic'],['left'],['inverted'],['U0228.bmp'],['male'],[],['male'],[[1]],[[0.26836238]],JS
95,[[6]],[[96]],[[18]],['low holistic'],['left'],['inverted'],['U0359.bmp'],['male'],[],['male'],[[1]],[[0.13751133]],JS
96,[[6]],[[97]],[[2]],['high holistic'],['left'],['inverted'],['U0014.bmp'],['male'],[],['female'],[[0]],[[0.06062931]],JS
97,[[6]],[[98]],[[20]],['low holistic'],['left'],['upright'],['U0362.bmp'],['male'],[],['male'],[[1]],[[0.02504136]],JS
98,[[6]],[[99]],[[20]],['low holistic'],['right'],['upright'],['U0362.bmp'],['male'],[],['female'],[[0]],[[0.00861762]],JS
99,[[6]],[[100]],[[18]],['low holistic'],['fovea'],['inverted'],['U0359.bmp'],['male'],[],['male'],[[1]],[[0.18553961]],JS
100,[[6]],[[101]],[[20]],['low holistic'],['left'],['inverted'],['U0362.bmp'],['male'],[],['male'],[[1]],[[0.21890917]],JS
101,[[6]],[[102]],[[20]],['low holistic'],['left'],['upright'],['U0362.bmp'],['male'],[],['male'],[[1]],[[0.10629594]],JS
102,[[6]],[[103]],[[7]],['high holistic'],['left'],['upright'],['U0107.bmp'],['female'],[],['female'],[[1]],[[0.08610156]],JS
103,[[6]],[[104]],[[4]],['high holistic'],['left'],['upright'],['U0061.bmp'],['female'],[],['female'],[[1]],[[0.3067998]],JS
104,[[6]],[[105]],[[2]],['high holistic'],['right'],['upright'],['U0014.bmp'],['male'],[],['male'],[[1]],[[0.19706594]],JS
105,[[6]],[[106]],[[3]],['low holistic'],['right'],['inverted'],['U0020.bmp'],['female'],[],['male'],[[0]],[[0.24636714]],JS
106,[[6]],[[107]],[[18]],['low holistic'],['left'],['upright'],['U0359.bmp'],['male'],[],['male'],[[1]],[[0.46700381]],JS
107,[[6]],[[108]],[[7]],['low holistic'],['left'],['inverted'],['U0107.bmp'],['female'],[],['male'],[[0]],[[0.13743566]],JS
108,[[6]],[[109]],[[20]],['low holistic'],['right'],['inverted'],['U0362.bmp'],['male'],[],['female'],[[0]],[[0.00010566]],JS
109,[[6]],[[110]],[[1]],['high holistic'],['right'],['upright'],['U0006.bmp'],['female'],[],['male'],[[0]],[[0.2604386]],JS
110,[[6]],[[111]],[[14]],['low holistic'],['fovea'],['inverted'],['U0228.bmp'],['male'],[],['female'],[[0]],[[0.96165361]],JS
111,[[6]],[[112]],[[14]],['high holistic'],['left'],['upright'],['U0228.bmp'],['male'],[],['male'],[[1]],[[0.43449134]],JS
112,[[6]],[[113]],[[2]],['low holistic'],['left'],['upright'],['U0014.bmp'],['male'],[],['male'],[[1]],[[0.05692324]],JS
113,[[6]],[[114]],[[10]],['low holistic'],['right'],['inverted'],['U0159.bmp'],['female'],[],['male'],[[0]],[[0.06215797]],JS
114,[[6]],[[115]],[[12]],['low holistic'],['right'],['upright'],['U0178.bmp'],['female'],[],['female'],[[1]],[[0.42178743]],JS
115,[[6]],[[116]],[[19]],['low holistic'],['right'],['inverted'],['U0361.bmp'],['female'],[],['female'],[[1]],[[0.24425165]],JS
116,[[6]],[[117]],[[5]],['low holistic'],['left'],['inverted'],['U0076.bmp'],['male'],[],['male'],[[1]],[[0.20278541]],JS
117,[[6]],[[118]],[[17]],['high holistic'],['right'],['inverted'],['U0346.bmp'],['male'],[],['male'],[[1]],[[0.23463384]],JS
118,[[6]],[[119]],[[4]],['high holistic'],['left'],['inverted'],['U0061.bmp'],['female'],[],['male'],[[0]],[[0.03276787]],JS
119,[[6]],[[120]],[[4]],['low holistic'],['right'],['inverted'],['U0061.bmp'],['female'],[],['male'],[[0]],[[0.44009436]],JS
120,[[6]],[[121]],[[15]],['low holistic'],['left'],['inverted'],['U0312.bmp'],['male'],[],['female'],[[0]],[[0.03956845]],JS
121,[[6]],[[122]],[[18]],['low holistic'],['right'],['upright'],['U0359.bmp'],['male'],[],['male'],[[1]],[[0.50022206]],JS
122,[[6]],[[123]],[[18]],['low holistic'],['left'],['upright'],['U0359.bmp'],['male'],[],['male'],[[1]],[[0.12045694]],JS
123,[[6]],[[124]],[[7]],['low holistic'],['right'],['inverted'],['U0107.bmp'],['female'],[],['female'],[[1]],[[0.15495528]],JS
124,[[6]],[[125]],[[6]],['low holistic'],['left'],['inverted'],['U0106.bmp'],['male'],[],['female'],[[0]],[[0.27051728]],JS
125,[[6]],[[126]],[[8]],['high holistic'],['right'],['upright'],['U0137.bmp'],['female'],[],['male'],[[0]],[[0.044311]],JS
126,[[6]],[[127]],[[7]],['high holistic'],['left'],['inverted'],['U0107.bmp'],['female'],[],['female'],[[1]],[[9.79108736e-05]],JS
127,[[6]],[[128]],[[4]],['high holistic'],['right'],['inverted'],['U0061.bmp'],['female'],[],['male'],[[0]],[[0.2730607]],JS
128,[[6]],[[129]],[[9]],['high holistic'],['right'],['inverted'],['U0155.bmp'],['female'],[],['male'],[[0]],[[0.0937606]],JS
129,[[6]],[[130]],[[7]],['low holistic'],['right'],['upright'],['U0107.bmp'],['female'],[],['male'],[[0]],[[0.31462035]],JS
130,[[6]],[[131]],[[4]],['high holistic'],['left'],['upright'],['U0061.bmp'],['female'],[],['male'],[[0]],[[0.38095109]],JS
131,[[6]],[[132]],[[18]],['low holistic'],['right'],['upright'],['U0359.bmp'],['male'],[],['female'],[[0]],[[0.45422786]],JS
132,[[6]],[[133]],[[15]],['low holistic'],['right'],['inverted'],['U0312.bmp'],['male'],[],['male'],[[1]],[[0.13936488]],JS
133,[[6]],[[134]],[[1]],['high holistic'],['right'],['upright'],['U0006.bmp'],['female'],[],['female'],[[1]],[[0.00015427]],JS
134,[[6]],[[135]],[[18]],['low holistic'],['right'],['inverted'],['U0359.bmp'],['male'],[],['male'],[[1]],[[0.02940967]],JS
135,[[6]],[[136]],[[6]],['high holistic'],['right'],['inverted'],['U0106.bmp'],['female'],[],['female'],[[1]],[[0.06064945]],JS
136,[[6]],[[137]],[[7]],['low holistic'],['fovea'],['upright'],['U0107.bmp'],['female'],[],['female'],[[1]],[[1.32180904]],JS
137,[[6]],[[138]],[[20]],['high holistic'],['left'],['upright'],['U0362.bmp'],['female'],[],['male'],[[0]],[[0.18818389]],JS
138,[[6]],[[139]],[[18]],['low holistic'],['fovea'],['inverted'],['U0359.bmp'],['male'],[],['male'],[[1]],[[0.11004284]],JS
139,[[6]],[[140]],[[12]],['low holistic'],['right'],['upright'],['U0178.bmp'],['female'],[],['female'],[[1]],[[0.12979287]],JS
140,[[6]],[[141]],[[8]],['high holistic'],['left'],['inverted'],['U0137.bmp'],['female'],[],['female'],[[1]],[[0.00010493]],JS
141,[[6]],[[142]],[[5]],['low holistic'],['left'],['upright'],['U0076.bmp'],['male'],[],['female'],[[0]],[[0.00010535]],JS
142,[[6]],[[143]],[[19]],['low holistic'],['left'],['inverted'],['U0361.bmp'],['female'],[],['female'],[[1]],[[0.07569058]],JS
143,[[6]],[[144]],[[3]],['low holistic'],['left'],['inverted'],['U0020.bmp'],['female'],[],['female'],[[1]],[[9.83700156e-05]],JS
144,[[6]],[[145]],[[6]],['high holistic'],['right'],['inverted'],['U0106.bmp'],['female'],[],['male'],[[0]],[[1.31978659]],JS
145,[[6]],[[146]],[[3]],['high holistic'],['left'],['upright'],['U0020.bmp'],['male'],[],['female'],[[0]],[[0.00010818]],JS
146,[[6]],[[147]],[[9]],['low holistic'],['left'],['inverted'],['U0155.bmp'],['male'],[],['male'],[[1]],[[1.21183899]],JS
147,[[6]],[[148]],[[19]],['high holistic'],['left'],['inverted'],['U0361.bmp'],['female'],[],['female'],[[1]],[[0.25041667]],JS
148,[[6]],[[149]],[[1]],['high holistic'],['left'],['inverted'],['U0006.bmp'],['female'],[],['male'],[[0]],[[0.21009475]],JS
149,[[6]],[[150]],[[13]],['high holistic'],['left'],['inverted'],['U0181.bmp'],['female'],[],['male'],[[0]],[[0.21751954]],JS
150,[[6]],[[151]],[[18]],['high holistic'],['left'],['upright'],['U0359.bmp'],['male'],[],['female'],[[0]],[[0.30391212]],JS
151,[[6]],[[152]],[[18]],['high holistic'],['left'],['upright'],['U0359.bmp'],['male'],[],['female'],[[0]],[[0.03663251]],JS
152,[[6]],[[153]],[[20]],['high holistic'],['left'],['inverted'],['U0362.bmp'],['female'],[],['female'],[[1]],[[0.5148309]],JS
153,[[6]],[[154]],[[2]],['low holistic'],['right'],['inverted'],['U0014.bmp'],['male'],[],['female'],[[0]],[[0.05388854]],JS
154,[[6]],[[155]],[[19]],['low holistic'],['right'],['upright'],['U0361.bmp'],['female'],[],['female'],[[1]],[[0.00010607]],JS
155,[[6]],[[156]],[[18]],['low holistic'],['right'],['upright'],['U0359.bmp'],['male'],[],['male'],[[1]],[[0.00016457]],JS
156,[[6]],[[157]],[[17]],['low holistic'],['right'],['upright'],['U0346.bmp'],['female'],[],['female'],[[1]],[[0.00043685]],JS
157,[[6]],[[158]],[[9]],['high holistic'],['right'],['inverted'],['U0155.bmp'],['female'],[],['male'],[[0]],[[9.84610524e-05]],JS
158,[[6]],[[159]],[[7]],['high holistic'],['left'],['upright'],['U0107.bmp'],['female'],[],['female'],[[1]],[[0.26682393]],JS
159,[[6]],[[160]],[[15]],['high holistic'],['left'],['inverted'],['U0312.bmp'],['male'],[],['female'],[[0]],[[0.21851665]],JS
160,[[6]],[[161]],[[9]],['high holistic'],['right'],['inverted'],['U0155.bmp'],['female'],[],['male'],[[0]],[[0.1842862]],JS
161,[[6]],[[162]],[[7]],['high holistic'],['right'],['inverted'],['U0107.bmp'],['female'],[],['female'],[[1]],[[0.19342035]],JS
162,[[6]],[[163]],[[16]],['low holistic'],['fovea'],['upright'],['U0335.bmp'],['female'],[],['female'],[[1]],[[0.00010521]],JS
163,[[6]],[[164]],[[14]],['low holistic'],['right'],['upright'],['U0228.bmp'],['male'],[],['male'],[[1]],[[0.00010526]],JS
164,[[6]],[[165]],[[11]],['low holistic'],['fovea'],['upright'],['U0164.bmp'],['female'],[],['female'],[[1]],[[0.0005061]],JS
165,[[6]],[[166]],[[7]],['high holistic'],['left'],['upright'],['U0107.bmp'],['female'],[],['male'],[[0]],[[0.52915401]],JS
166,[[6]],[[167]],[[11]],['low holistic'],['right'],['upright'],['U0164.bmp'],['female'],[],['female'],[[1]],[[0.30861469]],JS
167,[[6]],[[168]],[[11]],['low holistic'],['right'],['inverted'],['U0164.bmp'],['female'],[],['female'],[[1]],[[9.94980801e-05]],JS
168,[[6]],[[169]],[[11]],['high holistic'],['right'],['upright'],['U0164.bmp'],['female'],[],['male'],[[0]],[[0.11273154]],JS
169,[[6]],[[170]],[[10]],['low holistic'],['left'],['upright'],['U0159.bmp'],['female'],[],['female'],[[1]],[[0.04402638]],JS
170,[[6]],[[171]],[[4]],['high holistic'],['left'],['inverted'],['U0061.bmp'],['female'],[],['female'],[[1]],[[0.00027887]],JS
171,[[6]],[[172]],[[2]],['low holistic'],['right'],['inverted'],['U0014.bmp'],['male'],[],['male'],[[1]],[[0.37886462]],JS
172,[[6]],[[173]],[[2]],['low holistic'],['right'],['inverted'],['U0014.bmp'],['male'],[],['male'],[[1]],[[0.4115601]],JS
173,[[6]],[[174]],[[4]],['low holistic'],['right'],['inverted'],['U0061.bmp'],['female'],[],['female'],[[1]],[[0.33163858]],JS
174,[[6]],[[175]],[[14]],['high holistic'],['left'],['upright'],['U0228.bmp'],['male'],[],['male'],[[1]],[[0.25338884]],JS
175,[[6]],[[176]],[[18]],['high holistic'],['right'],['upright'],['U0359.bmp'],['male'],[],['male'],[[1]],[[0.40261961]],JS
176,[[6]],[[177]],[[18]],['low holistic'],['fovea'],['inverted'],['U0359.bmp'],['male'],[],['male'],[[1]],[[0.21798146]],JS
177,[[6]],[[178]],[[9]],['high holistic'],['left'],['inverted'],['U0155.bmp'],['female'],[],['female'],[[1]],[[0.41749724]],JS
178,[[6]],[[179]],[[4]],['high holistic'],['left'],['upright'],['U0061.bmp'],['female'],[],['female'],[[1]],[[0.16238322]],JS
179,[[6]],[[180]],[[17]],['high holistic'],['right'],['upright'],['U0346.bmp'],['male'],[],['female'],[[0]],[[0.23492971]],JS
180,[[6]],[[181]],[[12]],['high holistic'],['fovea'],['inverted'],['U0178.bmp'],['male'],[],['female'],[[0]],[[0.14463739]],JS
181,[[6]],[[182]],[[1]],['high holistic'],['left'],['upright'],['U0006.bmp'],['female'],[],['female'],[[1]],[[0.00010581]],JS
182,[[6]],[[183]],[[5]],['high holistic'],['left'],['upright'],['U0076.bmp'],['female'],[],['female'],[[1]],[[0.00032325]],JS
183,[[6]],[[184]],[[8]],['low holistic'],['left'],['upright'],['U0137.bmp'],['male'],[],['male'],[[1]],[[0.13530114]],JS
184,[[6]],[[185]],[[13]],['low holistic'],['left'],['inverted'],['U0181.bmp'],['male'],[],['male'],[[1]],[[0.17171661]],JS
185,[[6]],[[186]],[[14]],['high holistic'],['right'],['inverted'],['U0228.bmp'],['male'],[],['female'],[[0]],[[0.35557733]],JS
186,[[6]],[[187]],[[18]],['high holistic'],['fovea'],['inverted'],['U0359.bmp'],['male'],[],['female'],[[0]],[[0.22259372]],JS
187,[[6]],[[188]],[[8]],['low holistic'],['left'],['upright'],['U0137.bmp'],['male'],[],['male'],[[1]],[[0.10855455]],JS
188,[[6]],[[189]],[[9]],['high holistic'],['left'],['upright'],['U0155.bmp'],['female'],[],['female'],[[1]],[[0.27136393]],JS
189,[[6]],[[190]],[[2]],['high holistic'],['right'],['inverted'],['U0014.bmp'],['male'],[],['male'],[[1]],[[0.15589046]],JS
190,[[6]],[[191]],[[18]],['high holistic'],['fovea'],['inverted'],['U0359.bmp'],['male'],[],['female'],[[0]],[[0.20644662]],JS
191,[[6]],[[192]],[[14]],['low holistic'],['left'],['inverted'],['U0228.bmp'],['male'],[],['male'],[[1]],[[0.19123826]],JS
192,[[6]],[[193]],[[16]],['low holistic'],['left'],['upright'],['U0335.bmp'],['female'],[],['female'],[[1]],[[0.02132865]],JS
193,[[6]],[[194]],[[6]],['low holistic'],['fovea'],['inverted'],['U0106.bmp'],['male'],[],['female'],[[0]],[[0.00032057]],JS
194,[[6]],[[195]],[[1]],['high holistic'],['left'],['upright'],['U0006.bmp'],['female'],[],['male'],[[0]],[[0.38883929]],JS
195,[[6]],[[196]],[[1]],['high holistic'],['left'],['upright'],['U0006.bmp'],['female'],[],['female'],[[1]],[[1.49476071]],JS
196,[[6]],[[197]],[[1]],['low holistic'],['left'],['upright'],['U0006.bmp'],['female'],[],['female'],[[1]],[[0.00035751]],JS
197,[[6]],[[198]],[[12]],['high holistic'],['right'],['inverted'],['U0178.bmp'],['male'],[],['female'],[[0]],[[0.0509047]],JS
198,[[6]],[[199]],[[17]],['low holistic'],['right'],['upright'],['U0346.bmp'],['female'],[],['female'],[[1]],[[0.01495634]],JS
199,[[6]],[[200]],[[5]],['high holistic'],['left'],['inverted'],['U0076.bmp'],['female'],[],['female'],[[1]],[[0.20856642]],JS
200,[[6]],[[201]],[[6]],['high holistic'],['right'],['upright'],['U0106.bmp'],['female'],[],['female'],[[1]],[[0.23958976]],JS
201,[[6]],[[202]],[[6]],['high holistic'],['left'],['upright'],['U0106.bmp'],['female'],[],['female'],[[1]],[[0.20586066]],JS
202,[[6]],[[203]],[[6]],['low holistic'],['right'],['upright'],['U0106.bmp'],['male'],[],['male'],[[1]],[[0.11693701]],JS
203,[[6]],[[204]],[[14]],['high holistic'],['left'],['upright'],['U0228.bmp'],['male'],[],['male'],[[1]],[[0.33613017]],JS
204,[[6]],[[205]],[[5]],['high holistic'],['left'],['inverted'],['U0076.bmp'],['female'],[],['male'],[[0]],[[0.13031337]],JS
205,[[6]],[[206]],[[12]],['high holistic'],['right'],['inverted'],['U0178.bmp'],['male'],[],['female'],[[0]],[[0.24587855]],JS
206,[[6]],[[207]],[[14]],['low holistic'],['left'],['upright'],['U0228.bmp'],['male'],[],['female'],[[0]],[[0.00010026]],JS
207,[[6]],[[208]],[[6]],['low holistic'],['left'],['inverted'],['U0106.bmp'],['male'],[],['male'],[[1]],[[0.34852554]],JS
208,[[6]],[[209]],[[12]],['high holistic'],['fovea'],['upright'],['U0178.bmp'],['male'],[],['male'],[[1]],[[0.1821096]],JS
209,[[6]],[[210]],[[19]],['high holistic'],['right'],['upright'],['U0361.bmp'],['female'],[],['female'],[[1]],[[0.44625815]],JS
210,[[6]],[[211]],[[11]],['low holistic'],['right'],['inverted'],['U0164.bmp'],['female'],[],['female'],[[1]],[[0.23626641]],JS
211,[[6]],[[212]],[[11]],['high holistic'],['right'],['inverted'],['U0164.bmp'],['female'],[],['female'],[[1]],[[0.09738886]],JS
212,[[6]],[[213]],[[6]],['low holistic'],['left'],['upright'],['U0106.bmp'],['male'],[],['male'],[[1]],[[0.4157851]],JS
213,[[6]],[[214]],[[1]],['low holistic'],['left'],['upright'],['U0006.bmp'],['female'],[],['female'],[[1]],[[0.00014296]],JS
214,[[6]],[[215]],[[15]],['low holistic'],['right'],['upright'],['U0312.bmp'],['male'],[],['male'],[[1]],[[0.04590632]],JS
215,[[6]],[[216]],[[10]],['high holistic'],['right'],['upright'],['U0159.bmp'],['male'],[],['male'],[[1]],[[0.05978083]],JS
216,[[6]],[[217]],[[14]],['low holistic'],['left'],['upright'],['U0228.bmp'],['male'],[],['male'],[[1]],[[0.05779029]],JS
217,[[6]],[[218]],[[12]],['low holistic'],['left'],['inverted'],['U0178.bmp'],['female'],[],['female'],[[1]],[[0.00014926]],JS
218,[[6]],[[219]],[[11]],['low holistic'],['right'],['upright'],['U0164.bmp'],['female'],[],['female'],[[1]],[[0.00012073]],JS
219,[[6]],[[220]],[[16]],['high holistic'],['right'],['upright'],['U0335.bmp'],['female'],[],['female'],[[1]],[[0.00010731]],JS
220,[[6]],[[221]],[[12]],['high holistic'],['fovea'],['upright'],['U0178.bmp'],['male'],[],['female'],[[0]],[[0.22926902]],JS
221,[[6]],[[222]],[[11]],['high holistic'],['left'],['inverted'],['U0164.bmp'],['female'],[],['female'],[[1]],[[0.00462915]],JS
222,[[6]],[[223]],[[14]],['low holistic'],['right'],['upright'],['U0228.bmp'],['male'],[],['male'],[[1]],[[0.23561728]],JS
223,[[6]],[[224]],[[8]],['low holistic'],['fovea'],['inverted'],['U0137.bmp'],['male'],[],['male'],[[1]],[[1.57990547]],JS
224,[[6]],[[225]],[[15]],['low holistic'],['left'],['upright'],['U0312.bmp'],['male'],[],['male'],[[1]],[[0.0001002]],JS
225,[[6]],[[226]],[[17]],['high holistic'],['right'],['upright'],['U0346.bmp'],['male'],[],['male'],[[1]],[[1.92013038]],JS
226,[[6]],[[227]],[[10]],['high holistic'],['left'],['inverted'],['U0159.bmp'],['male'],[],['male'],[[1]],[[0.13791849]],JS
227,[[6]],[[228]],[[1]],['low holistic'],['left'],['inverted'],['U0006.bmp'],['female'],[],['female'],[[1]],[[0.01191163]],JS
228,[[6]],[[229]],[[4]],['low holistic'],['left'],['upright'],['U0061.bmp'],['female'],[],['female'],[[1]],[[9.99330077e-05]],JS
229,[[6]],[[230]],[[19]],['high holistic'],['left'],['upright'],['U0361.bmp'],['female'],[],['female'],[[1]],[[0.22010632]],JS
230,[[6]],[[231]],[[3]],['low holistic'],['right'],['upright'],['U0020.bmp'],['female'],[],['female'],[[1]],[[0.65924382]],JS
231,[[6]],[[232]],[[7]],['low holistic'],['right'],['upright'],['U0107.bmp'],['female'],[],['male'],[[0]],[[0.00010695]],JS
232,[[6]],[[233]],[[10]],['low holistic'],['left'],['upright'],['U0159.bmp'],['female'],[],['female'],[[1]],[[0.00047852]],JS
233,[[6]],[[234]],[[10]],['high holistic'],['left'],['upright'],['U0159.bmp'],['male'],[],['female'],[[0]],[[1.65664981]],JS
234,[[6]],[[235]],[[4]],['low holistic'],['left'],['inverted'],['U0061.bmp'],['female'],[],['female'],[[1]],[[0.05331755]],JS
235,[[6]],[[236]],[[20]],['low holistic'],['left'],['inverted'],['U0362.bmp'],['male'],[],['male'],[[1]],[[0.1399398]],JS
236,[[6]],[[237]],[[17]],['high holistic'],['right'],['upright'],['U0346.bmp'],['male'],[],['male'],[[1]],[[0.00019228]],JS
237,[[6]],[[238]],[[19]],['low holistic'],['right'],['inverted'],['U0361.bmp'],['female'],[],['male'],[[0]],[[0.00010459]],JS
238,[[6]],[[239]],[[2]],['high holistic'],['left'],['inverted'],['U0014.bmp'],['male'],[],['female'],[[0]],[[1.33371652]],JS
239,[[6]],[[240]],[[8]],['low holistic'],['right'],['upright'],['U0137.bmp'],['male'],[],['male'],[[1]],[[0.0265989]],JS
240,[[6]],[[241]],[[18]],['low holistic'],['left'],['inverted'],['U0359.bmp'],['male'],[],['female'],[[0]],[[0.32916165]],JS
241,[[6]],[[242]],[[15]],['low holistic'],['fovea'],['upright'],['U0312.bmp'],['male'],[],['male'],[[1]],[[0.05042531]],JS
242,[[6]],[[243]],[[6]],['high holistic'],['right'],['upright'],['U0106.bmp'],['female'],[],['male'],[[0]],[[0.13725182]],JS
243,[[6]],[[244]],[[12]],['low holistic'],['left'],['inverted'],['U0178.bmp'],['female'],[],['female'],[[1]],[[9.85730439e-05]],JS
244,[[6]],[[245]],[[19]],['high holistic'],['right'],['inverted'],['U0361.bmp'],['female'],[],['male'],[[0]],[[9.77970194e-05]],JS
245,[[6]],[[246]],[[17]],['low holistic'],['left'],['inverted'],['U0346.bmp'],['female'],[],['female'],[[1]],[[0.00017736]],JS
246,[[6]],[[247]],[[18]],['high holistic'],['right'],['inverted'],['U0359.bmp'],['male'],[],['male'],[[1]],[[0.00010617]],JS
247,[[6]],[[248]],[[10]],['low holistic'],['right'],['upright'],['U0159.bmp'],['female'],[],['female'],[[1]],[[0.00011621]],JS
248,[[6]],[[249]],[[20]],['low holistic'],['right'],['upright'],['U0362.bmp'],['male'],[],['female'],[[0]],[[0.00011352]],JS
249,[[6]],[[250]],[[13]],['low holistic'],['left'],['inverted'],['U0181.bmp'],['male'],[],['male'],[[1]],[[0.00022394]],JS
250,[[6]],[[251]],[[5]],['high holistic'],['right'],['upright'],['U0076.bmp'],['female'],[],['female'],[[1]],[[0.22810988]],JS
251,[[6]],[[252]],[[1]],['high holistic'],['left'],['inverted'],['U0006.bmp'],['female'],[],['female'],[[1]],[[0.27397081]],JS
252,[[6]],[[253]],[[10]],['low holistic'],['right'],['inverted'],['U0159.bmp'],['female'],[],['female'],[[1]],[[0.03083901]],JS
253,[[6]],[[254]],[[8]],['high holistic'],['right'],['inverted'],['U0137.bmp'],['female'],[],['female'],[[1]],[[0.00010501]],JS
254,[[6]],[[255]],[[14]],['high holistic'],['right'],['inverted'],['U0228.bmp'],['male'],[],['female'],[[0]],[[0.00010412]],JS
255,[[6]],[[256]],[[11]],['high holistic'],['right'],['inverted'],['U0164.bmp'],['female'],[],['female'],[[1]],[[0.0537102]],JS
256,[[6]],[[257]],[[6]],['high holistic'],['left'],['inverted'],['U0106.bmp'],['female'],[],['female'],[[1]],[[0.02010383]],JS
257,[[6]],[[258]],[[13]],['low holistic'],['left'],['upright'],['U0181.bmp'],['male'],[],['female'],[[0]],[[0.00010754]],JS
258,[[6]],[[259]],[[14]],['high holistic'],['left'],['inverted'],['U0228.bmp'],['male'],[],['female'],[[0]],[[0.00010786]],JS
259,[[6]],[[260]],[[3]],['low holistic'],['left'],['inverted'],['U0020.bmp'],['female'],[],['female'],[[1]],[[0.00010993]],JS
260,[[6]],[[261]],[[18]],['low holistic'],['fovea'],['upright'],['U0359.bmp'],['male'],[],['male'],[[1]],[[0.34453824]],JS
261,[[6]],[[262]],[[19]],['high holistic'],['fovea'],['upright'],['U0361.bmp'],['female'],[],['male'],[[0]],[[1.19528731]],JS
262,[[6]],[[263]],[[5]],['high holistic'],['right'],['inverted'],['U0076.bmp'],['female'],[],['female'],[[1]],[[0.06018879]],JS
263,[[6]],[[264]],[[9]],['high holistic'],['right'],['upright'],['U0155.bmp'],['female'],[],['female'],[[1]],[[0.15196978]],JS
264,[[6]],[[265]],[[6]],['low holistic'],['right'],['inverted'],['U0106.bmp'],['male'],[],['female'],[[0]],[[9.88000538e-05]],JS
265,[[6]],[[266]],[[1]],['high holistic'],['fovea'],['inverted'],['U0006.bmp'],['female'],[],['female'],[[1]],[[9.84820072e-05]],JS
266,[[6]],[[267]],[[12]],['high holistic'],['left'],['inverted'],['U0178.bmp'],['male'],[],['female'],[[0]],[[0.00010481]],JS
267,[[6]],[[268]],[[2]],['low holistic'],['left'],['upright'],['U0014.bmp'],['male'],[],['female'],[[0]],[[0.04323325]],JS
268,[[6]],[[269]],[[11]],['low holistic'],['left'],['upright'],['U0164.bmp'],['female'],[],['female'],[[1]],[[0.00045301]],JS
269,[[6]],[[270]],[[20]],['low holistic'],['left'],['upright'],['U0362.bmp'],['male'],[],['male'],[[1]],[[0.00016487]],JS
270,[[6]],[[271]],[[7]],['low holistic'],['left'],['upright'],['U0107.bmp'],['female'],[],['female'],[[1]],[[9.91369598e-05]],JS
271,[[6]],[[272]],[[18]],['low holistic'],['left'],['inverted'],['U0359.bmp'],['male'],[],['female'],[[0]],[[9.95451119e-05]],JS
272,[[6]],[[273]],[[11]],['low holistic'],['right'],['upright'],['U0164.bmp'],['female'],[],['female'],[[1]],[[0.0557362]],JS
273,[[6]],[[274]],[[8]],['high holistic'],['left'],['upright'],['U0137.bmp'],['female'],[],['male'],[[0]],[[0.14179879]],JS
274,[[6]],[[275]],[[11]],['low holistic'],['left'],['upright'],['U0164.bmp'],['female'],[],['female'],[[1]],[[0.2494044]],JS
275,[[6]],[[276]],[[5]],['low holistic'],['left'],['upright'],['U0076.bmp'],['male'],[],['male'],[[1]],[[0.03876768]],JS
276,[[6]],[[277]],[[17]],['high holistic'],['left'],['inverted'],['U0346.bmp'],['male'],[],['male'],[[1]],[[0.29397208]],JS
277,[[6]],[[278]],[[5]],['low holistic'],['right'],['inverted'],['U0076.bmp'],['male'],[],['male'],[[1]],[[0.00016458]],JS
278,[[6]],[[279]],[[6]],['low holistic'],['right'],['inverted'],['U0106.bmp'],['male'],[],['male'],[[1]],[[0.00010526]],JS
279,[[6]],[[280]],[[14]],['low holistic'],['left'],['upright'],['U0228.bmp'],['male'],[],['female'],[[0]],[[0.0002075]],JS
280,[[6]],[[281]],[[16]],['high holistic'],['left'],['upright'],['U0335.bmp'],['female'],[],['female'],[[1]],[[0.08854989]],JS
281,[[6]],[[282]],[[14]],['low holistic'],['right'],['upright'],['U0228.bmp'],['male'],[],['female'],[[0]],[[0.03074606]],JS
282,[[6]],[[283]],[[12]],['low holistic'],['left'],['inverted'],['U0178.bmp'],['female'],[],['female'],[[1]],[[0.34000165]],JS
283,[[6]],[[284]],[[10]],['low holistic'],['left'],['upright'],['U0159.bmp'],['female'],[],['female'],[[1]],[[0.02172185]],JS
284,[[6]],[[285]],[[1]],['high holistic'],['right'],['inverted'],['U0006.bmp'],['female'],[],['female'],[[1]],[[0.13332849]],JS
285,[[6]],[[286]],[[17]],['high holistic'],['left'],['inverted'],['U0346.bmp'],['male'],[],['female'],[[0]],[[0.03172723]],JS
286,[[6]],[[287]],[[9]],['low holistic'],['right'],['upright'],['U0155.bmp'],['male'],[],['male'],[[1]],[[0.00016721]],JS
287,[[6]],[[288]],[[11]],['low holistic'],['right'],['inverted'],['U0164.bmp'],['female'],[],['female'],[[1]],[[0.02180606]],JS
288,[[6]],[[289]],[[2]],['low holistic'],['right'],['upright'],['U0014.bmp'],['male'],[],['male'],[[1]],[[0.11830355]],JS
289,[[6]],[[290]],[[7]],['low holistic'],['right'],['inverted'],['U0107.bmp'],['female'],[],['female'],[[1]],[[0.01556963]],JS
290,[[6]],[[291]],[[10]],['low holistic'],['left'],['upright'],['U0159.bmp'],['female'],[],['female'],[[1]],[[0.08880745]],JS
291,[[6]],[[292]],[[9]],['low holistic'],['right'],['upright'],['U0155.bmp'],['male'],[],['male'],[[1]],[[0.00010263]],JS
292,[[6]],[[293]],[[10]],['low holistic'],['left'],['upright'],['U0159.bmp'],['female'],[],['female'],[[1]],[[0.0001655]],JS
293,[[6]],[[294]],[[8]],['low holistic'],['left'],['inverted'],['U0137.bmp'],['male'],[],['female'],[[0]],[[9.86331142e-05]],JS
294,[[6]],[[295]],[[7]],['low holistic'],['left'],['inverted'],['U0107.bmp'],['female'],[],['female'],[[1]],[[0.00010591]],JS
295,[[6]],[[296]],[[6]],['low holistic'],['right'],['upright'],['U0106.bmp'],['male'],[],['female'],[[0]],[[0.0001066]],JS
296,[[6]],[[297]],[[6]],['high holistic'],['right'],['upright'],['U0106.bmp'],['female'],[],['female'],[[1]],[[1.99593792]],JS
297,[[6]],[[298]],[[19]],['low holistic'],['right'],['inverted'],['U0361.bmp'],['female'],[],['female'],[[1]],[[0.17895797]],JS
298,[[6]],[[299]],[[7]],['high holistic'],['right'],['upright'],['U0107.bmp'],['female'],[],['male'],[[0]],[[0.0001185]],JS
299,[[6]],[[300]],[[9]],['high holistic'],['right'],['upright'],['U0155.bmp'],['female'],[],['female'],[[1]],[[0.17249555]],JS
300,[[6]],[[301]],[[15]],['high holistic'],['left'],['inverted'],['U0312.bmp'],['male'],[],['female'],[[0]],[[0.10102239]],JS
301,[[6]],[[302]],[[12]],['high holistic'],['right'],['inverted'],['U0178.bmp'],['male'],[],['female'],[[0]],[[0.09877055]],JS
302,[[6]],[[303]],[[18]],['low holistic'],['right'],['upright'],['U0359.bmp'],['male'],[],['female'],[[0]],[[0.15673728]],JS
303,[[6]],[[304]],[[12]],['low holistic'],['left'],['upright'],['U0178.bmp'],['female'],[],['female'],[[1]],[[0.56018209]],JS
304,[[6]],[[305]],[[4]],['high holistic'],['left'],['inverted'],['U0061.bmp'],['female'],[],['female'],[[1]],[[0.28780228]],JS
305,[[6]],[[306]],[[1]],['low holistic'],['left'],['inverted'],['U0006.bmp'],['female'],[],['female'],[[1]],[[0.0004407]],JS
306,[[6]],[[307]],[[18]],['low holistic'],['right'],['upright'],['U0359.bmp'],['male'],[],['male'],[[1]],[[9.66039952e-05]],JS
307,[[6]],[[308]],[[4]],['low holistic'],['left'],['inverted'],['U0061.bmp'],['female'],[],['female'],[[1]],[[0.0001]],JS
308,[[6]],[[309]],[[7]],['low holistic'],['left'],['upright'],['U0107.bmp'],['female'],[],['female'],[[1]],[[0.00010415]],JS
309,[[6]],[[310]],[[3]],['low holistic'],['left'],['upright'],['U0020.bmp'],['female'],[],['female'],[[1]],[[0.00015513]],JS
310,[[6]],[[311]],[[19]],['low holistic'],['left'],['inverted'],['U0361.bmp'],['female'],[],['female'],[[1]],[[0.00013699]],JS
311,[[6]],[[312]],[[14]],['low holistic'],['left'],['inverted'],['U0228.bmp'],['male'],[],['female'],[[0]],[[0.00049622]],JS
312,[[6]],[[313]],[[5]],['low holistic'],['fovea'],['upright'],['U0076.bmp'],['male'],[],['male'],[[1]],[[0.04643208]],JS
313,[[6]],[[314]],[[4]],['high holistic'],['fovea'],['inverted'],['U0061.bmp'],['female'],[],['female'],[[1]],[[0.20297551]],JS
314,[[6]],[[315]],[[4]],['low holistic'],['right'],['inverted'],['U0061.bmp'],['female'],[],['female'],[[1]],[[0.09064299]],JS
315,[[6]],[[316]],[[9]],['high holistic'],['right'],['inverted'],['U0155.bmp'],['female'],[],['female'],[[1]],[[0.23919149]],JS
316,[[6]],[[317]],[[16]],['high holistic'],['right'],['upright'],['U0335.bmp'],['female'],[],['female'],[[1]],[[0.16552251]],JS
317,[[6]],[[318]],[[19]],['high holistic'],['left'],['upright'],['U0361.bmp'],['female'],[],['female'],[[1]],[[0.37566493]],JS
318,[[6]],[[319]],[[11]],['low holistic'],['right'],['inverted'],['U0164.bmp'],['female'],[],['female'],[[1]],[[0.00010574]],JS
319,[[6]],[[320]],[[19]],['low holistic'],['left'],['upright'],['U0361.bmp'],['female'],[],['female'],[[1]],[[0.00024711]],JS
320,[[6]],[[321]],[[8]],['low holistic'],['right'],['upright'],['U0137.bmp'],['male'],[],['male'],[[1]],[[9.84270591e-05]],JS
321,[[6]],[[322]],[[2]],['low holistic'],['left'],['inverted'],['U0014.bmp'],['male'],[],['female'],[[0]],[[0.00010507]],JS
322,[[6]],[[323]],[[19]],['high holistic'],['right'],['upright'],['U0361.bmp'],['female'],[],['male'],[[0]],[[0.27965321]],JS
323,[[6]],[[324]],[[11]],['high holistic'],['right'],['upright'],['U0164.bmp'],['female'],[],['female'],[[1]],[[0.21343664]],JS
324,[[6]],[[325]],[[1]],['high holistic'],['left'],['upright'],['U0006.bmp'],['female'],[],['female'],[[1]],[[9.81588382e-05]],JS
325,[[6]],[[326]],[[18]],['high holistic'],['right'],['upright'],['U0359.bmp'],['male'],[],['male'],[[1]],[[0.02995951]],JS
326,[[6]],[[327]],[[9]],['low holistic'],['left'],['inverted'],['U0155.bmp'],['male'],[],['female'],[[0]],[[0.00011591]],JS
327,[[6]],[[328]],[[14]],['high holistic'],['left'],['upright'],['U0228.bmp'],['male'],[],['female'],[[0]],[[0.08416166]],JS
328,[[6]],[[329]],[[11]],['high holistic'],['right'],['upright'],['U0164.bmp'],['female'],[],['female'],[[1]],[[0.01623625]],JS
329,[[6]],[[330]],[[19]],['low holistic'],['left'],['upright'],['U0361.bmp'],['female'],[],['female'],[[1]],[[0.15115976]],JS
330,[[6]],[[331]],[[7]],['high holistic'],['left'],['inverted'],['U0107.bmp'],['female'],[],['female'],[[1]],[[0.08093469]],JS
331,[[6]],[[332]],[[19]],['low holistic'],['right'],['inverted'],['U0361.bmp'],['female'],[],['female'],[[1]],[[0.00027892]],JS
332,[[6]],[[333]],[[6]],['high holistic'],['left'],['inverted'],['U0106.bmp'],['female'],[],['female'],[[1]],[[0.50259984]],JS
333,[[6]],[[334]],[[6]],['low holistic'],['fovea'],['inverted'],['U0106.bmp'],['male'],[],['male'],[[1]],[[0.13755842]],JS
334,[[6]],[[335]],[[1]],['high holistic'],['left'],['inverted'],['U0006.bmp'],['female'],[],['female'],[[1]],[[0.0001897]],JS
335,[[6]],[[336]],[[3]],['low holistic'],['left'],['inverted'],['U0020.bmp'],['female'],[],['female'],[[1]],[[9.8786084e-05]],JS
336,[[6]],[[337]],[[15]],['high holistic'],['left'],['upright'],['U0312.bmp'],['male'],[],['female'],[[0]],[[1.43692939]],JS
337,[[6]],[[338]],[[11]],['low holistic'],['right'],['upright'],['U0164.bmp'],['female'],[],['female'],[[1]],[[0.00019406]],JS
338,[[6]],[[339]],[[16]],['high holistic'],['left'],['inverted'],['U0335.bmp'],['female'],[],['female'],[[1]],[[0.00420163]],JS
339,[[6]],[[340]],[[5]],['high holistic'],['right'],['upright'],['U0076.bmp'],['female'],[],['female'],[[1]],[[0.18732405]],JS
340,[[6]],[[341]],[[3]],['low holistic'],['right'],['upright'],['U0020.bmp'],['female'],[],['female'],[[1]],[[0.00013771]],JS
341,[[6]],[[342]],[[10]],['low holistic'],['right'],['upright'],['U0159.bmp'],['female'],[],['female'],[[1]],[[0.12325189]],JS
342,[[6]],[[343]],[[8]],['low holistic'],['right'],['inverted'],['U0137.bmp'],['male'],[],['male'],[[1]],[[0.23153069]],JS
343,[[6]],[[344]],[[5]],['high holistic'],['right'],['upright'],['U0076.bmp'],['female'],[],['female'],[[1]],[[0.00041303]],JS
344,[[6]],[[345]],[[20]],['high holistic'],['fovea'],['upright'],['U0362.bmp'],['female'],[],['female'],[[1]],[[0.01420284]],JS
345,[[6]],[[346]],[[4]],['high holistic'],['right'],['upright'],['U0061.bmp'],['female'],[],['female'],[[1]],[[0.00018437]],JS
346,[[6]],[[347]],[[9]],['low holistic'],['right'],['upright'],['U0155.bmp'],['male'],[],['female'],[[0]],[[9.9245226e-05]],JS
347,[[6]],[[348]],[[12]],['high holistic'],['left'],['inverted'],['U0178.bmp'],['male'],[],['female'],[[0]],[[9.72000416e-05]],JS
348,[[6]],[[349]],[[19]],['low holistic'],['right'],['upright'],['U0361.bmp'],['female'],[],['female'],[[1]],[[0.20469214]],JS
349,[[6]],[[350]],[[10]],['low holistic'],['left'],['inverted'],['U0159.bmp'],['female'],[],['female'],[[1]],[[0.09256406]],JS
350,[[6]],[[351]],[[20]],['high holistic'],['right'],['upright'],['U0362.bmp'],['female'],[],['female'],[[1]],[[1.66267277]],JS
351,[[6]],[[352]],[[4]],['low holistic'],['left'],['upright'],['U0061.bmp'],['female'],[],['male'],[[0]],[[0.78164543]],JS
352,[[6]],[[353]],[[3]],['low holistic'],['left'],['upright'],['U0020.bmp'],['female'],[],['female'],[[1]],[[9.72410198e-05]],JS
353,[[6]],[[354]],[[8]],['high holistic'],['fovea'],['upright'],['U0137.bmp'],['female'],[],['female'],[[1]],[[0.67199905]],JS
354,[[6]],[[355]],[[9]],['low holistic'],['right'],['inverted'],['U0155.bmp'],['male'],[],['female'],[[0]],[[0.00012885]],JS
355,[[6]],[[356]],[[15]],['low holistic'],['right'],['upright'],['U0312.bmp'],['male'],[],['male'],[[1]],[[0.2600544]],JS
356,[[6]],[[357]],[[15]],['low holistic'],['right'],['inverted'],['U0312.bmp'],['male'],[],['male'],[[1]],[[9.79420729e-05]],JS
357,[[6]],[[358]],[[17]],['low holistic'],['right'],['inverted'],['U0346.bmp'],['female'],[],['male'],[[0]],[[0.00010782]],JS
358,[[6]],[[359]],[[1]],['low holistic'],['fovea'],['inverted'],['U0006.bmp'],['female'],[],['female'],[[1]],[[9.78328753e-05]],JS
359,[[6]],[[360]],[[19]],['high holistic'],['right'],['upright'],['U0361.bmp'],['female'],[],['male'],[[0]],[[9.7605167e-05]],JS
360,[[6]],[[361]],[[18]],['high holistic'],['left'],['inverted'],['U0359.bmp'],['male'],[],['female'],[[0]],[[0.03327257]],JS
361,[[6]],[[362]],[[5]],['high holistic'],['right'],['inverted'],['U0076.bmp'],['female'],[],['female'],[[1]],[[0.0238959]],JS
362,[[6]],[[363]],[[20]],['high holistic'],['left'],['inverted'],['U0362.bmp'],['female'],[],['female'],[[1]],[[9.92470887e-05]],JS
363,[[6]],[[364]],[[19]],['low holistic'],['left'],['upright'],['U0361.bmp'],['female'],[],['female'],[[1]],[[9.83129721e-05]],JS
364,[[6]],[[365]],[[3]],['high holistic'],['left'],['upright'],['U0020.bmp'],['male'],[],['female'],[[0]],[[0.00010499]],JS
365,[[6]],[[366]],[[9]],['low holistic'],['left'],['upright'],['U0155.bmp'],['male'],[],['female'],[[0]],[[0.05404172]],JS
366,[[6]],[[367]],[[15]],['low holistic'],['left'],['inverted'],['U0312.bmp'],['male'],[],['male'],[[1]],[[0.22769927]],JS
367,[[6]],[[368]],[[19]],['low holistic'],['right'],['inverted'],['U0361.bmp'],['female'],[],['female'],[[1]],[[0.12255745]],JS
368,[[6]],[[369]],[[7]],['low holistic'],['left'],['upright'],['U0107.bmp'],['female'],[],['female'],[[1]],[[0.00016753]],JS
369,[[6]],[[370]],[[3]],['low holistic'],['right'],['upright'],['U0020.bmp'],['female'],[],['female'],[[1]],[[9.83430073e-05]],JS
370,[[6]],[[371]],[[17]],['high holistic'],['right'],['upright'],['U0346.bmp'],['male'],[],['male'],[[1]],[[0.0001118]],JS
371,[[6]],[[372]],[[5]],['high holistic'],['right'],['upright'],['U0076.bmp'],['female'],[],['female'],[[1]],[[0.01340373]],JS
372,[[6]],[[373]],[[9]],['low holistic'],['right'],['upright'],['U0155.bmp'],['male'],[],['female'],[[0]],[[0.00010456]],JS
373,[[6]],[[374]],[[14]],['low holistic'],['right'],['inverted'],['U0228.bmp'],['male'],[],['male'],[[1]],[[0.00026151]],JS
374,[[6]],[[375]],[[3]],['high holistic'],['left'],['upright'],['U0020.bmp'],['male'],[],['male'],[[1]],[[0.00010507]],JS
375,[[6]],[[376]],[[12]],['high holistic'],['left'],['upright'],['U0178.bmp'],['male'],[],['female'],[[0]],[[1.40573414]],JS
376,[[6]],[[377]],[[3]],['low holistic'],['right'],['inverted'],['U0020.bmp'],['female'],[],['male'],[[0]],[[0.00029298]],JS
377,[[6]],[[378]],[[19]],['high holistic'],['right'],['upright'],['U0361.bmp'],['female'],[],['male'],[[0]],[[0.30178955]],JS
378,[[6]],[[379]],[[14]],['low holistic'],['right'],['inverted'],['U0228.bmp'],['male'],[],['male'],[[1]],[[0.22566472]],JS
379,[[6]],[[380]],[[4]],['low holistic'],['right'],['upright'],['U0061.bmp'],['female'],[],['female'],[[1]],[[0.00014073]],JS
380,[[6]],[[381]],[[3]],['low holistic'],['right'],['upright'],['U0020.bmp'],['female'],[],['female'],[[1]],[[0.07182511]],JS
381,[[6]],[[382]],[[13]],['high holistic'],['left'],['upright'],['U0181.bmp'],['female'],[],['male'],[[0]],[[0.04578088]],JS
382,[[6]],[[383]],[[13]],['low holistic'],['fovea'],['upright'],['U0181.bmp'],['male'],[],['female'],[[0]],[[9.8867109e-05]],JS
383,[[6]],[[384]],[[20]],['low holistic'],['right'],['upright'],['U0362.bmp'],['male'],[],['male'],[[1]],[[9.83318314e-05]],JS
384,[[6]],[[385]],[[8]],['high holistic'],['right'],['inverted'],['U0137.bmp'],['female'],[],['female'],[[1]],[[0.19625628]],JS
385,[[6]],[[386]],[[3]],['high holistic'],['right'],['upright'],['U0020.bmp'],['male'],[],['male'],[[1]],[[0.02742461]],JS
386,[[6]],[[387]],[[2]],['low holistic'],['right'],['inverted'],['U0014.bmp'],['male'],[],['male'],[[1]],[[0.15408559]],JS
387,[[6]],[[388]],[[17]],['high holistic'],['right'],['inverted'],['U0346.bmp'],['male'],[],['female'],[[0]],[[0.10041936]],JS
388,[[6]],[[389]],[[1]],['low holistic'],['right'],['inverted'],['U0006.bmp'],['female'],[],['male'],[[0]],[[0.15912951]],JS
389,[[6]],[[390]],[[19]],['high holistic'],['right'],['inverted'],['U0361.bmp'],['female'],[],['male'],[[0]],[[1.3052985]],JS
390,[[6]],[[391]],[[13]],['high holistic'],['right'],['inverted'],['U0181.bmp'],['female'],[],['female'],[[1]],[[1.67178497]],JS
391,[[6]],[[392]],[[3]],['low holistic'],['right'],['inverted'],['U0020.bmp'],['female'],[],['female'],[[1]],[[9.82880592e-05]],JS
392,[[6]],[[393]],[[15]],['low holistic'],['left'],['upright'],['U0312.bmp'],['male'],[],['male'],[[1]],[[0.00015889]],JS
393,[[6]],[[394]],[[8]],['low holistic'],['left'],['inverted'],['U0137.bmp'],['male'],[],['female'],[[0]],[[0.13429637]],JS
394,[[6]],[[395]],[[7]],['low holistic'],['left'],['inverted'],['U0107.bmp'],['female'],[],['female'],[[1]],[[0.00010511]],JS
395,[[6]],[[396]],[[6]],['high holistic'],['right'],['upright'],['U0106.bmp'],['female'],[],['female'],[[1]],[[0.00045302]],JS
396,[[6]],[[397]],[[14]],['low holistic'],['left'],['inverted'],['U0228.bmp'],['male'],[],['female'],[[0]],[[9.89979599e-05]],JS
397,[[6]],[[398]],[[18]],['high holistic'],['fovea'],['inverted'],['U0359.bmp'],['male'],[],['female'],[[0]],[[0.00011617]],JS
398,[[6]],[[399]],[[19]],['low holistic'],['left'],['inverted'],['U0361.bmp'],['female'],[],['female'],[[1]],[[0.00010602]],JS
399,[[6]],[[400]],[[15]],['low holistic'],['right'],['inverted'],['U0312.bmp'],['male'],[],['male'],[[1]],[[9.96871386e-05]],JS
400,[[6]],[[401]],[[15]],['high holistic'],['right'],['upright'],['U0312.bmp'],['male'],[],['male'],[[1]],[[0.00010596]],JS
401,[[6]],[[402]],[[14]],['high holistic'],['right'],['inverted'],['U0228.bmp'],['male'],[],['female'],[[0]],[[9.9001918e-05]],JS
402,[[6]],[[403]],[[20]],['high holistic'],['left'],['upright'],['U0362.bmp'],['female'],[],['female'],[[1]],[[0.17430988]],JS
403,[[6]],[[404]],[[1]],['low holistic'],['right'],['inverted'],['U0006.bmp'],['female'],[],['male'],[[0]],[[0.00736271]],JS
404,[[6]],[[405]],[[15]],['high holistic'],['left'],['upright'],['U0312.bmp'],['male'],[],['male'],[[1]],[[0.6145572]],JS
405,[[6]],[[406]],[[3]],['low holistic'],['right'],['upright'],['U0020.bmp'],['female'],[],['female'],[[1]],[[0.10935355]],JS
406,[[6]],[[407]],[[9]],['high holistic'],['right'],['upright'],['U0155.bmp'],['female'],[],['female'],[[1]],[[0.00010016]],JS
407,[[6]],[[408]],[[17]],['high holistic'],['right'],['upright'],['U0346.bmp'],['male'],[],['female'],[[0]],[[9.74819995e-05]],JS
408,[[6]],[[409]],[[3]],['low holistic'],['right'],['upright'],['U0020.bmp'],['female'],[],['female'],[[1]],[[0.00015819]],JS
409,[[6]],[[410]],[[12]],['low holistic'],['right'],['inverted'],['U0178.bmp'],['female'],[],['female'],[[1]],[[9.946106e-05]],JS
410,[[6]],[[411]],[[9]],['low holistic'],['left'],['upright'],['U0155.bmp'],['male'],[],['male'],[[1]],[[0.305109]],JS
411,[[6]],[[412]],[[11]],['high holistic'],['right'],['inverted'],['U0164.bmp'],['female'],[],['female'],[[1]],[[0.09271351]],JS
412,[[6]],[[413]],[[9]],['low holistic'],['right'],['inverted'],['U0155.bmp'],['male'],[],['male'],[[1]],[[0.12241989]],JS
413,[[6]],[[414]],[[11]],['low holistic'],['left'],['inverted'],['U0164.bmp'],['female'],[],['female'],[[1]],[[0.4051124]],JS
414,[[6]],[[415]],[[10]],['high holistic'],['right'],['inverted'],['U0159.bmp'],['male'],[],['male'],[[1]],[[0.02002195]],JS
415,[[6]],[[416]],[[15]],['high holistic'],['left'],['upright'],['U0312.bmp'],['male'],[],['male'],[[1]],[[0.26028136]],JS
416,[[6]],[[417]],[[14]],['low holistic'],['left'],['upright'],['U0228.bmp'],['male'],[],['male'],[[1]],[[0.00010588]],JS
417,[[6]],[[418]],[[18]],['high holistic'],['right'],['upright'],['U0359.bmp'],['male'],[],['male'],[[1]],[[0.02415378]],JS
418,[[6]],[[419]],[[7]],['low holistic'],['right'],['inverted'],['U0107.bmp'],['female'],[],['male'],[[0]],[[0.00010504]],JS
419,[[6]],[[420]],[[6]],['high holistic'],['right'],['upright'],['U0106.bmp'],['female'],[],['female'],[[1]],[[0.14471096]],JS
420,[[6]],[[421]],[[18]],['low holistic'],['left'],['inverted'],['U0359.bmp'],['male'],[],['male'],[[1]],[[0.21018138]],JS
421,[[6]],[[422]],[[17]],['low holistic'],['right'],['upright'],['U0346.bmp'],['female'],[],['male'],[[0]],[[0.00010628]],JS
422,[[6]],[[423]],[[19]],['high holistic'],['fovea'],['inverted'],['U0361.bmp'],['female'],[],['male'],[[0]],[[0.03311087]],JS
423,[[6]],[[424]],[[14]],['high holistic'],['right'],['inverted'],['U0228.bmp'],['male'],[],['female'],[[0]],[[0.0802453]],JS
424,[[6]],[[425]],[[1]],['high holistic'],['right'],['inverted'],['U0006.bmp'],['female'],[],['female'],[[1]],[[0.33950315]],JS
425,[[6]],[[426]],[[7]],['high holistic'],['right'],['inverted'],['U0107.bmp'],['female'],[],['female'],[[1]],[[0.20682091]],JS
426,[[6]],[[427]],[[12]],['high holistic'],['right'],['inverted'],['U0178.bmp'],['male'],[],['female'],[[0]],[[0.12721897]],JS
427,[[6]],[[428]],[[12]],['low holistic'],['left'],['inverted'],['U0178.bmp'],['female'],[],['female'],[[1]],[[0.19434119]],JS
428,[[6]],[[429]],[[12]],['high holistic'],['left'],['upright'],['U0178.bmp'],['male'],[],['male'],[[1]],[[0.04208793]],JS
429,[[6]],[[430]],[[13]],['low holistic'],['right'],['inverted'],['U0181.bmp'],['male'],[],['female'],[[0]],[[0.07122131]],JS
430,[[6]],[[431]],[[8]],['high holistic'],['right'],['inverted'],['U0137.bmp'],['female'],[],['female'],[[1]],[[0.0854846]],JS
431,[[6]],[[432]],[[19]],['high holistic'],['right'],['inverted'],['U0361.bmp'],['female'],[],['male'],[[0]],[[1.64130709]],JS
432,[[6]],[[433]],[[20]],['low holistic'],['left'],['upright'],['U0362.bmp'],['male'],[],['female'],[[0]],[[0.00794016]],JS
433,[[6]],[[434]],[[8]],['high holistic'],['right'],['inverted'],['U0137.bmp'],['female'],[],['male'],[[0]],[[0.0001455]],JS
434,[[6]],[[435]],[[11]],['low holistic'],['left'],['upright'],['U0164.bmp'],['female'],[],['female'],[[1]],[[0.00021605]],JS
435,[[6]],[[436]],[[10]],['low holistic'],['left'],['upright'],['U0159.bmp'],['female'],[],['female'],[[1]],[[9.87299718e-05]],JS
436,[[6]],[[437]],[[15]],['low holistic'],['left'],['upright'],['U0312.bmp'],['male'],[],['male'],[[1]],[[0.63920948]],JS
437,[[6]],[[438]],[[8]],['low holistic'],['right'],['inverted'],['U0137.bmp'],['male'],[],['female'],[[0]],[[0.00036447]],JS
438,[[6]],[[439]],[[10]],['low holistic'],['left'],['upright'],['U0159.bmp'],['female'],[],['female'],[[1]],[[0.35673569]],JS
439,[[6]],[[440]],[[14]],['low holistic'],['right'],['upright'],['U0228.bmp'],['male'],[],['male'],[[1]],[[0.01560882]],JS
440,[[6]],[[441]],[[11]],['low holistic'],['left'],['upright'],['U0164.bmp'],['female'],[],['female'],[[1]],[[0.04669586]],JS
441,[[6]],[[442]],[[18]],['low holistic'],['left'],['upright'],['U0359.bmp'],['male'],[],['female'],[[0]],[[0.00010818]],JS
442,[[6]],[[443]],[[6]],['low holistic'],['left'],['upright'],['U0106.bmp'],['male'],[],['male'],[[1]],[[0.39782244]],JS
443,[[6]],[[444]],[[2]],['low holistic'],['right'],['upright'],['U0014.bmp'],['male'],[],['male'],[[1]],[[0.13247266]],JS
444,[[6]],[[445]],[[19]],['high holistic'],['left'],['inverted'],['U0361.bmp'],['female'],[],['male'],[[0]],[[0.11808838]],JS
445,[[6]],[[446]],[[20]],['high holistic'],['left'],['upright'],['U0362.bmp'],['female'],[],['female'],[[1]],[[0.0339868]],JS
446,[[6]],[[447]],[[16]],['high holistic'],['right'],['inverted'],['U0335.bmp'],['female'],[],['male'],[[0]],[[9.75991134e-05]],JS
447,[[6]],[[448]],[[6]],['high holistic'],['left'],['inverted'],['U0106.bmp'],['female'],[],['female'],[[1]],[[9.76079609e-05]],JS
448,[[6]],[[449]],[[9]],['low holistic'],['left'],['upright'],['U0155.bmp'],['male'],[],['male'],[[1]],[[0.38385058]],JS
449,[[6]],[[450]],[[10]],['high holistic'],['right'],['inverted'],['U0159.bmp'],['male'],[],['female'],[[0]],[[0.10593093]],JS
450,[[6]],[[451]],[[14]],['low holistic'],['left'],['upright'],['U0228.bmp'],['male'],[],['male'],[[1]],[[9.7590033e-05]],JS
451,[[6]],[[452]],[[11]],['high holistic'],['left'],['inverted'],['U0164.bmp'],['female'],[],['male'],[[0]],[[0.01175633]],JS
452,[[6]],[[453]],[[9]],['low holistic'],['left'],['upright'],['U0155.bmp'],['male'],[],['male'],[[1]],[[0.09883527]],JS
453,[[6]],[[454]],[[7]],['high holistic'],['right'],['upright'],['U0107.bmp'],['female'],[],['male'],[[0]],[[0.07871099]],JS
454,[[6]],[[455]],[[16]],['low holistic'],['left'],['upright'],['U0335.bmp'],['female'],[],['female'],[[1]],[[0.70810602]],JS
455,[[6]],[[456]],[[19]],['high holistic'],['left'],['upright'],['U0361.bmp'],['female'],[],['female'],[[1]],[[0.10407507]],JS
456,[[6]],[[457]],[[10]],['low holistic'],['left'],['inverted'],['U0159.bmp'],['female'],[],['female'],[[1]],[[9.77690797e-05]],JS
457,[[6]],[[458]],[[6]],['high holistic'],['right'],['inverted'],['U0106.bmp'],['female'],[],['female'],[[1]],[[0.41171154]],JS
458,[[6]],[[459]],[[17]],['high holistic'],['right'],['upright'],['U0346.bmp'],['male'],[],['male'],[[1]],[[0.46775281]],JS
459,[[6]],[[460]],[[11]],['high holistic'],['left'],['upright'],['U0164.bmp'],['female'],[],['female'],[[1]],[[0.12880785]],JS
460,[[6]],[[461]],[[16]],['low holistic'],['left'],['upright'],['U0335.bmp'],['female'],[],['female'],[[1]],[[0.06781167]],JS
461,[[6]],[[462]],[[8]],['high holistic'],['right'],['upright'],['U0137.bmp'],['female'],[],['male'],[[0]],[[0.08143637]],JS
462,[[6]],[[463]],[[15]],['low holistic'],['fovea'],['upright'],['U0312.bmp'],['male'],[],['male'],[[1]],[[1.65226324]],JS
463,[[6]],[[464]],[[8]],['high holistic'],['left'],['inverted'],['U0137.bmp'],['female'],[],['female'],[[1]],[[0.19627671]],JS
464,[[6]],[[465]],[[15]],['high holistic'],['left'],['upright'],['U0312.bmp'],['male'],[],['female'],[[0]],[[0.00010509]],JS
465,[[6]],[[466]],[[1]],['high holistic'],['right'],['upright'],['U0006.bmp'],['female'],[],['female'],[[1]],[[0.08338405]],JS
466,[[6]],[[467]],[[3]],['low holistic'],['left'],['upright'],['U0020.bmp'],['female'],[],['female'],[[1]],[[0.0150115]],JS
467,[[6]],[[468]],[[14]],['high holistic'],['right'],['inverted'],['U0228.bmp'],['male'],[],['male'],[[1]],[[0.00012622]],JS
468,[[6]],[[469]],[[3]],['low holistic'],['right'],['upright'],['U0020.bmp'],['female'],[],['female'],[[1]],[[0.00021334]],JS
469,[[6]],[[470]],[[17]],['high holistic'],['right'],['inverted'],['U0346.bmp'],['male'],[],['female'],[[0]],[[0.04869246]],JS
470,[[6]],[[471]],[[13]],['low holistic'],['left'],['upright'],['U0181.bmp'],['male'],[],['male'],[[1]],[[0.67097287]],JS
471,[[6]],[[472]],[[6]],['low holistic'],['right'],['inverted'],['U0106.bmp'],['male'],[],['male'],[[1]],[[0.25271089]],JS
472,[[6]],[[473]],[[18]],['high holistic'],['left'],['upright'],['U0359.bmp'],['male'],[],['male'],[[1]],[[0.31383187]],JS
473,[[6]],[[474]],[[9]],['high holistic'],['left'],['inverted'],['U0155.bmp'],['female'],[],['female'],[[1]],[[0.29270727]],JS
474,[[6]],[[475]],[[6]],['high holistic'],['left'],['upright'],['U0106.bmp'],['female'],[],['female'],[[1]],[[0.00010501]],JS
475,[[6]],[[476]],[[4]],['low holistic'],['right'],['upright'],['U0061.bmp'],['female'],[],['female'],[[1]],[[0.04943681]],JS
476,[[6]],[[477]],[[19]],['high holistic'],['fovea'],['inverted'],['U0361.bmp'],['female'],[],['male'],[[0]],[[0.00729564]],JS
477,[[6]],[[478]],[[15]],['high holistic'],['fovea'],['inverted'],['U0312.bmp'],['male'],[],['female'],[[0]],[[0.06247525]],JS
478,[[6]],[[479]],[[4]],['high holistic'],['left'],['upright'],['U0061.bmp'],['female'],[],['female'],[[1]],[[0.13293849]],JS
479,[[6]],[[480]],[[6]],['high holistic'],['left'],['inverted'],['U0106.bmp'],['female'],[],['female'],[[1]],[[0.24763972]],JS
480,[[6]],[[481]],[[8]],['high holistic'],['fovea'],['upright'],['U0137.bmp'],['female'],[],['female'],[[1]],[[0.08526452]],JS
481,[[6]],[[482]],[[18]],['low holistic'],['right'],['inverted'],['U0359.bmp'],['male'],[],['male'],[[1]],[[0.0405101]],JS
482,[[6]],[[483]],[[15]],['low holistic'],['left'],['upright'],['U0312.bmp'],['male'],[],['female'],[[0]],[[0.00010387]],JS
483,[[6]],[[484]],[[1]],['high holistic'],['left'],['upright'],['U0006.bmp'],['female'],[],['female'],[[1]],[[0.04708257]],JS
484,[[6]],[[485]],[[5]],['high holistic'],['right'],['upright'],['U0076.bmp'],['female'],[],['female'],[[1]],[[0.1720283]],JS
485,[[6]],[[486]],[[8]],['low holistic'],['right'],['upright'],['U0137.bmp'],['male'],[],['male'],[[1]],[[0.12531341]],JS
486,[[6]],[[487]],[[19]],['high holistic'],['left'],['inverted'],['U0361.bmp'],['female'],[],['male'],[[0]],[[0.10601358]],JS
487,[[6]],[[488]],[[3]],['low holistic'],['right'],['inverted'],['U0020.bmp'],['female'],[],['female'],[[1]],[[0.16515443]],JS
488,[[6]],[[489]],[[12]],['high holistic'],['left'],['inverted'],['U0178.bmp'],['male'],[],['male'],[[1]],[[0.52538954]],JS
489,[[6]],[[490]],[[14]],['low holistic'],['right'],['upright'],['U0228.bmp'],['male'],[],['male'],[[1]],[[0.00023725]],JS
490,[[6]],[[491]],[[4]],['high holistic'],['right'],['inverted'],['U0061.bmp'],['female'],[],['female'],[[1]],[[0.74482655]],JS
491,[[6]],[[492]],[[6]],['low holistic'],['left'],['inverted'],['U0106.bmp'],['male'],[],['female'],[[0]],[[0.21914187]],JS
492,[[6]],[[493]],[[7]],['low holistic'],['left'],['upright'],['U0107.bmp'],['female'],[],['female'],[[1]],[[0.07419692]],JS
493,[[6]],[[494]],[[14]],['low holistic'],['right'],['upright'],['U0228.bmp'],['male'],[],['male'],[[1]],[[9.75229777e-05]],JS
494,[[6]],[[495]],[[17]],['high holistic'],['left'],['inverted'],['U0346.bmp'],['male'],[],['female'],[[0]],[[0.03806371]],JS
495,[[6]],[[496]],[[17]],['high holistic'],['left'],['inverted'],['U0346.bmp'],['male'],[],['male'],[[1]],[[0.00010608]],JS
496,[[6]],[[497]],[[4]],['high holistic'],['fovea'],['upright'],['U0061.bmp'],['female'],[],['male'],[[0]],[[0.00010479]],JS
497,[[6]],[[498]],[[9]],['low holistic'],['left'],['inverted'],['U0155.bmp'],['male'],[],['female'],[[0]],[[9.84091312e-05]],JS
498,[[6]],[[499]],[[13]],['high holistic'],['left'],['upright'],['U0181.bmp'],['female'],[],['female'],[[1]],[[0.06753917]],JS
499,[[6]],[[500]],[[3]],['high holistic'],['left'],['upright'],['U0020.bmp'],['male'],[],['female'],[[0]],[[0.05783559]],JS
500,[[6]],[[501]],[[13]],['low holistic'],['left'],['inverted'],['U0181.bmp'],['male'],[],['female'],[[0]],[[0.04723202]],JS
501,[[6]],[[502]],[[1]],['low holistic'],['left'],['inverted'],['U0006.bmp'],['female'],[],['female'],[[1]],[[1.29216461]],JS
502,[[6]],[[503]],[[7]],['high holistic'],['right'],['upright'],['U0107.bmp'],['female'],[],['female'],[[1]],[[0.12107802]],JS
503,[[6]],[[504]],[[10]],['high holistic'],['left'],['upright'],['U0159.bmp'],['male'],[],['female'],[[0]],[[0.08464132]],JS
504,[[6]],[[505]],[[17]],['high holistic'],['fovea'],['inverted'],['U0346.bmp'],['male'],[],['male'],[[1]],[[1.39185935]],JS
505,[[6]],[[506]],[[20]],['low holistic'],['left'],['inverted'],['U0362.bmp'],['male'],[],['female'],[[0]],[[0.87323525]],JS
506,[[6]],[[507]],[[17]],['high holistic'],['left'],['upright'],['U0346.bmp'],['male'],[],['male'],[[1]],[[0.07033329]],JS
507,[[6]],[[508]],[[1]],['low holistic'],['right'],['upright'],['U0006.bmp'],['female'],[],['female'],[[1]],[[0.00010617]],JS
508,[[6]],[[509]],[[15]],['low holistic'],['right'],['inverted'],['U0312.bmp'],['male'],[],['male'],[[1]],[[0.00010577]],JS
509,[[6]],[[510]],[[6]],['high holistic'],['left'],['upright'],['U0106.bmp'],['female'],[],['female'],[[1]],[[0.00015874]],JS
510,[[6]],[[511]],[[16]],['high holistic'],['right'],['upright'],['U0335.bmp'],['female'],[],['male'],[[0]],[[0.36030071]],JS
511,[[6]],[[512]],[[16]],['low holistic'],['left'],['upright'],['U0335.bmp'],['female'],[],['female'],[[1]],[[0.05158148]],JS
512,[[6]],[[513]],[[5]],['high holistic'],['right'],['inverted'],['U0076.bmp'],['female'],[],['female'],[[1]],[[0.17574598]],JS
513,[[6]],[[514]],[[15]],['high holistic'],['right'],['upright'],['U0312.bmp'],['male'],[],['male'],[[1]],[[0.01678486]],JS
514,[[6]],[[515]],[[10]],['high holistic'],['right'],['upright'],['U0159.bmp'],['male'],[],['female'],[[0]],[[0.28034225]],JS
515,[[6]],[[516]],[[4]],['low holistic'],['left'],['inverted'],['U0061.bmp'],['female'],[],['male'],[[0]],[[0.00335803]],JS
516,[[6]],[[517]],[[10]],['low holistic'],['right'],['upright'],['U0159.bmp'],['female'],[],['female'],[[1]],[[0.26059813]],JS
517,[[6]],[[518]],[[7]],['high holistic'],['right'],['upright'],['U0107.bmp'],['female'],[],['female'],[[1]],[[0.00041137]],JS
518,[[6]],[[519]],[[12]],['high holistic'],['left'],['inverted'],['U0178.bmp'],['male'],[],['female'],[[0]],[[0.0002555]],JS
519,[[6]],[[520]],[[1]],['low holistic'],['left'],['inverted'],['U0006.bmp'],['female'],[],['female'],[[1]],[[0.00010045]],JS
520,[[6]],[[521]],[[12]],['low holistic'],['left'],['inverted'],['U0178.bmp'],['female'],[],['female'],[[1]],[[0.16277584]],JS
521,[[6]],[[522]],[[3]],['high holistic'],['right'],['upright'],['U0020.bmp'],['male'],[],['male'],[[1]],[[0.00027954]],JS
522,[[6]],[[523]],[[13]],['low holistic'],['left'],['inverted'],['U0181.bmp'],['male'],[],['female'],[[0]],[[1.25039732]],JS
523,[[6]],[[524]],[[17]],['low holistic'],['left'],['inverted'],['U0346.bmp'],['female'],[],['female'],[[1]],[[0.00023442]],JS
524,[[6]],[[525]],[[10]],['high holistic'],['left'],['upright'],['U0159.bmp'],['male'],[],['female'],[[0]],[[9.74510331e-05]],JS
525,[[6]],[[526]],[[8]],['low holistic'],['left'],['inverted'],['U0137.bmp'],['male'],[],['female'],[[0]],[[9.98519827e-05]],JS
526,[[6]],[[527]],[[15]],['low holistic'],['right'],['inverted'],['U0312.bmp'],['male'],[],['male'],[[1]],[[0.00044669]],JS
527,[[6]],[[528]],[[3]],['low holistic'],['right'],['upright'],['U0020.bmp'],['female'],[],['female'],[[1]],[[0.00011686]],JS
528,[[6]],[[529]],[[2]],['high holistic'],['right'],['inverted'],['U0014.bmp'],['male'],[],['male'],[[1]],[[0.20759296]],JS
529,[[6]],[[530]],[[10]],['low holistic'],['right'],['inverted'],['U0159.bmp'],['female'],[],['male'],[[0]],[[0.07972797]],JS
530,[[6]],[[531]],[[1]],['high holistic'],['left'],['inverted'],['U0006.bmp'],['female'],[],['female'],[[1]],[[0.32229308]],JS
531,[[6]],[[532]],[[3]],['low holistic'],['left'],['inverted'],['U0020.bmp'],['female'],[],['female'],[[1]],[[0.06977188]],JS
532,[[6]],[[533]],[[7]],['low holistic'],['right'],['upright'],['U0107.bmp'],['female'],[],['female'],[[1]],[[0.12287789]],JS
533,[[6]],[[534]],[[10]],['high holistic'],['right'],['upright'],['U0159.bmp'],['male'],[],['male'],[[1]],[[0.20533252]],JS
534,[[6]],[[535]],[[6]],['low holistic'],['right'],['upright'],['U0106.bmp'],['male'],[],['male'],[[1]],[[0.00038913]],JS
535,[[6]],[[536]],[[6]],['high holistic'],['right'],['inverted'],['U0106.bmp'],['female'],[],['male'],[[0]],[[1.31818528]],JS
536,[[6]],[[537]],[[9]],['high holistic'],['left'],['inverted'],['U0155.bmp'],['female'],[],['male'],[[0]],[[0.00015318]],JS
537,[[6]],[[538]],[[9]],['low holistic'],['right'],['upright'],['U0155.bmp'],['male'],[],['female'],[[0]],[[9.9824043e-05]],JS
538,[[6]],[[539]],[[13]],['low holistic'],['left'],['inverted'],['U0181.bmp'],['male'],[],['female'],[[0]],[[0.1035385]],JS
539,[[6]],[[540]],[[9]],['high holistic'],['right'],['inverted'],['U0155.bmp'],['female'],[],['male'],[[0]],[[0.57082864]],JS
540,[[6]],[[541]],[[16]],['low holistic'],['right'],['upright'],['U0335.bmp'],['female'],[],['female'],[[1]],[[0.1353084]],JS
541,[[6]],[[542]],[[9]],['low holistic'],['fovea'],['upright'],['U0155.bmp'],['male'],[],['male'],[[1]],[[0.08914276]],JS
542,[[6]],[[543]],[[19]],['high holistic'],['left'],['inverted'],['U0361.bmp'],['female'],[],['male'],[[0]],[[0.27617814]],JS
543,[[6]],[[544]],[[20]],['high holistic'],['right'],['inverted'],['U0362.bmp'],['female'],[],['male'],[[0]],[[0.17090129]],JS
544,[[6]],[[545]],[[12]],['low holistic'],['right'],['upright'],['U0178.bmp'],['female'],[],['male'],[[0]],[[0.11489937]],JS
545,[[6]],[[546]],[[20]],['low holistic'],['left'],['inverted'],['U0362.bmp'],['male'],[],['female'],[[0]],[[0.07055075]],JS
546,[[6]],[[547]],[[18]],['high holistic'],['right'],['upright'],['U0359.bmp'],['male'],[],['male'],[[1]],[[9.91260167e-05]],JS
547,[[6]],[[548]],[[19]],['high holistic'],['right'],['inverted'],['U0361.bmp'],['female'],[],['male'],[[0]],[[9.91020352e-05]],JS
548,[[6]],[[549]],[[8]],['high holistic'],['left'],['inverted'],['U0137.bmp'],['female'],[],['female'],[[1]],[[0.15372051]],JS
549,[[6]],[[550]],[[1]],['high holistic'],['left'],['upright'],['U0006.bmp'],['female'],[],['female'],[[1]],[[0.0819594]],JS
550,[[6]],[[551]],[[20]],['low holistic'],['right'],['upright'],['U0362.bmp'],['male'],[],['male'],[[1]],[[0.0636021]],JS
551,[[6]],[[552]],[[13]],['low holistic'],['right'],['inverted'],['U0181.bmp'],['male'],[],['female'],[[0]],[[9.74081922e-05]],JS
552,[[6]],[[553]],[[2]],['high holistic'],['left'],['inverted'],['U0014.bmp'],['male'],[],['female'],[[0]],[[0.08414515]],JS
553,[[6]],[[554]],[[9]],['high holistic'],['right'],['upright'],['U0155.bmp'],['female'],[],['male'],[[0]],[[0.2724753]],JS
554,[[6]],[[555]],[[1]],['high holistic'],['right'],['inverted'],['U0006.bmp'],['female'],[],['female'],[[1]],[[0.22010043]],JS
555,[[6]],[[556]],[[10]],['low holistic'],['right'],['upright'],['U0159.bmp'],['female'],[],['female'],[[1]],[[0.01114207]],JS
556,[[6]],[[557]],[[11]],['low holistic'],['left'],['inverted'],['U0164.bmp'],['female'],[],['female'],[[1]],[[0.25785379]],JS
557,[[6]],[[558]],[[9]],['high holistic'],['left'],['upright'],['U0155.bmp'],['female'],[],['female'],[[1]],[[0.00010587]],JS
558,[[6]],[[559]],[[7]],['low holistic'],['left'],['inverted'],['U0107.bmp'],['female'],[],['female'],[[1]],[[9.81928315e-05]],JS
559,[[6]],[[560]],[[4]],['low holistic'],['right'],['upright'],['U0061.bmp'],['female'],[],['female'],[[1]],[[0.00010444]],JS
560,[[6]],[[561]],[[8]],['low holistic'],['right'],['inverted'],['U0137.bmp'],['male'],[],['female'],[[0]],[[9.96210147e-05]],JS
561,[[6]],[[562]],[[19]],['high holistic'],['left'],['inverted'],['U0361.bmp'],['female'],[],['male'],[[0]],[[0.24081581]],JS
562,[[6]],[[563]],[[17]],['high holistic'],['left'],['inverted'],['U0346.bmp'],['male'],[],['female'],[[0]],[[0.12500797]],JS
563,[[6]],[[564]],[[2]],['high holistic'],['left'],['inverted'],['U0014.bmp'],['male'],[],['female'],[[0]],[[0.08735292]],JS
564,[[6]],[[565]],[[19]],['high holistic'],['right'],['upright'],['U0361.bmp'],['female'],[],['female'],[[1]],[[0.10880201]],JS
565,[[6]],[[566]],[[15]],['low holistic'],['left'],['upright'],['U0312.bmp'],['male'],[],['female'],[[0]],[[9.87760723e-05]],JS
566,[[6]],[[567]],[[7]],['high holistic'],['right'],['upright'],['U0107.bmp'],['female'],[],['female'],[[1]],[[0.15070925]],JS
567,[[6]],[[568]],[[8]],['high holistic'],['left'],['inverted'],['U0137.bmp'],['female'],[],['female'],[[1]],[[0.74474941]],JS
568,[[6]],[[569]],[[13]],['high holistic'],['fovea'],['upright'],['U0181.bmp'],['female'],[],['female'],[[1]],[[0.12208711]],JS
569,[[6]],[[570]],[[5]],['high holistic'],['right'],['inverted'],['U0076.bmp'],['female'],[],['female'],[[1]],[[0.116891]],JS
570,[[6]],[[571]],[[3]],['high holistic'],['right'],['upright'],['U0020.bmp'],['male'],[],['female'],[[0]],[[0.23239232]],JS
571,[[6]],[[572]],[[14]],['low holistic'],['right'],['inverted'],['U0228.bmp'],['male'],[],['female'],[[0]],[[0.13405674]],JS
572,[[6]],[[573]],[[7]],['low holistic'],['left'],['inverted'],['U0107.bmp'],['female'],[],['female'],[[1]],[[0.03195703]],JS
573,[[6]],[[574]],[[4]],['high holistic'],['left'],['inverted'],['U0061.bmp'],['female'],[],['female'],[[1]],[[0.18208233]],JS
574,[[6]],[[575]],[[3]],['high holistic'],['right'],['upright'],['U0020.bmp'],['male'],[],['male'],[[1]],[[0.11090165]],JS
575,[[6]],[[576]],[[1]],['high holistic'],['left'],['upright'],['U0006.bmp'],['female'],[],['female'],[[1]],[[9.74189024e-05]],JS
576,[[6]],[[577]],[[8]],['high holistic'],['right'],['inverted'],['U0137.bmp'],['female'],[],['female'],[[1]],[[0.13908699]],JS
577,[[6]],[[578]],[[15]],['high holistic'],['right'],['inverted'],['U0312.bmp'],['male'],[],['male'],[[1]],[[0.46178772]],JS
578,[[6]],[[579]],[[3]],['low holistic'],['left'],['inverted'],['U0020.bmp'],['female'],[],['female'],[[1]],[[0.395588]],JS
579,[[6]],[[580]],[[18]],['high holistic'],['left'],['upright'],['U0359.bmp'],['male'],[],['male'],[[1]],[[0.25103837]],JS
580,[[6]],[[581]],[[17]],['low holistic'],['fovea'],['inverted'],['U0346.bmp'],['female'],[],['female'],[[1]],[[0.48788068]],JS
581,[[6]],[[582]],[[13]],['high holistic'],['right'],['inverted'],['U0181.bmp'],['female'],[],['female'],[[1]],[[0.13088233]],JS
582,[[6]],[[583]],[[13]],['low holistic'],['left'],['inverted'],['U0181.bmp'],['male'],[],['female'],[[0]],[[0.10128031]],JS
583,[[6]],[[584]],[[15]],['high holistic'],['right'],['inverted'],['U0312.bmp'],['male'],[],['female'],[[0]],[[9.88980755e-05]],JS
584,[[6]],[[585]],[[14]],['low holistic'],['right'],['inverted'],['U0228.bmp'],['male'],[],['female'],[[0]],[[0.304718]],JS
585,[[6]],[[586]],[[11]],['low holistic'],['fovea'],['inverted'],['U0164.bmp'],['female'],[],['female'],[[1]],[[0.15736357]],JS
586,[[6]],[[587]],[[9]],['low holistic'],['left'],['inverted'],['U0155.bmp'],['male'],[],['male'],[[1]],[[0.25436322]],JS
587,[[6]],[[588]],[[19]],['high holistic'],['left'],['inverted'],['U0361.bmp'],['female'],[],['male'],[[0]],[[0.1151932]],JS
588,[[6]],[[589]],[[19]],['high holistic'],['right'],['inverted'],['U0361.bmp'],['female'],[],['male'],[[0]],[[0.10333717]],JS
589,[[6]],[[590]],[[5]],['high holistic'],['right'],['inverted'],['U0076.bmp'],['female'],[],['male'],[[0]],[[0.1147468]],JS
590,[[6]],[[591]],[[16]],['low holistic'],['left'],['upright'],['U0335.bmp'],['female'],[],['female'],[[1]],[[0.00029899]],JS
591,[[6]],[[592]],[[4]],['low holistic'],['left'],['upright'],['U0061.bmp'],['female'],[],['female'],[[1]],[[0.00011262]],JS
592,[[6]],[[593]],[[6]],['low holistic'],['fovea'],['inverted'],['U0106.bmp'],['male'],[],['female'],[[0]],[[0.00010389]],JS
593,[[6]],[[594]],[[14]],['low holistic'],['right'],['upright'],['U0228.bmp'],['male'],[],['male'],[[1]],[[1.42044099]],JS
594,[[6]],[[595]],[[12]],['low holistic'],['left'],['upright'],['U0178.bmp'],['female'],[],['female'],[[1]],[[0.0001296]],JS
595,[[6]],[[596]],[[12]],['high holistic'],['fovea'],['upright'],['U0178.bmp'],['male'],[],['male'],[[1]],[[0.05950131]],JS
596,[[6]],[[597]],[[12]],['low holistic'],['right'],['inverted'],['U0178.bmp'],['female'],[],['female'],[[1]],[[0.05705086]],JS
597,[[6]],[[598]],[[16]],['low holistic'],['right'],['upright'],['U0335.bmp'],['female'],[],['female'],[[1]],[[0.0941626]],JS
598,[[6]],[[599]],[[20]],['low holistic'],['right'],['inverted'],['U0362.bmp'],['male'],[],['male'],[[1]],[[0.10493941]],JS
599,[[6]],[[600]],[[17]],['high holistic'],['right'],['inverted'],['U0346.bmp'],['male'],[],['female'],[[0]],[[0.70120677]],JS
600,[[6]],[[601]],[[2]],['low holistic'],['right'],['inverted'],['U0014.bmp'],['male'],[],['female'],[[0]],[[9.92370769e-05]],JS
601,[[6]],[[602]],[[14]],['high holistic'],['right'],['inverted'],['U0228.bmp'],['male'],[],['female'],[[0]],[[0.00011041]],JS
602,[[6]],[[603]],[[9]],['low holistic'],['left'],['upright'],['U0155.bmp'],['male'],[],['male'],[[1]],[[0.14382252]],JS
603,[[6]],[[604]],[[17]],['high holistic'],['fovea'],['upright'],['U0346.bmp'],['male'],[],['male'],[[1]],[[0.07433194]],JS
604,[[6]],[[605]],[[6]],['low holistic'],['left'],['inverted'],['U0106.bmp'],['male'],[],['female'],[[0]],[[0.04565633]],JS
605,[[6]],[[606]],[[11]],['high holistic'],['right'],['inverted'],['U0164.bmp'],['female'],[],['male'],[[0]],[[0.12426959]],JS
606,[[6]],[[607]],[[14]],['high holistic'],['left'],['upright'],['U0228.bmp'],['male'],[],['female'],[[0]],[[0.55092873]],JS
607,[[6]],[[608]],[[1]],['high holistic'],['right'],['inverted'],['U0006.bmp'],['female'],[],['female'],[[1]],[[0.17469391]],JS
608,[[6]],[[609]],[[17]],['low holistic'],['right'],['upright'],['U0346.bmp'],['female'],[],['female'],[[1]],[[0.37739804]],JS
609,[[6]],[[610]],[[15]],['high holistic'],['fovea'],['inverted'],['U0312.bmp'],['male'],[],['female'],[[0]],[[0.31374729]],JS
610,[[6]],[[611]],[[16]],['high holistic'],['right'],['upright'],['U0335.bmp'],['female'],[],['female'],[[1]],[[0.25164843]],JS
611,[[6]],[[612]],[[13]],['high holistic'],['left'],['inverted'],['U0181.bmp'],['female'],[],['female'],[[1]],[[0.12185315]],JS
612,[[6]],[[613]],[[20]],['low holistic'],['right'],['upright'],['U0362.bmp'],['male'],[],['male'],[[1]],[[0.1721229]],JS
613,[[6]],[[614]],[[17]],['high holistic'],['left'],['upright'],['U0346.bmp'],['male'],[],['male'],[[1]],[[0.12660374]],JS
614,[[6]],[[615]],[[17]],['low holistic'],['right'],['inverted'],['U0346.bmp'],['female'],[],['female'],[[1]],[[0.36328177]],JS
615,[[6]],[[616]],[[19]],['high holistic'],['right'],['upright'],['U0361.bmp'],['female'],[],['male'],[[0]],[[0.13030623]],JS
616,[[6]],[[617]],[[12]],['low holistic'],['right'],['upright'],['U0178.bmp'],['female'],[],['female'],[[1]],[[0.33738428]],JS
617,[[6]],[[618]],[[4]],['high holistic'],['right'],['upright'],['U0061.bmp'],['female'],[],['female'],[[1]],[[0.09840933]],JS
618,[[6]],[[619]],[[3]],['high holistic'],['left'],['upright'],['U0020.bmp'],['male'],[],['male'],[[1]],[[0.07816241]],JS
619,[[6]],[[620]],[[16]],['high holistic'],['right'],['upright'],['U0335.bmp'],['female'],[],['female'],[[1]],[[0.26638783]],JS
620,[[6]],[[621]],[[17]],['high holistic'],['left'],['inverted'],['U0346.bmp'],['male'],[],['male'],[[1]],[[0.43985151]],JS
621,[[6]],[[622]],[[17]],['low holistic'],['left'],['inverted'],['U0346.bmp'],['female'],[],['female'],[[1]],[[0.12619893]],JS
622,[[6]],[[623]],[[15]],['high holistic'],['right'],['inverted'],['U0312.bmp'],['male'],[],['female'],[[0]],[[0.20185252]],JS
623,[[6]],[[624]],[[16]],['high holistic'],['right'],['upright'],['U0335.bmp'],['female'],[],['female'],[[1]],[[0.16132706]],JS
624,[[6]],[[625]],[[13]],['low holistic'],['right'],['upright'],['U0181.bmp'],['male'],[],['male'],[[1]],[[0.13028453]],JS
625,[[6]],[[626]],[[12]],['high holistic'],['left'],['inverted'],['U0178.bmp'],['male'],[],['female'],[[0]],[[0.100889]],JS
626,[[6]],[[627]],[[19]],['high holistic'],['left'],['upright'],['U0361.bmp'],['female'],[],['male'],[[0]],[[0.31150052]],JS
627,[[6]],[[628]],[[1]],['high holistic'],['left'],['inverted'],['U0006.bmp'],['female'],[],['female'],[[1]],[[0.02040167]],JS
628,[[6]],[[629]],[[5]],['high holistic'],['right'],['upright'],['U0076.bmp'],['female'],[],['female'],[[1]],[[0.12355922]],JS
629,[[6]],[[630]],[[4]],['high holistic'],['right'],['inverted'],['U0061.bmp'],['female'],[],['female'],[[1]],[[0.2053847]],JS
630,[[6]],[[631]],[[17]],['high holistic'],['left'],['upright'],['U0346.bmp'],['male'],[],['female'],[[0]],[[0.15715686]],JS
631,[[6]],[[632]],[[12]],['high holistic'],['left'],['inverted'],['U0178.bmp'],['male'],[],['female'],[[0]],[[0.15896804]],JS
632,[[6]],[[633]],[[12]],['high holistic'],['left'],['upright'],['U0178.bmp'],['male'],[],['male'],[[1]],[[0.02234704]],JS
633,[[6]],[[634]],[[6]],['high holistic'],['fovea'],['upright'],['U0106.bmp'],['female'],[],['female'],[[1]],[[0.07836771]],JS
634,[[6]],[[635]],[[7]],['low holistic'],['fovea'],['inverted'],['U0107.bmp'],['female'],[],['female'],[[1]],[[0.12239088]],JS
635,[[6]],[[636]],[[17]],['low holistic'],['left'],['upright'],['U0346.bmp'],['female'],[],['female'],[[1]],[[0.07663139]],JS
636,[[6]],[[637]],[[19]],['high holistic'],['left'],['inverted'],['U0361.bmp'],['female'],[],['male'],[[0]],[[0.1378725]],JS
637,[[6]],[[638]],[[16]],['low holistic'],['right'],['inverted'],['U0335.bmp'],['female'],[],['female'],[[1]],[[0.27624038]],JS
638,[[6]],[[639]],[[19]],['low holistic'],['right'],['inverted'],['U0361.bmp'],['female'],[],['female'],[[1]],[[0.07136967]],JS
639,[[6]],[[640]],[[8]],['low holistic'],['right'],['upright'],['U0137.bmp'],['male'],[],['male'],[[1]],[[0.08452804]],JS
640,[[6]],[[641]],[[7]],['low holistic'],['right'],['upright'],['U0107.bmp'],['female'],[],['female'],[[1]],[[0.02509252]],JS
641,[[6]],[[642]],[[16]],['high holistic'],['right'],['inverted'],['U0335.bmp'],['female'],[],['female'],[[1]],[[0.12927023]],JS
642,[[6]],[[643]],[[13]],['low holistic'],['right'],['upright'],['U0181.bmp'],['male'],[],['male'],[[1]],[[0.23648366]],JS
643,[[6]],[[644]],[[20]],['high holistic'],['left'],['inverted'],['U0362.bmp'],['female'],[],['female'],[[1]],[[0.39318347]],JS
644,[[6]],[[645]],[[6]],['high holistic'],['right'],['upright'],['U0106.bmp'],['female'],[],['male'],[[0]],[[0.01730783]],JS
645,[[6]],[[646]],[[15]],['high holistic'],['left'],['inverted'],['U0312.bmp'],['male'],[],['female'],[[0]],[[0.10423838]],JS
646,[[6]],[[647]],[[1]],['high holistic'],['left'],['upright'],['U0006.bmp'],['female'],[],['female'],[[1]],[[0.1402674]],JS
647,[[6]],[[648]],[[11]],['high holistic'],['left'],['upright'],['U0164.bmp'],['female'],[],['female'],[[1]],[[0.19894915]],JS
648,[[6]],[[649]],[[10]],['low holistic'],['right'],['inverted'],['U0159.bmp'],['female'],[],['female'],[[1]],[[0.00010609]],JS
649,[[6]],[[650]],[[15]],['high holistic'],['left'],['upright'],['U0312.bmp'],['male'],[],['male'],[[1]],[[0.17378918]],JS
650,[[6]],[[651]],[[5]],['low holistic'],['right'],['upright'],['U0076.bmp'],['male'],[],['male'],[[1]],[[0.34571493]],JS
651,[[6]],[[652]],[[9]],['high holistic'],['right'],['inverted'],['U0155.bmp'],['female'],[],['female'],[[1]],[[0.36412691]],JS
652,[[6]],[[653]],[[15]],['low holistic'],['left'],['upright'],['U0312.bmp'],['male'],[],['male'],[[1]],[[0.00011112]],JS
653,[[6]],[[654]],[[5]],['high holistic'],['right'],['upright'],['U0076.bmp'],['female'],[],['female'],[[1]],[[0.11635588]],JS
654,[[6]],[[655]],[[20]],['low holistic'],['left'],['upright'],['U0362.bmp'],['male'],[],['female'],[[0]],[[0.15955118]],JS
655,[[6]],[[656]],[[20]],['high holistic'],['right'],['upright'],['U0362.bmp'],['female'],[],['female'],[[1]],[[0.31410256]],JS
656,[[6]],[[657]],[[7]],['high holistic'],['right'],['inverted'],['U0107.bmp'],['female'],[],['female'],[[1]],[[0.00355799]],JS
657,[[6]],[[658]],[[6]],['low holistic'],['right'],['upright'],['U0106.bmp'],['male'],[],['male'],[[1]],[[0.02622499]],JS
658,[[6]],[[659]],[[15]],['low holistic'],['right'],['inverted'],['U0312.bmp'],['male'],[],['female'],[[0]],[[0.00353094]],JS
659,[[6]],[[660]],[[8]],['high holistic'],['left'],['upright'],['U0137.bmp'],['female'],[],['female'],[[1]],[[0.14567119]],JS
660,[[6]],[[661]],[[18]],['high holistic'],['right'],['upright'],['U0359.bmp'],['male'],[],['male'],[[1]],[[0.90745882]],JS
661,[[6]],[[662]],[[19]],['high holistic'],['left'],['upright'],['U0361.bmp'],['female'],[],['female'],[[1]],[[0.02259486]],JS
662,[[6]],[[663]],[[15]],['low holistic'],['right'],['inverted'],['U0312.bmp'],['male'],[],['male'],[[1]],[[0.1824444]],JS
663,[[6]],[[664]],[[10]],['low holistic'],['right'],['inverted'],['U0159.bmp'],['female'],[],['female'],[[1]],[[1.57426891]],JS
664,[[6]],[[665]],[[5]],['high holistic'],['right'],['inverted'],['U0076.bmp'],['female'],[],['female'],[[1]],[[0.30259256]],JS
665,[[6]],[[666]],[[14]],['high holistic'],['right'],['upright'],['U0228.bmp'],['male'],[],['male'],[[1]],[[0.11525949]],JS
666,[[6]],[[667]],[[1]],['low holistic'],['left'],['upright'],['U0006.bmp'],['female'],[],['female'],[[1]],[[0.04378263]],JS
667,[[6]],[[668]],[[18]],['low holistic'],['left'],['upright'],['U0359.bmp'],['male'],[],['male'],[[1]],[[0.00039272]],JS
668,[[6]],[[669]],[[20]],['low holistic'],['right'],['inverted'],['U0362.bmp'],['male'],[],['female'],[[0]],[[0.13937325]],JS
669,[[6]],[[670]],[[20]],['low holistic'],['right'],['upright'],['U0362.bmp'],['male'],[],['female'],[[0]],[[0.0002136]],JS
670,[[6]],[[671]],[[15]],['low holistic'],['right'],['inverted'],['U0312.bmp'],['male'],[],['male'],[[1]],[[0.16466442]],JS
671,[[6]],[[672]],[[20]],['low holistic'],['left'],['inverted'],['U0362.bmp'],['male'],[],['female'],[[0]],[[0.02185662]],JS
672,[[6]],[[673]],[[1]],['high holistic'],['left'],['upright'],['U0006.bmp'],['female'],[],['female'],[[1]],[[0.04525301]],JS
673,[[6]],[[674]],[[4]],['low holistic'],['left'],['inverted'],['U0061.bmp'],['female'],[],['female'],[[1]],[[0.2015852]],JS
674,[[6]],[[675]],[[9]],['high holistic'],['right'],['upright'],['U0155.bmp'],['female'],[],['male'],[[0]],[[0.22553184]],JS
675,[[6]],[[676]],[[9]],['high holistic'],['right'],['inverted'],['U0155.bmp'],['female'],[],['female'],[[1]],[[0.34368474]],JS
676,[[6]],[[677]],[[10]],['high holistic'],['right'],['inverted'],['U0159.bmp'],['male'],[],['male'],[[1]],[[0.22627296]],JS
677,[[6]],[[678]],[[2]],['high holistic'],['left'],['inverted'],['U0014.bmp'],['male'],[],['female'],[[0]],[[0.29851121]],JS
678,[[6]],[[679]],[[4]],['high holistic'],['right'],['upright'],['U0061.bmp'],['female'],[],['female'],[[1]],[[0.00011095]],JS
679,[[6]],[[680]],[[1]],['high holistic'],['left'],['upright'],['U0006.bmp'],['female'],[],['female'],[[1]],[[1.34828607]],JS
680,[[6]],[[681]],[[13]],['high holistic'],['right'],['inverted'],['U0181.bmp'],['female'],[],['female'],[[1]],[[0.17459046]],JS
681,[[6]],[[682]],[[18]],['high holistic'],['right'],['upright'],['U0359.bmp'],['male'],[],['male'],[[1]],[[0.01559338]],JS
682,[[6]],[[683]],[[9]],['low holistic'],['right'],['upright'],['U0155.bmp'],['male'],[],['male'],[[1]],[[0.13298626]],JS
683,[[6]],[[684]],[[19]],['high holistic'],['left'],['inverted'],['U0361.bmp'],['female'],[],['male'],[[0]],[[0.20788627]],JS
684,[[6]],[[685]],[[15]],['high holistic'],['right'],['inverted'],['U0312.bmp'],['male'],[],['male'],[[1]],[[0.2708708]],JS
685,[[6]],[[686]],[[19]],['low holistic'],['left'],['upright'],['U0361.bmp'],['female'],[],['female'],[[1]],[[0.09163883]],JS
686,[[6]],[[687]],[[8]],['high holistic'],['right'],['upright'],['U0137.bmp'],['female'],[],['female'],[[1]],[[0.38444602]],JS
687,[[6]],[[688]],[[15]],['low holistic'],['right'],['upright'],['U0312.bmp'],['male'],[],['female'],[[0]],[[0.37667454]],JS
688,[[6]],[[689]],[[19]],['low holistic'],['left'],['upright'],['U0361.bmp'],['female'],[],['female'],[[1]],[[0.13688107]],JS
689,[[6]],[[690]],[[9]],['high holistic'],['right'],['upright'],['U0155.bmp'],['female'],[],['male'],[[0]],[[0.00025309]],JS
690,[[6]],[[691]],[[13]],['high holistic'],['right'],['upright'],['U0181.bmp'],['female'],[],['female'],[[1]],[[0.3379862]],JS
691,[[6]],[[692]],[[18]],['high holistic'],['right'],['inverted'],['U0359.bmp'],['male'],[],['male'],[[1]],[[0.36543565]],JS
692,[[6]],[[693]],[[7]],['low holistic'],['left'],['inverted'],['U0107.bmp'],['female'],[],['female'],[[1]],[[0.16576501]],JS
693,[[6]],[[694]],[[7]],['low holistic'],['right'],['inverted'],['U0107.bmp'],['female'],[],['female'],[[1]],[[0.07921246]],JS
694,[[6]],[[695]],[[2]],['low holistic'],['right'],['upright'],['U0014.bmp'],['male'],[],['male'],[[1]],[[0.21907553]],JS
695,[[6]],[[696]],[[15]],['high holistic'],['right'],['inverted'],['U0312.bmp'],['male'],[],['male'],[[1]],[[0.47511731]],JS
696,[[6]],[[697]],[[6]],['low holistic'],['right'],['inverted'],['U0106.bmp'],['male'],[],['male'],[[1]],[[0.31871285]],JS
697,[[6]],[[698]],[[4]],['high holistic'],['left'],['inverted'],['U0061.bmp'],['female'],[],['female'],[[1]],[[0.46760126]],JS
698,[[6]],[[699]],[[3]],['high holistic'],['right'],['upright'],['U0020.bmp'],['male'],[],['male'],[[1]],[[0.09466421]],JS
699,[[6]],[[700]],[[3]],['low holistic'],['right'],['upright'],['U0020.bmp'],['female'],[],['female'],[[1]],[[0.33159568]],JS
700,[[6]],[[701]],[[15]],['high holistic'],['left'],['inverted'],['U0312.bmp'],['male'],[],['male'],[[1]],[[0.27788528]],JS
701,[[6]],[[702]],[[3]],['high holistic'],['left'],['upright'],['U0020.bmp'],['male'],[],['male'],[[1]],[[0.9549818]],JS
702,[[6]],[[703]],[[6]],['low holistic'],['left'],['upright'],['U0106.bmp'],['male'],[],['female'],[[0]],[[0.38809559]],JS
703,[[6]],[[704]],[[9]],['low holistic'],['left'],['upright'],['U0155.bmp'],['male'],[],['male'],[[1]],[[0.15611523]],JS
704,[[6]],[[705]],[[2]],['high holistic'],['left'],['inverted'],['U0014.bmp'],['male'],[],['female'],[[0]],[[0.55553845]],JS
705,[[6]],[[706]],[[14]],['low holistic'],['left'],['inverted'],['U0228.bmp'],['male'],[],['male'],[[1]],[[0.0938826]],JS
706,[[6]],[[707]],[[9]],['high holistic'],['left'],['upright'],['U0155.bmp'],['female'],[],['female'],[[1]],[[0.44959242]],JS
707,[[6]],[[708]],[[13]],['low holistic'],['left'],['inverted'],['U0181.bmp'],['male'],[],['male'],[[1]],[[0.16033628]],JS
708,[[6]],[[709]],[[19]],['low holistic'],['fovea'],['upright'],['U0361.bmp'],['female'],[],['female'],[[1]],[[0.22602956]],JS
709,[[6]],[[710]],[[10]],['high holistic'],['left'],['inverted'],['U0159.bmp'],['male'],[],['male'],[[1]],[[0.14264228]],JS
710,[[6]],[[711]],[[3]],['low holistic'],['right'],['inverted'],['U0020.bmp'],['female'],[],['female'],[[1]],[[0.08114786]],JS
711,[[6]],[[712]],[[3]],['low holistic'],['right'],['inverted'],['U0020.bmp'],['female'],[],['female'],[[1]],[[0.00035825]],JS
712,[[6]],[[713]],[[3]],['low holistic'],['right'],['upright'],['U0020.bmp'],['female'],[],['female'],[[1]],[[1.42229139]],JS
713,[[6]],[[714]],[[6]],['high holistic'],['right'],['inverted'],['U0106.bmp'],['female'],[],['female'],[[1]],[[0.13351256]],JS
714,[[6]],[[715]],[[18]],['low holistic'],['left'],['inverted'],['U0359.bmp'],['male'],[],['male'],[[1]],[[0.09455786]],JS
715,[[6]],[[716]],[[19]],['low holistic'],['left'],['inverted'],['U0361.bmp'],['female'],[],['female'],[[1]],[[0.02611146]],JS
716,[[6]],[[717]],[[15]],['high holistic'],['left'],['inverted'],['U0312.bmp'],['male'],[],['male'],[[1]],[[0.00957596]],JS
717,[[6]],[[718]],[[7]],['low holistic'],['right'],['inverted'],['U0107.bmp'],['female'],[],['male'],[[0]],[[0.11280031]],JS
718,[[6]],[[719]],[[3]],['high holistic'],['left'],['inverted'],['U0020.bmp'],['male'],[],['female'],[[0]],[[9.83478967e-05]],JS
719,[[6]],[[720]],[[1]],['high holistic'],['right'],['inverted'],['U0006.bmp'],['female'],[],['male'],[[0]],[[0.33837077]],JS
720,[[6]],[[721]],[[19]],['high holistic'],['right'],['inverted'],['U0361.bmp'],['female'],[],['male'],[[0]],[[0.14876039]],JS
721,[[6]],[[722]],[[6]],['low holistic'],['right'],['upright'],['U0106.bmp'],['male'],[],['male'],[[1]],[[0.21483884]],JS
722,[[6]],[[723]],[[1]],['low holistic'],['left'],['inverted'],['U0006.bmp'],['female'],[],['female'],[[1]],[[0.16655637]],JS
723,[[6]],[[724]],[[11]],['high holistic'],['left'],['upright'],['U0164.bmp'],['female'],[],['female'],[[1]],[[0.09494111]],JS
724,[[6]],[[725]],[[20]],['low holistic'],['right'],['inverted'],['U0362.bmp'],['male'],[],['female'],[[0]],[[0.17175574]],JS
725,[[6]],[[726]],[[17]],['low holistic'],['left'],['upright'],['U0346.bmp'],['female'],[],['female'],[[1]],[[0.02836041]],JS
726,[[6]],[[727]],[[20]],['high holistic'],['left'],['inverted'],['U0362.bmp'],['female'],[],['female'],[[1]],[[0.66738401]],JS
727,[[6]],[[728]],[[13]],['low holistic'],['right'],['upright'],['U0181.bmp'],['male'],[],['male'],[[1]],[[0.21476728]],JS
728,[[6]],[[729]],[[9]],['low holistic'],['left'],['upright'],['U0155.bmp'],['male'],[],['male'],[[1]],[[0.35841647]],JS
729,[[6]],[[730]],[[15]],['high holistic'],['right'],['upright'],['U0312.bmp'],['male'],[],['female'],[[0]],[[0.39256949]],JS
730,[[6]],[[731]],[[9]],['high holistic'],['right'],['inverted'],['U0155.bmp'],['female'],[],['female'],[[1]],[[0.98442664]],JS
731,[[6]],[[732]],[[11]],['high holistic'],['right'],['inverted'],['U0164.bmp'],['female'],[],['female'],[[1]],[[0.28801788]],JS
732,[[6]],[[733]],[[15]],['low holistic'],['fovea'],['upright'],['U0312.bmp'],['male'],[],['male'],[[1]],[[0.07676285]],JS
733,[[6]],[[734]],[[4]],['high holistic'],['right'],['inverted'],['U0061.bmp'],['female'],[],['male'],[[0]],[[0.30415724]],JS
734,[[6]],[[735]],[[7]],['low holistic'],['left'],['inverted'],['U0107.bmp'],['female'],[],['female'],[[1]],[[0.30000171]],JS
735,[[6]],[[736]],[[2]],['low holistic'],['fovea'],['upright'],['U0014.bmp'],['male'],[],['male'],[[1]],[[0.15337502]],JS
736,[[6]],[[737]],[[18]],['low holistic'],['right'],['upright'],['U0359.bmp'],['male'],[],['male'],[[1]],[[0.25733024]],JS
737,[[6]],[[738]],[[6]],['low holistic'],['left'],['inverted'],['U0106.bmp'],['male'],[],['male'],[[1]],[[0.26339913]],JS
738,[[6]],[[739]],[[18]],['low holistic'],['left'],['upright'],['U0359.bmp'],['male'],[],['male'],[[1]],[[0.1072812]],JS
739,[[6]],[[740]],[[3]],['low holistic'],['right'],['upright'],['U0020.bmp'],['female'],[],['female'],[[1]],[[0.04667245]],JS
740,[[6]],[[741]],[[1]],['low holistic'],['fovea'],['inverted'],['U0006.bmp'],['female'],[],['female'],[[1]],[[0.14804137]],JS
741,[[6]],[[742]],[[9]],['high holistic'],['right'],['inverted'],['U0155.bmp'],['female'],[],['female'],[[1]],[[0.39142412]],JS
742,[[6]],[[743]],[[9]],['high holistic'],['left'],['upright'],['U0155.bmp'],['female'],[],['female'],[[1]],[[0.18970628]],JS
743,[[6]],[[744]],[[2]],['low holistic'],['right'],['upright'],['U0014.bmp'],['male'],[],['male'],[[1]],[[0.05556628]],JS
744,[[6]],[[745]],[[16]],['high holistic'],['right'],['inverted'],['U0335.bmp'],['female'],[],['male'],[[0]],[[0.14719952]],JS
745,[[6]],[[746]],[[15]],['high holistic'],['right'],['inverted'],['U0312.bmp'],['male'],[],['male'],[[1]],[[0.13217271]],JS
746,[[6]],[[747]],[[14]],['high holistic'],['right'],['inverted'],['U0228.bmp'],['male'],[],['female'],[[0]],[[0.28798812]],JS
747,[[6]],[[748]],[[18]],['high holistic'],['fovea'],['inverted'],['U0359.bmp'],['male'],[],['female'],[[0]],[[0.81986739]],JS
748,[[6]],[[749]],[[15]],['low holistic'],['fovea'],['inverted'],['U0312.bmp'],['male'],[],['female'],[[0]],[[0.4198917]],JS
749,[[6]],[[750]],[[8]],['low holistic'],['left'],['inverted'],['U0137.bmp'],['male'],[],['male'],[[1]],[[0.08303844]],JS
750,[[6]],[[751]],[[19]],['low holistic'],['left'],['upright'],['U0361.bmp'],['female'],[],['female'],[[1]],[[0.03116372]],JS
751,[[6]],[[752]],[[8]],['low holistic'],['left'],['upright'],['U0137.bmp'],['male'],[],['female'],[[0]],[[0.00011268]],JS
752,[[6]],[[753]],[[2]],['high holistic'],['right'],['inverted'],['U0014.bmp'],['male'],[],['female'],[[0]],[[0.35504406]],JS
753,[[6]],[[754]],[[18]],['high holistic'],['right'],['upright'],['U0359.bmp'],['male'],[],['male'],[[1]],[[0.1345133]],JS
754,[[6]],[[755]],[[11]],['high holistic'],['left'],['inverted'],['U0164.bmp'],['female'],[],['female'],[[1]],[[0.29625527]],JS
755,[[6]],[[756]],[[12]],['low holistic'],['left'],['upright'],['U0178.bmp'],['female'],[],['female'],[[1]],[[0.18694406]],JS
756,[[6]],[[757]],[[10]],['high holistic'],['right'],['inverted'],['U0159.bmp'],['male'],[],['male'],[[1]],[[0.18017977]],JS
757,[[6]],[[758]],[[17]],['high holistic'],['left'],['upright'],['U0346.bmp'],['male'],[],['male'],[[1]],[[0.14121831]],JS
758,[[6]],[[759]],[[5]],['low holistic'],['left'],['inverted'],['U0076.bmp'],['male'],[],['male'],[[1]],[[0.13509666]],JS
759,[[6]],[[760]],[[2]],['high holistic'],['left'],['upright'],['U0014.bmp'],['male'],[],['male'],[[1]],[[0.0976543]],JS
760,[[6]],[[761]],[[20]],['low holistic'],['right'],['upright'],['U0362.bmp'],['male'],[],['male'],[[1]],[[0.00016201]],JS
761,[[6]],[[762]],[[10]],['high holistic'],['left'],['inverted'],['U0159.bmp'],['male'],[],['male'],[[1]],[[0.35677669]],JS
762,[[6]],[[763]],[[19]],['high holistic'],['right'],['inverted'],['U0361.bmp'],['female'],[],['female'],[[1]],[[0.37332895]],JS
763,[[6]],[[764]],[[7]],['low holistic'],['right'],['inverted'],['U0107.bmp'],['female'],[],['female'],[[1]],[[0.08628857]],JS
764,[[6]],[[765]],[[18]],['low holistic'],['right'],['upright'],['U0359.bmp'],['male'],[],['female'],[[0]],[[0.16896667]],JS
765,[[6]],[[766]],[[17]],['high holistic'],['left'],['inverted'],['U0346.bmp'],['male'],[],['female'],[[0]],[[0.29185165]],JS
766,[[6]],[[767]],[[19]],['low holistic'],['right'],['upright'],['U0361.bmp'],['female'],[],['male'],[[0]],[[0.00011184]],JS
767,[[6]],[[768]],[[5]],['high holistic'],['left'],['inverted'],['U0076.bmp'],['female'],[],['male'],[[0]],[[0.40792776]],JS
768,[[6]],[[769]],[[4]],['low holistic'],['left'],['upright'],['U0061.bmp'],['female'],[],['female'],[[1]],[[0.09472456]],JS
769,[[6]],[[770]],[[14]],['high holistic'],['left'],['inverted'],['U0228.bmp'],['male'],[],['female'],[[0]],[[1.7863032]],JS
770,[[6]],[[771]],[[11]],['low holistic'],['left'],['upright'],['U0164.bmp'],['female'],[],['female'],[[1]],[[0.13045077]],JS
771,[[6]],[[772]],[[2]],['low holistic'],['right'],['inverted'],['U0014.bmp'],['male'],[],['male'],[[1]],[[0.70139231]],JS
772,[[6]],[[773]],[[7]],['high holistic'],['right'],['inverted'],['U0107.bmp'],['female'],[],['female'],[[1]],[[0.00835426]],JS
773,[[6]],[[774]],[[8]],['high holistic'],['left'],['inverted'],['U0137.bmp'],['female'],[],['female'],[[1]],[[0.279029]],JS
774,[[6]],[[775]],[[6]],['high holistic'],['left'],['upright'],['U0106.bmp'],['female'],[],['female'],[[1]],[[0.21125551]],JS
775,[[6]],[[776]],[[12]],['low holistic'],['right'],['upright'],['U0178.bmp'],['female'],[],['female'],[[1]],[[0.00014704]],JS
776,[[6]],[[777]],[[19]],['high holistic'],['right'],['upright'],['U0361.bmp'],['female'],[],['female'],[[1]],[[0.00039219]],JS
777,[[6]],[[778]],[[1]],['low holistic'],['right'],['upright'],['U0006.bmp'],['female'],[],['female'],[[1]],[[0.32166236]],JS
778,[[6]],[[779]],[[17]],['low holistic'],['right'],['upright'],['U0346.bmp'],['female'],[],['female'],[[1]],[[0.10955767]],JS
779,[[6]],[[780]],[[8]],['high holistic'],['right'],['upright'],['U0137.bmp'],['female'],[],['female'],[[1]],[[0.81538191]],JS
780,[[6]],[[781]],[[17]],['low holistic'],['left'],['inverted'],['U0346.bmp'],['female'],[],['female'],[[1]],[[0.45790108]],JS
781,[[6]],[[782]],[[4]],['low holistic'],['right'],['upright'],['U0061.bmp'],['female'],[],['female'],[[1]],[[0.00013314]],JS
782,[[6]],[[783]],[[18]],['low holistic'],['right'],['inverted'],['U0359.bmp'],['male'],[],['female'],[[0]],[[0.00010533]],JS
783,[[6]],[[784]],[[19]],['high holistic'],['fovea'],['upright'],['U0361.bmp'],['female'],[],['female'],[[1]],[[0.37727066]],JS
784,[[6]],[[785]],[[18]],['low holistic'],['right'],['upright'],['U0359.bmp'],['male'],[],['male'],[[1]],[[0.13741035]],JS
785,[[6]],[[786]],[[12]],['high holistic'],['right'],['upright'],['U0178.bmp'],['male'],[],['male'],[[1]],[[0.1956005]],JS
786,[[6]],[[787]],[[11]],['low holistic'],['right'],['inverted'],['U0164.bmp'],['female'],[],['female'],[[1]],[[0.00012471]],JS
787,[[6]],[[788]],[[15]],['high holistic'],['right'],['upright'],['U0312.bmp'],['male'],[],['male'],[[1]],[[0.00011325]],JS
788,[[6]],[[789]],[[6]],['low holistic'],['left'],['upright'],['U0106.bmp'],['male'],[],['male'],[[1]],[[0.00011521]],JS
789,[[6]],[[790]],[[11]],['low holistic'],['left'],['inverted'],['U0164.bmp'],['female'],[],['female'],[[1]],[[9.81457997e-05]],JS
790,[[6]],[[791]],[[17]],['low holistic'],['right'],['inverted'],['U0346.bmp'],['female'],[],['female'],[[1]],[[0.06473739]],JS
791,[[6]],[[792]],[[3]],['high holistic'],['left'],['inverted'],['U0020.bmp'],['male'],[],['female'],[[0]],[[9.76100564e-05]],JS
792,[[6]],[[793]],[[9]],['high holistic'],['left'],['inverted'],['U0155.bmp'],['female'],[],['female'],[[1]],[[0.20617144]],JS
793,[[6]],[[794]],[[5]],['high holistic'],['left'],['inverted'],['U0076.bmp'],['female'],[],['female'],[[1]],[[0.14180724]],JS
794,[[6]],[[795]],[[9]],['high holistic'],['right'],['inverted'],['U0155.bmp'],['female'],[],['female'],[[1]],[[0.10492385]],JS
795,[[6]],[[796]],[[14]],['low holistic'],['left'],['upright'],['U0228.bmp'],['male'],[],['male'],[[1]],[[0.29934098]],JS
796,[[6]],[[797]],[[7]],['low holistic'],['left'],['upright'],['U0107.bmp'],['female'],[],['female'],[[1]],[[0.03933896]],JS
