,SUBID,TRIAL,MOONEYID,MOONEYCATEGORY,LOC,COND,MOONEY_NAME,MOONEY_GENDER,ECCENTRICITY,RESPONSE,ACCURACY,RT,SUBINIT
0,[[12]],[[1]],[[3]],['high holistic'],['right'],['upright'],['U0020.bmp'],['male'],[[4]],['female'],[[0]],[[0.83366816]],JX
1,[[12]],[[2]],[[9]],['low holistic'],['left'],['inverted'],['U0155.bmp'],['male'],[[6]],['female'],[[0]],[[0.19300773]],JX
2,[[12]],[[3]],[[11]],['high holistic'],['left'],['upright'],['U0164.bmp'],['female'],[[12]],['female'],[[1]],[[0.12931096]],JX
3,[[12]],[[4]],[[6]],['low holistic'],['left'],['upright'],['U0106.bmp'],['male'],[[8]],['male'],[[1]],[[0.03021973]],JX
4,[[12]],[[5]],[[10]],['high holistic'],['left'],['inverted'],['U0159.bmp'],['male'],[[10]],['male'],[[1]],[[0.37152571]],JX
5,[[12]],[[6]],[[16]],['high holistic'],['right'],['upright'],['U0335.bmp'],['female'],[[4]],['female'],[[1]],[[0.20660829]],JX
6,[[12]],[[7]],[[5]],['low holistic'],['left'],['inverted'],['U0076.bmp'],['male'],[[2]],['male'],[[1]],[[0.42888053]],JX
7,[[12]],[[8]],[[13]],['low holistic'],['left'],['upright'],['U0181.bmp'],['male'],[[4]],['male'],[[1]],[[0.59586535]],JX
8,[[12]],[[9]],[[13]],['high holistic'],['left'],['inverted'],['U0181.bmp'],['female'],[[6]],['male'],[[0]],[[0.30146333]],JX
9,[[12]],[[10]],[[13]],['low holistic'],['right'],['inverted'],['U0181.bmp'],['male'],[[4]],['male'],[[1]],[[0.16011801]],JX
10,[[12]],[[11]],[[16]],['low holistic'],['right'],['upright'],['U0335.bmp'],['female'],[[2]],['female'],[[1]],[[0.44942651]],JX
11,[[12]],[[12]],[[5]],['high holistic'],['left'],['upright'],['U0076.bmp'],['female'],[[6]],['female'],[[1]],[[0.17553646]],JX
12,[[12]],[[13]],[[1]],['high holistic'],['right'],['inverted'],['U0006.bmp'],['female'],[[10]],['male'],[[0]],[[0.28277464]],JX
13,[[12]],[[14]],[[5]],['high holistic'],['left'],['inverted'],['U0076.bmp'],['female'],[[8]],['male'],[[0]],[[0.14271086]],JX
14,[[12]],[[15]],[[15]],['low holistic'],['right'],['inverted'],['U0312.bmp'],['male'],[[2]],['male'],[[1]],[[0.1295405]],JX
15,[[12]],[[16]],[[10]],['high holistic'],['fovea'],['upright'],['U0159.bmp'],['male'],[[0]],['male'],[[1]],[[0.02863252]],JX
16,[[12]],[[17]],[[3]],['high holistic'],['left'],['upright'],['U0020.bmp'],['male'],[[10]],['female'],[[0]],[[0.53085888]],JX
17,[[12]],[[18]],[[16]],['low holistic'],['left'],['upright'],['U0335.bmp'],['female'],[[6]],['female'],[[1]],[[0.24613377]],JX
18,[[12]],[[19]],[[15]],['low holistic'],['right'],['upright'],['U0312.bmp'],['male'],[[10]],['female'],[[0]],[[0.07538901]],JX
19,[[12]],[[20]],[[16]],['low holistic'],['left'],['inverted'],['U0335.bmp'],['female'],[[4]],['female'],[[1]],[[0.11420314]],JX
20,[[12]],[[21]],[[11]],['high holistic'],['right'],['upright'],['U0164.bmp'],['female'],[[4]],['female'],[[1]],[[0.07574889]],JX
21,[[12]],[[22]],[[5]],['high holistic'],['left'],['upright'],['U0076.bmp'],['female'],[[4]],['female'],[[1]],[[1.44035741]],JX
22,[[12]],[[23]],[[4]],['high holistic'],['right'],['inverted'],['U0061.bmp'],['female'],[[2]],['male'],[[0]],[[0.45548586]],JX
23,[[12]],[[24]],[[10]],['low holistic'],['left'],['inverted'],['U0159.bmp'],['female'],[[10]],['male'],[[0]],[[0.38841251]],JX
24,[[12]],[[25]],[[9]],['high holistic'],['fovea'],['inverted'],['U0155.bmp'],['female'],[[0]],['male'],[[0]],[[0.28573951]],JX
25,[[12]],[[26]],[[9]],['high holistic'],['right'],['upright'],['U0155.bmp'],['female'],[[6]],['female'],[[1]],[[0.34001415]],JX
26,[[12]],[[27]],[[19]],['low holistic'],['right'],['upright'],['U0361.bmp'],['female'],[[12]],['female'],[[1]],[[0.3817021]],JX
27,[[12]],[[28]],[[11]],['high holistic'],['left'],['inverted'],['U0164.bmp'],['female'],[[4]],['male'],[[0]],[[0.17517264]],JX
28,[[12]],[[29]],[[3]],['high holistic'],['left'],['inverted'],['U0020.bmp'],['male'],[[6]],['male'],[[1]],[[0.33425109]],JX
29,[[12]],[[30]],[[14]],['low holistic'],['right'],['inverted'],['U0228.bmp'],['male'],[[12]],['male'],[[1]],[[0.09876173]],JX
30,[[12]],[[31]],[[16]],['high holistic'],['right'],['upright'],['U0335.bmp'],['female'],[[12]],['male'],[[0]],[[0.61381592]],JX
31,[[12]],[[32]],[[18]],['low holistic'],['right'],['upright'],['U0359.bmp'],['male'],[[8]],['male'],[[1]],[[0.00020297]],JX
32,[[12]],[[33]],[[14]],['low holistic'],['right'],['inverted'],['U0228.bmp'],['male'],[[6]],['male'],[[1]],[[0.17317265]],JX
33,[[12]],[[34]],[[2]],['high holistic'],['left'],['inverted'],['U0014.bmp'],['male'],[[12]],['female'],[[0]],[[0.0001085]],JX
34,[[12]],[[35]],[[1]],['high holistic'],['left'],['upright'],['U0006.bmp'],['female'],[[2]],['female'],[[1]],[[0.11022703]],JX
35,[[12]],[[36]],[[4]],['high holistic'],['left'],['upright'],['U0061.bmp'],['female'],[[10]],['male'],[[0]],[[0.14656652]],JX
36,[[12]],[[37]],[[17]],['high holistic'],['right'],['upright'],['U0346.bmp'],['male'],[[12]],['female'],[[0]],[[9.86624509e-05]],JX
37,[[12]],[[38]],[[1]],['low holistic'],['right'],['upright'],['U0006.bmp'],['female'],[[4]],['female'],[[1]],[[0.12406148]],JX
38,[[12]],[[39]],[[11]],['high holistic'],['left'],['upright'],['U0164.bmp'],['female'],[[2]],['female'],[[1]],[[0.00016091]],JX
39,[[12]],[[40]],[[18]],['low holistic'],['right'],['inverted'],['U0359.bmp'],['male'],[[2]],['male'],[[1]],[[0.37740421]],JX
40,[[12]],[[41]],[[9]],['low holistic'],['right'],['inverted'],['U0155.bmp'],['male'],[[8]],['male'],[[1]],[[0.24238967]],JX
41,[[12]],[[42]],[[1]],['high holistic'],['right'],['inverted'],['U0006.bmp'],['female'],[[8]],['male'],[[0]],[[0.00011157]],JX
42,[[12]],[[43]],[[15]],['high holistic'],['left'],['upright'],['U0312.bmp'],['male'],[[10]],['male'],[[1]],[[0.00010844]],JX
43,[[12]],[[44]],[[4]],['high holistic'],['left'],['upright'],['U0061.bmp'],['female'],[[6]],['male'],[[0]],[[0.00012168]],JX
44,[[12]],[[45]],[[16]],['high holistic'],['left'],['inverted'],['U0335.bmp'],['female'],[[2]],['male'],[[0]],[[0.11323962]],JX
45,[[12]],[[46]],[[10]],['low holistic'],['right'],['upright'],['U0159.bmp'],['female'],[[10]],['male'],[[0]],[[0.00010799]],JX
46,[[12]],[[47]],[[14]],['low holistic'],['right'],['upright'],['U0228.bmp'],['male'],[[8]],['male'],[[1]],[[1.08229929]],JX
47,[[12]],[[48]],[[19]],['low holistic'],['left'],['inverted'],['U0361.bmp'],['female'],[[10]],['female'],[[1]],[[0.17659184]],JX
48,[[12]],[[49]],[[1]],['low holistic'],['right'],['inverted'],['U0006.bmp'],['female'],[[6]],['male'],[[0]],[[0.14616423]],JX
49,[[12]],[[50]],[[11]],['low holistic'],['right'],['upright'],['U0164.bmp'],['female'],[[10]],['female'],[[1]],[[0.17987726]],JX
50,[[12]],[[51]],[[3]],['low holistic'],['right'],['inverted'],['U0020.bmp'],['female'],[[10]],['female'],[[1]],[[0.14820769]],JX
51,[[12]],[[52]],[[18]],['low holistic'],['left'],['inverted'],['U0359.bmp'],['male'],[[12]],['male'],[[1]],[[0.01528325]],JX
52,[[12]],[[53]],[[20]],['high holistic'],['right'],['upright'],['U0362.bmp'],['female'],[[6]],['female'],[[1]],[[0.26262235]],JX
53,[[12]],[[54]],[[3]],['low holistic'],['right'],['upright'],['U0020.bmp'],['female'],[[8]],['female'],[[1]],[[0.12469279]],JX
54,[[12]],[[55]],[[16]],['low holistic'],['right'],['upright'],['U0335.bmp'],['female'],[[8]],['female'],[[1]],[[0.17616528]],JX
55,[[12]],[[56]],[[8]],['low holistic'],['right'],['upright'],['U0137.bmp'],['male'],[[2]],['male'],[[1]],[[0.12946777]],JX
56,[[12]],[[57]],[[13]],['high holistic'],['left'],['inverted'],['U0181.bmp'],['female'],[[8]],['female'],[[1]],[[0.31513351]],JX
57,[[12]],[[58]],[[5]],['high holistic'],['fovea'],['upright'],['U0076.bmp'],['female'],[[0]],['female'],[[1]],[[0.18195256]],JX
58,[[12]],[[59]],[[1]],['low holistic'],['right'],['upright'],['U0006.bmp'],['female'],[[10]],['female'],[[1]],[[0.00048112]],JX
59,[[12]],[[60]],[[2]],['high holistic'],['right'],['inverted'],['U0014.bmp'],['male'],[[2]],['female'],[[0]],[[0.00012713]],JX
60,[[12]],[[61]],[[17]],['high holistic'],['right'],['inverted'],['U0346.bmp'],['male'],[[6]],['female'],[[0]],[[0.52082505]],JX
61,[[12]],[[62]],[[15]],['low holistic'],['left'],['upright'],['U0312.bmp'],['male'],[[8]],['male'],[[1]],[[0.18062192]],JX
62,[[12]],[[63]],[[3]],['low holistic'],['left'],['inverted'],['U0020.bmp'],['female'],[[12]],['female'],[[1]],[[0.41281256]],JX
63,[[12]],[[64]],[[15]],['high holistic'],['right'],['upright'],['U0312.bmp'],['male'],[[8]],['male'],[[1]],[[0.17937853]],JX
64,[[12]],[[65]],[[14]],['high holistic'],['right'],['upright'],['U0228.bmp'],['male'],[[8]],['male'],[[1]],[[0.15673414]],JX
65,[[12]],[[66]],[[1]],['high holistic'],['right'],['inverted'],['U0006.bmp'],['female'],[[8]],['male'],[[0]],[[1.08570375]],JX
66,[[12]],[[67]],[[15]],['low holistic'],['left'],['upright'],['U0312.bmp'],['male'],[[6]],['male'],[[1]],[[0.04273531]],JX
67,[[12]],[[68]],[[13]],['low holistic'],['right'],['inverted'],['U0181.bmp'],['male'],[[4]],['male'],[[1]],[[0.0001005]],JX
68,[[12]],[[69]],[[10]],['low holistic'],['left'],['upright'],['U0159.bmp'],['female'],[[4]],['female'],[[1]],[[0.09635457]],JX
69,[[12]],[[70]],[[1]],['low holistic'],['left'],['upright'],['U0006.bmp'],['female'],[[2]],['female'],[[1]],[[0.07739928]],JX
70,[[12]],[[71]],[[4]],['low holistic'],['left'],['inverted'],['U0061.bmp'],['female'],[[12]],['female'],[[1]],[[0.20152392]],JX
71,[[12]],[[72]],[[7]],['high holistic'],['left'],['inverted'],['U0107.bmp'],['female'],[[2]],['female'],[[1]],[[1.01944428]],JX
72,[[12]],[[73]],[[12]],['low holistic'],['right'],['upright'],['U0178.bmp'],['female'],[[10]],['female'],[[1]],[[0.0001005]],JX
73,[[12]],[[74]],[[8]],['high holistic'],['left'],['upright'],['U0137.bmp'],['female'],[[12]],['female'],[[1]],[[0.00010194]],JX
74,[[12]],[[75]],[[18]],['low holistic'],['left'],['upright'],['U0359.bmp'],['male'],[[12]],['male'],[[1]],[[0.05755595]],JX
75,[[12]],[[76]],[[4]],['high holistic'],['right'],['inverted'],['U0061.bmp'],['female'],[[8]],['female'],[[1]],[[9.77599993e-05]],JX
76,[[12]],[[77]],[[12]],['low holistic'],['fovea'],['upright'],['U0178.bmp'],['female'],[[0]],['female'],[[1]],[[0.00011098]],JX
77,[[12]],[[78]],[[18]],['low holistic'],['right'],['inverted'],['U0359.bmp'],['male'],[[10]],['male'],[[1]],[[0.00025306]],JX
78,[[12]],[[79]],[[5]],['low holistic'],['left'],['upright'],['U0076.bmp'],['male'],[[8]],['male'],[[1]],[[0.01500308]],JX
79,[[12]],[[80]],[[17]],['low holistic'],['left'],['upright'],['U0346.bmp'],['female'],[[2]],['female'],[[1]],[[0.11888724]],JX
80,[[12]],[[81]],[[18]],['high holistic'],['left'],['upright'],['U0359.bmp'],['male'],[[6]],['female'],[[0]],[[0.00223023]],JX
81,[[12]],[[82]],[[17]],['low holistic'],['left'],['inverted'],['U0346.bmp'],['female'],[[6]],['female'],[[1]],[[0.03419419]],JX
82,[[12]],[[83]],[[19]],['high holistic'],['right'],['upright'],['U0361.bmp'],['female'],[[4]],['female'],[[1]],[[0.12845866]],JX
83,[[12]],[[84]],[[7]],['low holistic'],['right'],['upright'],['U0107.bmp'],['female'],[[6]],['female'],[[1]],[[1.28364031]],JX
84,[[12]],[[85]],[[11]],['low holistic'],['left'],['upright'],['U0164.bmp'],['female'],[[6]],['female'],[[1]],[[0.00010137]],JX
85,[[12]],[[86]],[[3]],['low holistic'],['right'],['inverted'],['U0020.bmp'],['female'],[[10]],['female'],[[1]],[[0.16166386]],JX
86,[[12]],[[87]],[[14]],['high holistic'],['right'],['inverted'],['U0228.bmp'],['male'],[[10]],['female'],[[0]],[[0.00012282]],JX
87,[[12]],[[88]],[[9]],['high holistic'],['right'],['inverted'],['U0155.bmp'],['female'],[[6]],['female'],[[1]],[[0.25739921]],JX
88,[[12]],[[89]],[[3]],['high holistic'],['left'],['inverted'],['U0020.bmp'],['male'],[[8]],['male'],[[1]],[[0.22460575]],JX
89,[[12]],[[90]],[[1]],['low holistic'],['left'],['upright'],['U0006.bmp'],['female'],[[12]],['female'],[[1]],[[0.00042795]],JX
90,[[12]],[[91]],[[13]],['low holistic'],['right'],['inverted'],['U0181.bmp'],['male'],[[8]],['male'],[[1]],[[0.19914657]],JX
91,[[12]],[[92]],[[17]],['high holistic'],['left'],['inverted'],['U0346.bmp'],['male'],[[2]],['male'],[[1]],[[0.14194961]],JX
92,[[12]],[[93]],[[20]],['high holistic'],['right'],['inverted'],['U0362.bmp'],['female'],[[4]],['male'],[[0]],[[0.16248422]],JX
93,[[12]],[[94]],[[10]],['low holistic'],['right'],['inverted'],['U0159.bmp'],['female'],[[12]],['male'],[[0]],[[0.09196628]],JX
94,[[12]],[[95]],[[5]],['high holistic'],['right'],['upright'],['U0076.bmp'],['female'],[[4]],['female'],[[1]],[[1.41649934]],JX
95,[[12]],[[96]],[[7]],['high holistic'],['left'],['upright'],['U0107.bmp'],['female'],[[10]],['female'],[[1]],[[0.11080689]],JX
96,[[12]],[[97]],[[7]],['low holistic'],['left'],['inverted'],['U0107.bmp'],['female'],[[8]],['female'],[[1]],[[0.05947697]],JX
97,[[12]],[[98]],[[13]],['low holistic'],['left'],['upright'],['U0181.bmp'],['male'],[[6]],['male'],[[1]],[[0.00024988]],JX
98,[[12]],[[99]],[[15]],['high holistic'],['left'],['upright'],['U0312.bmp'],['male'],[[2]],['male'],[[1]],[[0.19243368]],JX
99,[[12]],[[100]],[[19]],['low holistic'],['right'],['upright'],['U0361.bmp'],['female'],[[10]],['female'],[[1]],[[0.08978475]],JX
100,[[12]],[[101]],[[16]],['high holistic'],['left'],['inverted'],['U0335.bmp'],['female'],[[2]],['female'],[[1]],[[0.13222679]],JX
101,[[12]],[[102]],[[9]],['low holistic'],['right'],['inverted'],['U0155.bmp'],['male'],[[12]],['female'],[[0]],[[0.00012269]],JX
102,[[12]],[[103]],[[4]],['high holistic'],['right'],['inverted'],['U0061.bmp'],['female'],[[6]],['female'],[[1]],[[9.88645479e-05]],JX
103,[[12]],[[104]],[[8]],['high holistic'],['right'],['inverted'],['U0137.bmp'],['female'],[[10]],['female'],[[1]],[[0.19286464]],JX
104,[[12]],[[105]],[[2]],['high holistic'],['fovea'],['inverted'],['U0014.bmp'],['male'],[[0]],['female'],[[0]],[[0.08742436]],JX
105,[[12]],[[106]],[[18]],['low holistic'],['right'],['upright'],['U0359.bmp'],['male'],[[6]],['male'],[[1]],[[0.19769645]],JX
106,[[12]],[[107]],[[5]],['low holistic'],['left'],['inverted'],['U0076.bmp'],['male'],[[2]],['male'],[[1]],[[0.02137206]],JX
107,[[12]],[[108]],[[17]],['low holistic'],['left'],['inverted'],['U0346.bmp'],['female'],[[4]],['male'],[[0]],[[0.0001009]],JX
108,[[12]],[[109]],[[2]],['high holistic'],['right'],['upright'],['U0014.bmp'],['male'],[[10]],['male'],[[1]],[[0.00010758]],JX
109,[[12]],[[110]],[[12]],['low holistic'],['left'],['inverted'],['U0178.bmp'],['female'],[[8]],['male'],[[0]],[[1.06058236]],JX
110,[[12]],[[111]],[[8]],['low holistic'],['left'],['upright'],['U0137.bmp'],['male'],[[2]],['male'],[[1]],[[0.04123951]],JX
111,[[12]],[[112]],[[15]],['low holistic'],['left'],['inverted'],['U0312.bmp'],['male'],[[8]],['male'],[[1]],[[0.07937408]],JX
112,[[12]],[[113]],[[15]],['low holistic'],['left'],['upright'],['U0312.bmp'],['male'],[[10]],['male'],[[1]],[[0.18866239]],JX
113,[[12]],[[114]],[[13]],['high holistic'],['left'],['upright'],['U0181.bmp'],['female'],[[2]],['female'],[[1]],[[0.94781054]],JX
114,[[12]],[[115]],[[11]],['high holistic'],['left'],['inverted'],['U0164.bmp'],['female'],[[6]],['male'],[[0]],[[0.15980886]],JX
115,[[12]],[[116]],[[2]],['high holistic'],['left'],['inverted'],['U0014.bmp'],['male'],[[6]],['male'],[[1]],[[0.0092943]],JX
116,[[12]],[[117]],[[14]],['low holistic'],['left'],['inverted'],['U0228.bmp'],['male'],[[6]],['male'],[[1]],[[1.78479025]],JX
117,[[12]],[[118]],[[16]],['low holistic'],['left'],['upright'],['U0335.bmp'],['female'],[[10]],['female'],[[1]],[[0.10425528]],JX
118,[[12]],[[119]],[[13]],['low holistic'],['left'],['upright'],['U0181.bmp'],['male'],[[12]],['female'],[[0]],[[0.43758933]],JX
119,[[12]],[[120]],[[2]],['low holistic'],['left'],['upright'],['U0014.bmp'],['male'],[[2]],['male'],[[1]],[[0.09063506]],JX
120,[[12]],[[121]],[[20]],['high holistic'],['left'],['inverted'],['U0362.bmp'],['female'],[[6]],['female'],[[1]],[[0.00017967]],JX
121,[[12]],[[122]],[[19]],['low holistic'],['left'],['inverted'],['U0361.bmp'],['female'],[[12]],['female'],[[1]],[[0.05623533]],JX
122,[[12]],[[123]],[[2]],['high holistic'],['left'],['inverted'],['U0014.bmp'],['male'],[[10]],['female'],[[0]],[[0.10953443]],JX
123,[[12]],[[124]],[[5]],['high holistic'],['right'],['upright'],['U0076.bmp'],['female'],[[2]],['female'],[[1]],[[0.02530408]],JX
124,[[12]],[[125]],[[10]],['low holistic'],['left'],['inverted'],['U0159.bmp'],['female'],[[2]],['female'],[[1]],[[0.00010053]],JX
125,[[12]],[[126]],[[17]],['low holistic'],['right'],['upright'],['U0346.bmp'],['female'],[[12]],['female'],[[1]],[[0.01560917]],JX
126,[[12]],[[127]],[[10]],['low holistic'],['right'],['upright'],['U0159.bmp'],['female'],[[10]],['female'],[[1]],[[0.01507988]],JX
127,[[12]],[[128]],[[6]],['low holistic'],['left'],['inverted'],['U0106.bmp'],['male'],[[4]],['male'],[[1]],[[0.00019644]],JX
128,[[12]],[[129]],[[4]],['low holistic'],['left'],['upright'],['U0061.bmp'],['female'],[[10]],['female'],[[1]],[[1.26170208]],JX
129,[[12]],[[130]],[[10]],['high holistic'],['left'],['upright'],['U0159.bmp'],['male'],[[8]],['male'],[[1]],[[0.36489568]],JX
130,[[12]],[[131]],[[3]],['high holistic'],['left'],['upright'],['U0020.bmp'],['male'],[[4]],['male'],[[1]],[[0.32762596]],JX
131,[[12]],[[132]],[[18]],['high holistic'],['right'],['upright'],['U0359.bmp'],['male'],[[8]],['female'],[[0]],[[0.01747397]],JX
132,[[12]],[[133]],[[12]],['low holistic'],['left'],['upright'],['U0178.bmp'],['female'],[[12]],['female'],[[1]],[[0.00010962]],JX
133,[[12]],[[134]],[[5]],['high holistic'],['left'],['upright'],['U0076.bmp'],['female'],[[10]],['female'],[[1]],[[0.16013828]],JX
134,[[12]],[[135]],[[4]],['high holistic'],['left'],['inverted'],['U0061.bmp'],['female'],[[6]],['female'],[[1]],[[0.04985562]],JX
135,[[12]],[[136]],[[11]],['low holistic'],['right'],['upright'],['U0164.bmp'],['female'],[[6]],['female'],[[1]],[[0.0001011]],JX
136,[[12]],[[137]],[[8]],['high holistic'],['right'],['inverted'],['U0137.bmp'],['female'],[[4]],['male'],[[0]],[[0.05695187]],JX
137,[[12]],[[138]],[[12]],['low holistic'],['left'],['inverted'],['U0178.bmp'],['female'],[[8]],['female'],[[1]],[[0.18210375]],JX
138,[[12]],[[139]],[[16]],['high holistic'],['right'],['inverted'],['U0335.bmp'],['female'],[[8]],['male'],[[0]],[[0.04682976]],JX
139,[[12]],[[140]],[[3]],['high holistic'],['left'],['upright'],['U0020.bmp'],['male'],[[10]],['female'],[[0]],[[0.00010062]],JX
140,[[12]],[[141]],[[6]],['low holistic'],['left'],['inverted'],['U0106.bmp'],['male'],[[4]],['female'],[[0]],[[0.00010057]],JX
141,[[12]],[[142]],[[12]],['low holistic'],['fovea'],['inverted'],['U0178.bmp'],['female'],[[0]],['female'],[[1]],[[1.20595862]],JX
142,[[12]],[[143]],[[12]],['low holistic'],['right'],['inverted'],['U0178.bmp'],['female'],[[6]],['female'],[[1]],[[0.00021461]],JX
143,[[12]],[[144]],[[12]],['low holistic'],['left'],['upright'],['U0178.bmp'],['female'],[[12]],['female'],[[1]],[[9.89967957e-05]],JX
144,[[12]],[[145]],[[15]],['low holistic'],['right'],['upright'],['U0312.bmp'],['male'],[[8]],['male'],[[1]],[[0.000118]],JX
145,[[12]],[[146]],[[13]],['low holistic'],['left'],['upright'],['U0181.bmp'],['male'],[[10]],['male'],[[1]],[[1.13565878]],JX
146,[[12]],[[147]],[[1]],['low holistic'],['right'],['inverted'],['U0006.bmp'],['female'],[[12]],['female'],[[1]],[[0.14550209]],JX
147,[[12]],[[148]],[[12]],['low holistic'],['right'],['upright'],['U0178.bmp'],['female'],[[6]],['female'],[[1]],[[0.00010588]],JX
148,[[12]],[[149]],[[14]],['high holistic'],['right'],['inverted'],['U0228.bmp'],['male'],[[12]],['female'],[[0]],[[0.05209044]],JX
149,[[12]],[[150]],[[18]],['high holistic'],['right'],['inverted'],['U0359.bmp'],['male'],[[6]],['male'],[[1]],[[0.00010865]],JX
150,[[12]],[[151]],[[11]],['high holistic'],['right'],['upright'],['U0164.bmp'],['female'],[[6]],['male'],[[0]],[[0.00046026]],JX
151,[[12]],[[152]],[[3]],['low holistic'],['left'],['inverted'],['U0020.bmp'],['female'],[[4]],['female'],[[1]],[[0.074021]],JX
152,[[12]],[[153]],[[1]],['high holistic'],['left'],['upright'],['U0006.bmp'],['female'],[[10]],['female'],[[1]],[[0.03297908]],JX
153,[[12]],[[154]],[[10]],['low holistic'],['left'],['inverted'],['U0159.bmp'],['female'],[[10]],['female'],[[1]],[[0.00010657]],JX
154,[[12]],[[155]],[[9]],['low holistic'],['right'],['upright'],['U0155.bmp'],['male'],[[4]],['male'],[[1]],[[0.00012988]],JX
155,[[12]],[[156]],[[3]],['low holistic'],['right'],['inverted'],['U0020.bmp'],['female'],[[6]],['female'],[[1]],[[0.02973924]],JX
156,[[12]],[[157]],[[15]],['low holistic'],['right'],['upright'],['U0312.bmp'],['male'],[[8]],['male'],[[1]],[[0.02878439]],JX
157,[[12]],[[158]],[[5]],['high holistic'],['left'],['upright'],['U0076.bmp'],['female'],[[12]],['female'],[[1]],[[0.06924058]],JX
158,[[12]],[[159]],[[16]],['high holistic'],['fovea'],['upright'],['U0335.bmp'],['female'],[[0]],['female'],[[1]],[[0.00010076]],JX
159,[[12]],[[160]],[[1]],['low holistic'],['left'],['upright'],['U0006.bmp'],['female'],[[10]],['female'],[[1]],[[0.07263398]],JX
160,[[12]],[[161]],[[7]],['low holistic'],['right'],['upright'],['U0107.bmp'],['female'],[[8]],['female'],[[1]],[[0.0047813]],JX
161,[[12]],[[162]],[[5]],['high holistic'],['right'],['inverted'],['U0076.bmp'],['female'],[[2]],['male'],[[0]],[[0.04646632]],JX
162,[[12]],[[163]],[[9]],['high holistic'],['fovea'],['inverted'],['U0155.bmp'],['female'],[[0]],['female'],[[1]],[[0.21987957]],JX
163,[[12]],[[164]],[[10]],['high holistic'],['right'],['inverted'],['U0159.bmp'],['male'],[[8]],['male'],[[1]],[[0.06733463]],JX
164,[[12]],[[165]],[[9]],['high holistic'],['left'],['inverted'],['U0155.bmp'],['female'],[[10]],['male'],[[0]],[[0.02484801]],JX
165,[[12]],[[166]],[[17]],['low holistic'],['left'],['inverted'],['U0346.bmp'],['female'],[[4]],['female'],[[1]],[[0.04752028]],JX
166,[[12]],[[167]],[[20]],['high holistic'],['left'],['inverted'],['U0362.bmp'],['female'],[[10]],['female'],[[1]],[[0.2369683]],JX
167,[[12]],[[168]],[[10]],['high holistic'],['right'],['upright'],['U0159.bmp'],['male'],[[4]],['male'],[[1]],[[0.08358419]],JX
168,[[12]],[[169]],[[9]],['low holistic'],['right'],['inverted'],['U0155.bmp'],['male'],[[12]],['female'],[[0]],[[0.08784963]],JX
169,[[12]],[[170]],[[18]],['low holistic'],['left'],['inverted'],['U0359.bmp'],['male'],[[12]],['female'],[[0]],[[0.3729966]],JX
170,[[12]],[[171]],[[14]],['high holistic'],['right'],['upright'],['U0228.bmp'],['male'],[[8]],['male'],[[1]],[[0.45324707]],JX
171,[[12]],[[172]],[[4]],['low holistic'],['left'],['inverted'],['U0061.bmp'],['female'],[[8]],['female'],[[1]],[[0.02859457]],JX
172,[[12]],[[173]],[[13]],['low holistic'],['right'],['inverted'],['U0181.bmp'],['male'],[[12]],['male'],[[1]],[[0.00011015]],JX
173,[[12]],[[174]],[[14]],['low holistic'],['right'],['upright'],['U0228.bmp'],['male'],[[2]],['male'],[[1]],[[0.00011086]],JX
174,[[12]],[[175]],[[6]],['low holistic'],['left'],['upright'],['U0106.bmp'],['male'],[[6]],['male'],[[1]],[[0.00016544]],JX
175,[[12]],[[176]],[[10]],['low holistic'],['left'],['upright'],['U0159.bmp'],['female'],[[10]],['male'],[[0]],[[0.0003115]],JX
176,[[12]],[[177]],[[4]],['low holistic'],['right'],['inverted'],['U0061.bmp'],['female'],[[12]],['female'],[[1]],[[0.2353178]],JX
177,[[12]],[[178]],[[7]],['high holistic'],['right'],['inverted'],['U0107.bmp'],['female'],[[4]],['female'],[[1]],[[3.44200776]],JX
178,[[12]],[[179]],[[19]],['high holistic'],['fovea'],['inverted'],['U0361.bmp'],['female'],[[0]],['male'],[[0]],[[0.03297312]],JX
179,[[12]],[[180]],[[1]],['low holistic'],['right'],['upright'],['U0006.bmp'],['female'],[[8]],['male'],[[0]],[[1.84012734]],JX
180,[[12]],[[181]],[[11]],['high holistic'],['left'],['inverted'],['U0164.bmp'],['female'],[[12]],['male'],[[0]],[[0.05221976]],JX
181,[[12]],[[182]],[[11]],['high holistic'],['right'],['inverted'],['U0164.bmp'],['female'],[[4]],['female'],[[1]],[[0.81026414]],JX
182,[[12]],[[183]],[[12]],['low holistic'],['right'],['upright'],['U0178.bmp'],['female'],[[4]],['female'],[[1]],[[0.23463133]],JX
183,[[12]],[[184]],[[15]],['low holistic'],['right'],['inverted'],['U0312.bmp'],['male'],[[12]],['male'],[[1]],[[0.62513009]],JX
184,[[12]],[[185]],[[8]],['low holistic'],['right'],['inverted'],['U0137.bmp'],['male'],[[2]],['male'],[[1]],[[0.31912369]],JX
185,[[12]],[[186]],[[17]],['high holistic'],['left'],['upright'],['U0346.bmp'],['male'],[[2]],['male'],[[1]],[[0.01204477]],JX
186,[[12]],[[187]],[[13]],['high holistic'],['left'],['upright'],['U0181.bmp'],['female'],[[4]],['male'],[[0]],[[0.00031159]],JX
187,[[12]],[[188]],[[19]],['low holistic'],['left'],['upright'],['U0361.bmp'],['female'],[[8]],['female'],[[1]],[[0.10661237]],JX
188,[[12]],[[189]],[[20]],['high holistic'],['left'],['inverted'],['U0362.bmp'],['female'],[[4]],['male'],[[0]],[[0.00629462]],JX
189,[[12]],[[190]],[[20]],['low holistic'],['fovea'],['inverted'],['U0362.bmp'],['male'],[[0]],['female'],[[0]],[[0.07083792]],JX
190,[[12]],[[191]],[[5]],['low holistic'],['left'],['inverted'],['U0076.bmp'],['male'],[[10]],['female'],[[0]],[[0.05881513]],JX
191,[[12]],[[192]],[[9]],['low holistic'],['left'],['inverted'],['U0155.bmp'],['male'],[[2]],['male'],[[1]],[[0.00010035]],JX
192,[[12]],[[193]],[[18]],['low holistic'],['left'],['upright'],['U0359.bmp'],['male'],[[12]],['male'],[[1]],[[0.06472656]],JX
193,[[12]],[[194]],[[8]],['low holistic'],['right'],['upright'],['U0137.bmp'],['male'],[[6]],['male'],[[1]],[[0.03984831]],JX
194,[[12]],[[195]],[[3]],['low holistic'],['left'],['inverted'],['U0020.bmp'],['female'],[[4]],['female'],[[1]],[[0.00010033]],JX
195,[[12]],[[196]],[[8]],['low holistic'],['right'],['upright'],['U0137.bmp'],['male'],[[12]],['male'],[[1]],[[0.1579192]],JX
196,[[12]],[[197]],[[17]],['high holistic'],['left'],['upright'],['U0346.bmp'],['male'],[[8]],['male'],[[1]],[[0.16784434]],JX
197,[[12]],[[198]],[[6]],['high holistic'],['left'],['inverted'],['U0106.bmp'],['female'],[[2]],['male'],[[0]],[[0.18544093]],JX
198,[[12]],[[199]],[[5]],['low holistic'],['right'],['inverted'],['U0076.bmp'],['male'],[[2]],['male'],[[1]],[[0.04069628]],JX
199,[[12]],[[200]],[[18]],['high holistic'],['left'],['upright'],['U0359.bmp'],['male'],[[6]],['male'],[[1]],[[0.10229725]],JX
200,[[12]],[[201]],[[20]],['high holistic'],['right'],['inverted'],['U0362.bmp'],['female'],[[12]],['male'],[[0]],[[0.00010065]],JX
201,[[12]],[[202]],[[16]],['high holistic'],['right'],['inverted'],['U0335.bmp'],['female'],[[10]],['male'],[[0]],[[0.00019397]],JX
202,[[12]],[[203]],[[3]],['low holistic'],['right'],['upright'],['U0020.bmp'],['female'],[[8]],['male'],[[0]],[[1.99653564]],JX
203,[[12]],[[204]],[[10]],['high holistic'],['right'],['inverted'],['U0159.bmp'],['male'],[[2]],['female'],[[0]],[[2.57876591]],JX
204,[[12]],[[205]],[[19]],['low holistic'],['left'],['upright'],['U0361.bmp'],['female'],[[10]],['female'],[[1]],[[0.0001021]],JX
205,[[12]],[[206]],[[11]],['low holistic'],['left'],['upright'],['U0164.bmp'],['female'],[[10]],['female'],[[1]],[[0.00010215]],JX
206,[[12]],[[207]],[[17]],['high holistic'],['right'],['upright'],['U0346.bmp'],['male'],[[8]],['male'],[[1]],[[0.06807833]],JX
207,[[12]],[[208]],[[10]],['low holistic'],['left'],['upright'],['U0159.bmp'],['female'],[[4]],['female'],[[1]],[[0.05816845]],JX
208,[[12]],[[209]],[[2]],['low holistic'],['right'],['upright'],['U0014.bmp'],['male'],[[2]],['male'],[[1]],[[1.66345048]],JX
209,[[12]],[[210]],[[6]],['low holistic'],['left'],['upright'],['U0106.bmp'],['male'],[[4]],['male'],[[1]],[[0.15567532]],JX
210,[[12]],[[211]],[[12]],['low holistic'],['left'],['inverted'],['U0178.bmp'],['female'],[[10]],['female'],[[1]],[[1.99640825]],JX
211,[[12]],[[212]],[[18]],['high holistic'],['right'],['inverted'],['U0359.bmp'],['male'],[[2]],['male'],[[1]],[[0.92454303]],JX
212,[[12]],[[213]],[[12]],['low holistic'],['right'],['upright'],['U0178.bmp'],['female'],[[4]],['female'],[[1]],[[0.04768588]],JX
213,[[12]],[[214]],[[6]],['high holistic'],['right'],['inverted'],['U0106.bmp'],['female'],[[2]],['female'],[[1]],[[0.46322083]],JX
214,[[12]],[[215]],[[14]],['high holistic'],['right'],['inverted'],['U0228.bmp'],['male'],[[2]],['male'],[[1]],[[0.18734112]],JX
215,[[12]],[[216]],[[2]],['high holistic'],['right'],['inverted'],['U0014.bmp'],['male'],[[10]],['female'],[[0]],[[0.22785805]],JX
216,[[12]],[[217]],[[16]],['high holistic'],['right'],['inverted'],['U0335.bmp'],['female'],[[2]],['male'],[[0]],[[0.16242923]],JX
217,[[12]],[[218]],[[12]],['high holistic'],['right'],['upright'],['U0178.bmp'],['male'],[[12]],['male'],[[1]],[[0.10181467]],JX
218,[[12]],[[219]],[[11]],['low holistic'],['left'],['inverted'],['U0164.bmp'],['female'],[[4]],['female'],[[1]],[[0.12963204]],JX
219,[[12]],[[220]],[[13]],['high holistic'],['right'],['inverted'],['U0181.bmp'],['female'],[[10]],['female'],[[1]],[[0.11634479]],JX
220,[[12]],[[221]],[[12]],['low holistic'],['left'],['inverted'],['U0178.bmp'],['female'],[[12]],['female'],[[1]],[[0.93580818]],JX
221,[[12]],[[222]],[[16]],['high holistic'],['left'],['inverted'],['U0335.bmp'],['female'],[[8]],['male'],[[0]],[[0.28254452]],JX
222,[[12]],[[223]],[[3]],['low holistic'],['right'],['inverted'],['U0020.bmp'],['female'],[[6]],['female'],[[1]],[[0.00020028]],JX
223,[[12]],[[224]],[[5]],['high holistic'],['right'],['upright'],['U0076.bmp'],['female'],[[6]],['female'],[[1]],[[0.27889885]],JX
224,[[12]],[[225]],[[7]],['high holistic'],['right'],['upright'],['U0107.bmp'],['female'],[[4]],['female'],[[1]],[[0.00010018]],JX
225,[[12]],[[226]],[[17]],['high holistic'],['right'],['upright'],['U0346.bmp'],['male'],[[8]],['male'],[[1]],[[0.05875724]],JX
226,[[12]],[[227]],[[10]],['low holistic'],['right'],['upright'],['U0159.bmp'],['female'],[[8]],['female'],[[1]],[[0.10551382]],JX
227,[[12]],[[228]],[[7]],['low holistic'],['left'],['upright'],['U0107.bmp'],['female'],[[6]],['female'],[[1]],[[0.3566521]],JX
228,[[12]],[[229]],[[11]],['low holistic'],['right'],['inverted'],['U0164.bmp'],['female'],[[4]],['female'],[[1]],[[0.2552622]],JX
229,[[12]],[[230]],[[3]],['high holistic'],['left'],['upright'],['U0020.bmp'],['male'],[[10]],['male'],[[1]],[[0.35710665]],JX
230,[[12]],[[231]],[[18]],['low holistic'],['right'],['inverted'],['U0359.bmp'],['male'],[[4]],['male'],[[1]],[[0.06990019]],JX
231,[[12]],[[232]],[[16]],['high holistic'],['right'],['upright'],['U0335.bmp'],['female'],[[10]],['female'],[[1]],[[1.25796158]],JX
232,[[12]],[[233]],[[6]],['high holistic'],['right'],['upright'],['U0106.bmp'],['female'],[[2]],['female'],[[1]],[[0.04933002]],JX
233,[[12]],[[234]],[[14]],['low holistic'],['left'],['inverted'],['U0228.bmp'],['male'],[[12]],['male'],[[1]],[[0.02171111]],JX
234,[[12]],[[235]],[[11]],['low holistic'],['left'],['inverted'],['U0164.bmp'],['female'],[[8]],['female'],[[1]],[[0.13277267]],JX
235,[[12]],[[236]],[[12]],['high holistic'],['left'],['inverted'],['U0178.bmp'],['male'],[[2]],['female'],[[0]],[[0.00718065]],JX
236,[[12]],[[237]],[[8]],['low holistic'],['right'],['inverted'],['U0137.bmp'],['male'],[[4]],['male'],[[1]],[[0.1990867]],JX
237,[[12]],[[238]],[[12]],['high holistic'],['right'],['inverted'],['U0178.bmp'],['male'],[[8]],['male'],[[1]],[[0.37590314]],JX
238,[[12]],[[239]],[[4]],['high holistic'],['fovea'],['inverted'],['U0061.bmp'],['female'],[[0]],['male'],[[0]],[[0.03166659]],JX
239,[[12]],[[240]],[[1]],['high holistic'],['right'],['upright'],['U0006.bmp'],['female'],[[12]],['female'],[[1]],[[0.15066156]],JX
240,[[12]],[[241]],[[14]],['low holistic'],['right'],['upright'],['U0228.bmp'],['male'],[[8]],['male'],[[1]],[[1.28175829]],JX
241,[[12]],[[242]],[[14]],['low holistic'],['right'],['inverted'],['U0228.bmp'],['male'],[[10]],['male'],[[1]],[[0.02965257]],JX
242,[[12]],[[243]],[[1]],['low holistic'],['left'],['upright'],['U0006.bmp'],['female'],[[2]],['female'],[[1]],[[0.00010797]],JX
243,[[12]],[[244]],[[1]],['low holistic'],['left'],['upright'],['U0006.bmp'],['female'],[[2]],['female'],[[1]],[[1.47573907]],JX
244,[[12]],[[245]],[[17]],['low holistic'],['right'],['upright'],['U0346.bmp'],['female'],[[6]],['female'],[[1]],[[0.08068859]],JX
245,[[12]],[[246]],[[14]],['low holistic'],['right'],['inverted'],['U0228.bmp'],['male'],[[8]],['female'],[[0]],[[0.00010701]],JX
246,[[12]],[[247]],[[2]],['high holistic'],['right'],['upright'],['U0014.bmp'],['male'],[[6]],['male'],[[1]],[[0.28579811]],JX
247,[[12]],[[248]],[[13]],['high holistic'],['left'],['upright'],['U0181.bmp'],['female'],[[12]],['female'],[[1]],[[0.0987578]],JX
248,[[12]],[[249]],[[10]],['high holistic'],['left'],['upright'],['U0159.bmp'],['male'],[[4]],['male'],[[1]],[[0.29453893]],JX
249,[[12]],[[250]],[[5]],['low holistic'],['left'],['upright'],['U0076.bmp'],['male'],[[6]],['male'],[[1]],[[0.97054374]],JX
250,[[12]],[[251]],[[10]],['low holistic'],['right'],['inverted'],['U0159.bmp'],['female'],[[4]],['female'],[[1]],[[0.00019732]],JX
251,[[12]],[[252]],[[12]],['low holistic'],['left'],['upright'],['U0178.bmp'],['female'],[[10]],['female'],[[1]],[[0.43508814]],JX
252,[[12]],[[253]],[[10]],['low holistic'],['right'],['inverted'],['U0159.bmp'],['female'],[[8]],['female'],[[1]],[[0.00010119]],JX
253,[[12]],[[254]],[[8]],['low holistic'],['left'],['inverted'],['U0137.bmp'],['male'],[[2]],['male'],[[1]],[[0.01046665]],JX
254,[[12]],[[255]],[[1]],['low holistic'],['right'],['inverted'],['U0006.bmp'],['female'],[[10]],['male'],[[0]],[[0.00047694]],JX
255,[[12]],[[256]],[[9]],['low holistic'],['right'],['upright'],['U0155.bmp'],['male'],[[4]],['male'],[[1]],[[0.63385193]],JX
256,[[12]],[[257]],[[12]],['low holistic'],['left'],['upright'],['U0178.bmp'],['female'],[[4]],['female'],[[1]],[[0.00157855]],JX
257,[[12]],[[258]],[[13]],['low holistic'],['right'],['upright'],['U0181.bmp'],['male'],[[8]],['male'],[[1]],[[0.0726037]],JX
258,[[12]],[[259]],[[7]],['high holistic'],['left'],['upright'],['U0107.bmp'],['female'],[[6]],['female'],[[1]],[[0.13298818]],JX
259,[[12]],[[260]],[[15]],['low holistic'],['right'],['upright'],['U0312.bmp'],['male'],[[4]],['male'],[[1]],[[0.10537164]],JX
260,[[12]],[[261]],[[12]],['high holistic'],['left'],['upright'],['U0178.bmp'],['male'],[[6]],['male'],[[1]],[[0.34832956]],JX
261,[[12]],[[262]],[[9]],['high holistic'],['right'],['inverted'],['U0155.bmp'],['female'],[[10]],['male'],[[0]],[[0.23738485]],JX
262,[[12]],[[263]],[[18]],['low holistic'],['left'],['upright'],['U0359.bmp'],['male'],[[12]],['female'],[[0]],[[0.00487812]],JX
263,[[12]],[[264]],[[9]],['high holistic'],['fovea'],['upright'],['U0155.bmp'],['female'],[[0]],['male'],[[0]],[[0.05238333]],JX
264,[[12]],[[265]],[[13]],['low holistic'],['right'],['inverted'],['U0181.bmp'],['male'],[[4]],['male'],[[1]],[[0.28353445]],JX
265,[[12]],[[266]],[[10]],['high holistic'],['right'],['inverted'],['U0159.bmp'],['male'],[[4]],['male'],[[1]],[[0.09443607]],JX
266,[[12]],[[267]],[[12]],['high holistic'],['fovea'],['inverted'],['U0178.bmp'],['male'],[[0]],['male'],[[1]],[[0.19590512]],JX
267,[[12]],[[268]],[[6]],['high holistic'],['left'],['inverted'],['U0106.bmp'],['female'],[[10]],['male'],[[0]],[[0.00010036]],JX
268,[[12]],[[269]],[[5]],['high holistic'],['right'],['upright'],['U0076.bmp'],['female'],[[10]],['female'],[[1]],[[0.02010551]],JX
269,[[12]],[[270]],[[8]],['high holistic'],['left'],['upright'],['U0137.bmp'],['female'],[[10]],['female'],[[1]],[[0.11448833]],JX
270,[[12]],[[271]],[[2]],['high holistic'],['left'],['upright'],['U0014.bmp'],['male'],[[6]],['male'],[[1]],[[0.00054588]],JX
271,[[12]],[[272]],[[13]],['low holistic'],['right'],['inverted'],['U0181.bmp'],['male'],[[6]],['female'],[[0]],[[0.00010151]],JX
272,[[12]],[[273]],[[2]],['high holistic'],['left'],['upright'],['U0014.bmp'],['male'],[[8]],['male'],[[1]],[[0.00010327]],JX
273,[[12]],[[274]],[[7]],['high holistic'],['right'],['upright'],['U0107.bmp'],['female'],[[8]],['male'],[[0]],[[0.08468559]],JX
274,[[12]],[[275]],[[18]],['low holistic'],['left'],['inverted'],['U0359.bmp'],['male'],[[12]],['male'],[[1]],[[0.17979148]],JX
275,[[12]],[[276]],[[4]],['low holistic'],['right'],['upright'],['U0061.bmp'],['female'],[[2]],['female'],[[1]],[[0.12243432]],JX
276,[[12]],[[277]],[[16]],['low holistic'],['right'],['inverted'],['U0335.bmp'],['female'],[[8]],['male'],[[0]],[[0.89366913]],JX
277,[[12]],[[278]],[[19]],['low holistic'],['right'],['inverted'],['U0361.bmp'],['female'],[[8]],['male'],[[0]],[[0.25774732]],JX
278,[[12]],[[279]],[[18]],['low holistic'],['right'],['inverted'],['U0359.bmp'],['male'],[[6]],['male'],[[1]],[[9.91253182e-05]],JX
279,[[12]],[[280]],[[7]],['low holistic'],['left'],['inverted'],['U0107.bmp'],['female'],[[6]],['female'],[[1]],[[0.00013426]],JX
280,[[12]],[[281]],[[7]],['low holistic'],['left'],['upright'],['U0107.bmp'],['female'],[[10]],['female'],[[1]],[[0.00607314]],JX
281,[[12]],[[282]],[[8]],['high holistic'],['left'],['upright'],['U0137.bmp'],['female'],[[4]],['female'],[[1]],[[0.1595802]],JX
282,[[12]],[[283]],[[19]],['low holistic'],['right'],['inverted'],['U0361.bmp'],['female'],[[12]],['male'],[[0]],[[0.08106052]],JX
283,[[12]],[[284]],[[3]],['high holistic'],['right'],['inverted'],['U0020.bmp'],['male'],[[6]],['male'],[[1]],[[0.02015055]],JX
284,[[12]],[[285]],[[3]],['low holistic'],['left'],['inverted'],['U0020.bmp'],['female'],[[12]],['female'],[[1]],[[0.0002906]],JX
285,[[12]],[[286]],[[17]],['high holistic'],['left'],['upright'],['U0346.bmp'],['male'],[[8]],['female'],[[0]],[[0.00339001]],JX
286,[[12]],[[287]],[[15]],['low holistic'],['left'],['inverted'],['U0312.bmp'],['male'],[[8]],['female'],[[0]],[[0.00010119]],JX
287,[[12]],[[288]],[[13]],['high holistic'],['right'],['upright'],['U0181.bmp'],['female'],[[6]],['female'],[[1]],[[0.08303477]],JX
288,[[12]],[[289]],[[16]],['low holistic'],['right'],['inverted'],['U0335.bmp'],['female'],[[6]],['female'],[[1]],[[0.00011668]],JX
289,[[12]],[[290]],[[14]],['high holistic'],['left'],['upright'],['U0228.bmp'],['male'],[[12]],['female'],[[0]],[[0.00018691]],JX
290,[[12]],[[291]],[[18]],['high holistic'],['right'],['inverted'],['U0359.bmp'],['male'],[[10]],['female'],[[0]],[[0.00010121]],JX
291,[[12]],[[292]],[[5]],['low holistic'],['left'],['inverted'],['U0076.bmp'],['male'],[[2]],['female'],[[0]],[[9.99774784e-05]],JX
292,[[12]],[[293]],[[7]],['high holistic'],['left'],['inverted'],['U0107.bmp'],['female'],[[4]],['female'],[[1]],[[0.00010005]],JX
293,[[12]],[[294]],[[19]],['high holistic'],['left'],['inverted'],['U0361.bmp'],['female'],[[2]],['male'],[[0]],[[1.44766519]],JX
294,[[12]],[[295]],[[2]],['high holistic'],['right'],['upright'],['U0014.bmp'],['male'],[[8]],['male'],[[1]],[[0.00010124]],JX
295,[[12]],[[296]],[[11]],['low holistic'],['right'],['inverted'],['U0164.bmp'],['female'],[[4]],['female'],[[1]],[[1.10151488]],JX
296,[[12]],[[297]],[[12]],['high holistic'],['right'],['upright'],['U0178.bmp'],['male'],[[4]],['male'],[[1]],[[0.21833425]],JX
297,[[12]],[[298]],[[9]],['low holistic'],['right'],['inverted'],['U0155.bmp'],['male'],[[2]],['male'],[[1]],[[1.67498898]],JX
298,[[12]],[[299]],[[13]],['low holistic'],['left'],['inverted'],['U0181.bmp'],['male'],[[2]],['male'],[[1]],[[0.03109165]],JX
299,[[12]],[[300]],[[15]],['low holistic'],['left'],['upright'],['U0312.bmp'],['male'],[[6]],['male'],[[1]],[[0.02127431]],JX
300,[[12]],[[301]],[[10]],['high holistic'],['fovea'],['upright'],['U0159.bmp'],['male'],[[0]],['male'],[[1]],[[0.0003637]],JX
301,[[12]],[[302]],[[17]],['low holistic'],['left'],['upright'],['U0346.bmp'],['female'],[[10]],['female'],[[1]],[[0.69325411]],JX
302,[[12]],[[303]],[[1]],['low holistic'],['left'],['inverted'],['U0006.bmp'],['female'],[[10]],['female'],[[1]],[[0.23326889]],JX
303,[[12]],[[304]],[[19]],['low holistic'],['left'],['inverted'],['U0361.bmp'],['female'],[[6]],['male'],[[0]],[[0.03973955]],JX
304,[[12]],[[305]],[[1]],['low holistic'],['right'],['inverted'],['U0006.bmp'],['female'],[[2]],['male'],[[0]],[[9.97297466e-05]],JX
305,[[12]],[[306]],[[8]],['low holistic'],['right'],['inverted'],['U0137.bmp'],['male'],[[4]],['male'],[[1]],[[0.50091773]],JX
306,[[12]],[[307]],[[17]],['low holistic'],['fovea'],['inverted'],['U0346.bmp'],['female'],[[0]],['female'],[[1]],[[0.00016804]],JX
307,[[12]],[[308]],[[1]],['low holistic'],['right'],['inverted'],['U0006.bmp'],['female'],[[2]],['female'],[[1]],[[0.3298545]],JX
308,[[12]],[[309]],[[4]],['low holistic'],['left'],['upright'],['U0061.bmp'],['female'],[[10]],['female'],[[1]],[[0.06756011]],JX
309,[[12]],[[310]],[[12]],['high holistic'],['right'],['inverted'],['U0178.bmp'],['male'],[[12]],['male'],[[1]],[[0.29623306]],JX
310,[[12]],[[311]],[[2]],['high holistic'],['left'],['upright'],['U0014.bmp'],['male'],[[4]],['male'],[[1]],[[0.11799672]],JX
311,[[12]],[[312]],[[19]],['high holistic'],['left'],['upright'],['U0361.bmp'],['female'],[[12]],['male'],[[0]],[[0.11211277]],JX
312,[[12]],[[313]],[[11]],['low holistic'],['right'],['upright'],['U0164.bmp'],['female'],[[12]],['male'],[[0]],[[0.19682466]],JX
313,[[12]],[[314]],[[14]],['low holistic'],['left'],['inverted'],['U0228.bmp'],['male'],[[4]],['male'],[[1]],[[0.11632142]],JX
314,[[12]],[[315]],[[3]],['high holistic'],['left'],['inverted'],['U0020.bmp'],['male'],[[4]],['male'],[[1]],[[0.00038886]],JX
315,[[12]],[[316]],[[10]],['high holistic'],['left'],['inverted'],['U0159.bmp'],['male'],[[12]],['male'],[[1]],[[0.13659854]],JX
316,[[12]],[[317]],[[1]],['low holistic'],['left'],['inverted'],['U0006.bmp'],['female'],[[12]],['male'],[[0]],[[0.00012515]],JX
317,[[12]],[[318]],[[11]],['high holistic'],['left'],['upright'],['U0164.bmp'],['female'],[[2]],['female'],[[1]],[[0.08214826]],JX
318,[[12]],[[319]],[[9]],['high holistic'],['right'],['upright'],['U0155.bmp'],['female'],[[4]],['male'],[[0]],[[0.29514717]],JX
319,[[12]],[[320]],[[3]],['low holistic'],['left'],['inverted'],['U0020.bmp'],['female'],[[6]],['female'],[[1]],[[0.00010042]],JX
320,[[12]],[[321]],[[10]],['high holistic'],['right'],['upright'],['U0159.bmp'],['male'],[[12]],['male'],[[1]],[[0.46699832]],JX
321,[[12]],[[322]],[[8]],['low holistic'],['left'],['inverted'],['U0137.bmp'],['male'],[[6]],['male'],[[1]],[[0.37716519]],JX
322,[[12]],[[323]],[[5]],['high holistic'],['fovea'],['upright'],['U0076.bmp'],['female'],[[0]],['female'],[[1]],[[0.08843197]],JX
323,[[12]],[[324]],[[7]],['low holistic'],['left'],['inverted'],['U0107.bmp'],['female'],[[12]],['female'],[[1]],[[0.00012771]],JX
324,[[12]],[[325]],[[2]],['high holistic'],['left'],['inverted'],['U0014.bmp'],['male'],[[10]],['female'],[[0]],[[0.0857089]],JX
325,[[12]],[[326]],[[11]],['low holistic'],['right'],['upright'],['U0164.bmp'],['female'],[[4]],['female'],[[1]],[[0.09869652]],JX
326,[[12]],[[327]],[[13]],['low holistic'],['left'],['inverted'],['U0181.bmp'],['male'],[[6]],['female'],[[0]],[[0.00010864]],JX
327,[[12]],[[328]],[[14]],['high holistic'],['right'],['inverted'],['U0228.bmp'],['male'],[[12]],['male'],[[1]],[[0.39891543]],JX
328,[[12]],[[329]],[[5]],['high holistic'],['right'],['inverted'],['U0076.bmp'],['female'],[[6]],['male'],[[0]],[[0.00038568]],JX
329,[[12]],[[330]],[[11]],['low holistic'],['fovea'],['upright'],['U0164.bmp'],['female'],[[0]],['female'],[[1]],[[0.7419385]],JX
330,[[12]],[[331]],[[11]],['high holistic'],['left'],['inverted'],['U0164.bmp'],['female'],[[12]],['male'],[[0]],[[0.10593286]],JX
331,[[12]],[[332]],[[16]],['low holistic'],['fovea'],['upright'],['U0335.bmp'],['female'],[[0]],['female'],[[1]],[[0.08510587]],JX
332,[[12]],[[333]],[[10]],['high holistic'],['right'],['inverted'],['U0159.bmp'],['male'],[[8]],['male'],[[1]],[[0.31295099]],JX
333,[[12]],[[334]],[[13]],['low holistic'],['left'],['upright'],['U0181.bmp'],['male'],[[2]],['male'],[[1]],[[0.0001293]],JX
334,[[12]],[[335]],[[11]],['high holistic'],['left'],['inverted'],['U0164.bmp'],['female'],[[2]],['male'],[[0]],[[0.33897176]],JX
335,[[12]],[[336]],[[8]],['low holistic'],['left'],['upright'],['U0137.bmp'],['male'],[[4]],['male'],[[1]],[[0.00010774]],JX
336,[[12]],[[337]],[[17]],['low holistic'],['right'],['upright'],['U0346.bmp'],['female'],[[12]],['female'],[[1]],[[0.65526457]],JX
337,[[12]],[[338]],[[17]],['low holistic'],['right'],['upright'],['U0346.bmp'],['female'],[[2]],['female'],[[1]],[[0.05307436]],JX
338,[[12]],[[339]],[[15]],['high holistic'],['right'],['inverted'],['U0312.bmp'],['male'],[[10]],['male'],[[1]],[[0.29123982]],JX
339,[[12]],[[340]],[[3]],['high holistic'],['right'],['inverted'],['U0020.bmp'],['male'],[[8]],['male'],[[1]],[[0.00010686]],JX
340,[[12]],[[341]],[[17]],['low holistic'],['right'],['upright'],['U0346.bmp'],['female'],[[10]],['male'],[[0]],[[0.02951436]],JX
341,[[12]],[[342]],[[10]],['low holistic'],['left'],['inverted'],['U0159.bmp'],['female'],[[6]],['male'],[[0]],[[0.00010051]],JX
342,[[12]],[[343]],[[17]],['high holistic'],['fovea'],['upright'],['U0346.bmp'],['male'],[[0]],['male'],[[1]],[[0.27707982]],JX
343,[[12]],[[344]],[[13]],['low holistic'],['right'],['upright'],['U0181.bmp'],['male'],[[6]],['male'],[[1]],[[0.1439397]],JX
344,[[12]],[[345]],[[7]],['low holistic'],['right'],['inverted'],['U0107.bmp'],['female'],[[12]],['male'],[[0]],[[0.04293295]],JX
345,[[12]],[[346]],[[3]],['high holistic'],['left'],['inverted'],['U0020.bmp'],['male'],[[8]],['male'],[[1]],[[0.29807422]],JX
346,[[12]],[[347]],[[19]],['high holistic'],['left'],['inverted'],['U0361.bmp'],['female'],[[4]],['male'],[[0]],[[0.49300561]],JX
347,[[12]],[[348]],[[6]],['low holistic'],['left'],['inverted'],['U0106.bmp'],['male'],[[6]],['male'],[[1]],[[0.02572349]],JX
348,[[12]],[[349]],[[11]],['high holistic'],['right'],['upright'],['U0164.bmp'],['female'],[[2]],['male'],[[0]],[[0.14408015]],JX
349,[[12]],[[350]],[[12]],['high holistic'],['right'],['inverted'],['U0178.bmp'],['male'],[[4]],['male'],[[1]],[[9.99290496e-05]],JX
350,[[12]],[[351]],[[18]],['high holistic'],['right'],['upright'],['U0359.bmp'],['male'],[[6]],['male'],[[1]],[[0.11481566]],JX
351,[[12]],[[352]],[[14]],['low holistic'],['fovea'],['upright'],['U0228.bmp'],['male'],[[0]],['male'],[[1]],[[0.00025845]],JX
352,[[12]],[[353]],[[15]],['low holistic'],['right'],['upright'],['U0312.bmp'],['male'],[[8]],['male'],[[1]],[[0.00010526]],JX
353,[[12]],[[354]],[[1]],['low holistic'],['left'],['upright'],['U0006.bmp'],['female'],[[8]],['female'],[[1]],[[0.07754127]],JX
354,[[12]],[[355]],[[2]],['low holistic'],['fovea'],['upright'],['U0014.bmp'],['male'],[[0]],['male'],[[1]],[[0.16229707]],JX
355,[[12]],[[356]],[[2]],['low holistic'],['right'],['upright'],['U0014.bmp'],['male'],[[2]],['male'],[[1]],[[0.00010067]],JX
356,[[12]],[[357]],[[16]],['low holistic'],['right'],['inverted'],['U0335.bmp'],['female'],[[4]],['male'],[[0]],[[9.79807228e-05]],JX
357,[[12]],[[358]],[[6]],['high holistic'],['right'],['upright'],['U0106.bmp'],['female'],[[12]],['male'],[[0]],[[0.03489378]],JX
358,[[12]],[[359]],[[6]],['high holistic'],['left'],['inverted'],['U0106.bmp'],['female'],[[12]],['male'],[[0]],[[0.0752836]],JX
359,[[12]],[[360]],[[2]],['low holistic'],['left'],['upright'],['U0014.bmp'],['male'],[[8]],['female'],[[0]],[[0.00011945]],JX
360,[[12]],[[361]],[[20]],['high holistic'],['right'],['upright'],['U0362.bmp'],['female'],[[12]],['male'],[[0]],[[0.02998007]],JX
361,[[12]],[[362]],[[17]],['high holistic'],['left'],['inverted'],['U0346.bmp'],['male'],[[4]],['female'],[[0]],[[9.98973846e-05]],JX
362,[[12]],[[363]],[[5]],['high holistic'],['right'],['inverted'],['U0076.bmp'],['female'],[[6]],['male'],[[0]],[[0.23691462]],JX
363,[[12]],[[364]],[[7]],['high holistic'],['left'],['inverted'],['U0107.bmp'],['female'],[[2]],['female'],[[1]],[[0.00022269]],JX
364,[[12]],[[365]],[[9]],['high holistic'],['right'],['upright'],['U0155.bmp'],['female'],[[10]],['male'],[[0]],[[0.06744518]],JX
365,[[12]],[[366]],[[20]],['low holistic'],['left'],['inverted'],['U0362.bmp'],['male'],[[8]],['male'],[[1]],[[0.14426542]],JX
366,[[12]],[[367]],[[5]],['high holistic'],['right'],['upright'],['U0076.bmp'],['female'],[[8]],['male'],[[0]],[[0.11534614]],JX
367,[[12]],[[368]],[[12]],['low holistic'],['right'],['inverted'],['U0178.bmp'],['female'],[[8]],['female'],[[1]],[[0.00010125]],JX
368,[[12]],[[369]],[[14]],['low holistic'],['fovea'],['upright'],['U0228.bmp'],['male'],[[0]],['male'],[[1]],[[0.06233071]],JX
369,[[12]],[[370]],[[18]],['high holistic'],['right'],['inverted'],['U0359.bmp'],['male'],[[10]],['female'],[[0]],[[0.53253822]],JX
370,[[12]],[[371]],[[2]],['low holistic'],['right'],['inverted'],['U0014.bmp'],['male'],[[8]],['male'],[[1]],[[0.37414407]],JX
371,[[12]],[[372]],[[10]],['low holistic'],['left'],['upright'],['U0159.bmp'],['female'],[[4]],['female'],[[1]],[[0.12959055]],JX
372,[[12]],[[373]],[[10]],['high holistic'],['right'],['inverted'],['U0159.bmp'],['male'],[[12]],['male'],[[1]],[[0.0022215]],JX
373,[[12]],[[374]],[[16]],['low holistic'],['right'],['upright'],['U0335.bmp'],['female'],[[8]],['female'],[[1]],[[0.04315588]],JX
374,[[12]],[[375]],[[13]],['low holistic'],['left'],['upright'],['U0181.bmp'],['male'],[[4]],['male'],[[1]],[[0.11440657]],JX
375,[[12]],[[376]],[[12]],['low holistic'],['right'],['inverted'],['U0178.bmp'],['female'],[[10]],['female'],[[1]],[[0.00015133]],JX
376,[[12]],[[377]],[[16]],['high holistic'],['left'],['upright'],['U0335.bmp'],['female'],[[12]],['female'],[[1]],[[0.0851272]],JX
377,[[12]],[[378]],[[20]],['low holistic'],['right'],['upright'],['U0362.bmp'],['male'],[[4]],['male'],[[1]],[[0.00024945]],JX
378,[[12]],[[379]],[[9]],['low holistic'],['fovea'],['upright'],['U0155.bmp'],['male'],[[0]],['male'],[[1]],[[0.01687701]],JX
379,[[12]],[[380]],[[10]],['high holistic'],['left'],['upright'],['U0159.bmp'],['male'],[[12]],['male'],[[1]],[[0.00015928]],JX
380,[[12]],[[381]],[[16]],['low holistic'],['left'],['upright'],['U0335.bmp'],['female'],[[6]],['female'],[[1]],[[0.33668861]],JX
381,[[12]],[[382]],[[10]],['low holistic'],['fovea'],['inverted'],['U0159.bmp'],['female'],[[0]],['female'],[[1]],[[0.37031299]],JX
382,[[12]],[[383]],[[2]],['low holistic'],['right'],['inverted'],['U0014.bmp'],['male'],[[10]],['male'],[[1]],[[0.11638185]],JX
383,[[12]],[[384]],[[18]],['high holistic'],['right'],['upright'],['U0359.bmp'],['male'],[[12]],['male'],[[1]],[[0.03890362]],JX
384,[[12]],[[385]],[[18]],['high holistic'],['left'],['upright'],['U0359.bmp'],['male'],[[10]],['male'],[[1]],[[0.00012381]],JX
385,[[12]],[[386]],[[14]],['high holistic'],['left'],['inverted'],['U0228.bmp'],['male'],[[6]],['male'],[[1]],[[0.52489776]],JX
386,[[12]],[[387]],[[17]],['high holistic'],['left'],['inverted'],['U0346.bmp'],['male'],[[8]],['male'],[[1]],[[0.00026402]],JX
387,[[12]],[[388]],[[12]],['high holistic'],['left'],['inverted'],['U0178.bmp'],['male'],[[8]],['male'],[[1]],[[0.00011199]],JX
388,[[12]],[[389]],[[12]],['high holistic'],['right'],['upright'],['U0178.bmp'],['male'],[[10]],['male'],[[1]],[[0.000101]],JX
389,[[12]],[[390]],[[4]],['low holistic'],['right'],['inverted'],['U0061.bmp'],['female'],[[12]],['male'],[[0]],[[0.0079561]],JX
390,[[12]],[[391]],[[1]],['high holistic'],['right'],['upright'],['U0006.bmp'],['female'],[[6]],['male'],[[0]],[[0.35175822]],JX
391,[[12]],[[392]],[[6]],['low holistic'],['right'],['inverted'],['U0106.bmp'],['male'],[[2]],['female'],[[0]],[[0.00010005]],JX
392,[[12]],[[393]],[[15]],['low holistic'],['left'],['upright'],['U0312.bmp'],['male'],[[2]],['male'],[[1]],[[0.00010757]],JX
393,[[12]],[[394]],[[5]],['high holistic'],['left'],['upright'],['U0076.bmp'],['female'],[[4]],['female'],[[1]],[[0.38449711]],JX
394,[[12]],[[395]],[[13]],['high holistic'],['right'],['inverted'],['U0181.bmp'],['female'],[[12]],['male'],[[0]],[[0.06533175]],JX
395,[[12]],[[396]],[[16]],['low holistic'],['right'],['upright'],['U0335.bmp'],['female'],[[2]],['female'],[[1]],[[0.24715305]],JX
396,[[12]],[[397]],[[16]],['low holistic'],['right'],['upright'],['U0335.bmp'],['female'],[[12]],['female'],[[1]],[[0.39672162]],JX
397,[[12]],[[398]],[[8]],['low holistic'],['left'],['upright'],['U0137.bmp'],['male'],[[4]],['male'],[[1]],[[0.05357806]],JX
398,[[12]],[[399]],[[4]],['low holistic'],['right'],['upright'],['U0061.bmp'],['female'],[[10]],['male'],[[0]],[[0.05815272]],JX
399,[[12]],[[400]],[[7]],['high holistic'],['left'],['upright'],['U0107.bmp'],['female'],[[8]],['female'],[[1]],[[0.09546635]],JX
400,[[12]],[[401]],[[9]],['low holistic'],['left'],['upright'],['U0155.bmp'],['male'],[[10]],['male'],[[1]],[[0.00010768]],JX
401,[[12]],[[402]],[[6]],['high holistic'],['right'],['inverted'],['U0106.bmp'],['female'],[[10]],['female'],[[1]],[[0.00010008]],JX
402,[[12]],[[403]],[[2]],['high holistic'],['left'],['upright'],['U0014.bmp'],['male'],[[12]],['male'],[[1]],[[0.00013099]],JX
403,[[12]],[[404]],[[13]],['low holistic'],['right'],['inverted'],['U0181.bmp'],['male'],[[8]],['male'],[[1]],[[0.14675241]],JX
404,[[12]],[[405]],[[6]],['low holistic'],['right'],['upright'],['U0106.bmp'],['male'],[[12]],['male'],[[1]],[[9.93479043e-05]],JX
405,[[12]],[[406]],[[13]],['high holistic'],['right'],['upright'],['U0181.bmp'],['female'],[[8]],['male'],[[0]],[[9.96692106e-05]],JX
406,[[12]],[[407]],[[6]],['low holistic'],['right'],['inverted'],['U0106.bmp'],['male'],[[6]],['male'],[[1]],[[0.0439944]],JX
407,[[12]],[[408]],[[3]],['high holistic'],['left'],['inverted'],['U0020.bmp'],['male'],[[12]],['male'],[[1]],[[0.0001023]],JX
408,[[12]],[[409]],[[18]],['low holistic'],['left'],['upright'],['U0359.bmp'],['male'],[[8]],['male'],[[1]],[[0.05124873]],JX
409,[[12]],[[410]],[[17]],['low holistic'],['fovea'],['inverted'],['U0346.bmp'],['female'],[[0]],['male'],[[0]],[[9.99830663e-05]],JX
410,[[12]],[[411]],[[1]],['high holistic'],['left'],['upright'],['U0006.bmp'],['female'],[[2]],['male'],[[0]],[[0.00010076]],JX
411,[[12]],[[412]],[[3]],['high holistic'],['right'],['inverted'],['U0020.bmp'],['male'],[[2]],['male'],[[1]],[[0.00010091]],JX
412,[[12]],[[413]],[[18]],['high holistic'],['left'],['upright'],['U0359.bmp'],['male'],[[6]],['male'],[[1]],[[0.00010754]],JX
413,[[12]],[[414]],[[16]],['high holistic'],['left'],['inverted'],['U0335.bmp'],['female'],[[4]],['male'],[[0]],[[0.0001072]],JX
414,[[12]],[[415]],[[18]],['low holistic'],['right'],['inverted'],['U0359.bmp'],['male'],[[10]],['male'],[[1]],[[0.03897822]],JX
415,[[12]],[[416]],[[18]],['high holistic'],['right'],['inverted'],['U0359.bmp'],['male'],[[12]],['male'],[[1]],[[0.0001066]],JX
416,[[12]],[[417]],[[14]],['high holistic'],['right'],['inverted'],['U0228.bmp'],['male'],[[2]],['male'],[[1]],[[0.095401]],JX
417,[[12]],[[418]],[[1]],['high holistic'],['right'],['inverted'],['U0006.bmp'],['female'],[[10]],['male'],[[0]],[[0.03279989]],JX
418,[[12]],[[419]],[[17]],['low holistic'],['left'],['upright'],['U0346.bmp'],['female'],[[2]],['male'],[[0]],[[0.00010663]],JX
419,[[12]],[[420]],[[18]],['low holistic'],['right'],['upright'],['U0359.bmp'],['male'],[[2]],['male'],[[1]],[[1.01562707]],JX
420,[[12]],[[421]],[[11]],['high holistic'],['left'],['upright'],['U0164.bmp'],['female'],[[10]],['female'],[[1]],[[0.07197632]],JX
421,[[12]],[[422]],[[11]],['low holistic'],['right'],['inverted'],['U0164.bmp'],['female'],[[8]],['female'],[[1]],[[0.10130224]],JX
422,[[12]],[[423]],[[13]],['low holistic'],['right'],['upright'],['U0181.bmp'],['male'],[[6]],['male'],[[1]],[[0.1994375]],JX
423,[[12]],[[424]],[[1]],['high holistic'],['right'],['inverted'],['U0006.bmp'],['female'],[[8]],['male'],[[0]],[[0.03136202]],JX
424,[[12]],[[425]],[[6]],['high holistic'],['fovea'],['inverted'],['U0106.bmp'],['female'],[[0]],['male'],[[0]],[[0.38322453]],JX
425,[[12]],[[426]],[[1]],['low holistic'],['left'],['upright'],['U0006.bmp'],['female'],[[6]],['female'],[[1]],[[0.2317796]],JX
426,[[12]],[[427]],[[12]],['low holistic'],['left'],['inverted'],['U0178.bmp'],['female'],[[2]],['female'],[[1]],[[0.0059607]],JX
427,[[12]],[[428]],[[15]],['low holistic'],['left'],['upright'],['U0312.bmp'],['male'],[[4]],['male'],[[1]],[[0.00010131]],JX
428,[[12]],[[429]],[[9]],['low holistic'],['right'],['upright'],['U0155.bmp'],['male'],[[4]],['male'],[[1]],[[0.0680591]],JX
429,[[12]],[[430]],[[5]],['low holistic'],['right'],['inverted'],['U0076.bmp'],['male'],[[12]],['male'],[[1]],[[0.00010642]],JX
430,[[12]],[[431]],[[11]],['high holistic'],['left'],['inverted'],['U0164.bmp'],['female'],[[2]],['male'],[[0]],[[0.09646152]],JX
431,[[12]],[[432]],[[18]],['high holistic'],['right'],['upright'],['U0359.bmp'],['male'],[[6]],['male'],[[1]],[[0.21953538]],JX
432,[[12]],[[433]],[[19]],['high holistic'],['left'],['upright'],['U0361.bmp'],['female'],[[4]],['male'],[[0]],[[0.0001069]],JX
433,[[12]],[[434]],[[2]],['high holistic'],['right'],['upright'],['U0014.bmp'],['male'],[[2]],['male'],[[1]],[[0.04229908]],JX
434,[[12]],[[435]],[[6]],['low holistic'],['left'],['upright'],['U0106.bmp'],['male'],[[4]],['male'],[[1]],[[0.11262907]],JX
435,[[12]],[[436]],[[20]],['low holistic'],['right'],['inverted'],['U0362.bmp'],['male'],[[8]],['male'],[[1]],[[0.04425283]],JX
436,[[12]],[[437]],[[18]],['low holistic'],['right'],['upright'],['U0359.bmp'],['male'],[[10]],['male'],[[1]],[[9.86382365e-05]],JX
437,[[12]],[[438]],[[16]],['high holistic'],['right'],['inverted'],['U0335.bmp'],['female'],[[6]],['male'],[[0]],[[0.01756399]],JX
438,[[12]],[[439]],[[19]],['low holistic'],['left'],['inverted'],['U0361.bmp'],['female'],[[10]],['male'],[[0]],[[0.08068084]],JX
439,[[12]],[[440]],[[20]],['high holistic'],['right'],['upright'],['U0362.bmp'],['female'],[[8]],['male'],[[0]],[[0.00010047]],JX
440,[[12]],[[441]],[[13]],['low holistic'],['left'],['inverted'],['U0181.bmp'],['male'],[[6]],['male'],[[1]],[[9.97353345e-05]],JX
441,[[12]],[[442]],[[5]],['high holistic'],['right'],['upright'],['U0076.bmp'],['female'],[[10]],['female'],[[1]],[[0.41194358]],JX
442,[[12]],[[443]],[[17]],['high holistic'],['left'],['upright'],['U0346.bmp'],['male'],[[8]],['male'],[[1]],[[0.09940083]],JX
443,[[12]],[[444]],[[1]],['low holistic'],['left'],['inverted'],['U0006.bmp'],['female'],[[6]],['female'],[[1]],[[0.12760656]],JX
444,[[12]],[[445]],[[20]],['high holistic'],['right'],['upright'],['U0362.bmp'],['female'],[[6]],['female'],[[1]],[[0.09039445]],JX
445,[[12]],[[446]],[[9]],['low holistic'],['left'],['inverted'],['U0155.bmp'],['male'],[[8]],['male'],[[1]],[[0.08685385]],JX
446,[[12]],[[447]],[[1]],['low holistic'],['right'],['inverted'],['U0006.bmp'],['female'],[[2]],['female'],[[1]],[[0.00010888]],JX
447,[[12]],[[448]],[[1]],['high holistic'],['left'],['upright'],['U0006.bmp'],['female'],[[6]],['male'],[[0]],[[0.00010031]],JX
448,[[12]],[[449]],[[11]],['low holistic'],['left'],['inverted'],['U0164.bmp'],['female'],[[6]],['female'],[[1]],[[0.03410167]],JX
449,[[12]],[[450]],[[4]],['low holistic'],['right'],['inverted'],['U0061.bmp'],['female'],[[10]],['female'],[[1]],[[0.04831592]],JX
450,[[12]],[[451]],[[1]],['high holistic'],['right'],['inverted'],['U0006.bmp'],['female'],[[2]],['female'],[[1]],[[0.333069]],JX
451,[[12]],[[452]],[[10]],['high holistic'],['left'],['upright'],['U0159.bmp'],['male'],[[10]],['male'],[[1]],[[2.15955589]],JX
452,[[12]],[[453]],[[7]],['low holistic'],['right'],['upright'],['U0107.bmp'],['female'],[[12]],['female'],[[1]],[[0.1135649]],JX
453,[[12]],[[454]],[[3]],['low holistic'],['left'],['inverted'],['U0020.bmp'],['female'],[[2]],['female'],[[1]],[[0.13348905]],JX
454,[[12]],[[455]],[[11]],['high holistic'],['fovea'],['upright'],['U0164.bmp'],['female'],[[0]],['female'],[[1]],[[0.07974702]],JX
455,[[12]],[[456]],[[13]],['high holistic'],['right'],['inverted'],['U0181.bmp'],['female'],[[4]],['female'],[[1]],[[0.41842578]],JX
456,[[12]],[[457]],[[17]],['low holistic'],['fovea'],['upright'],['U0346.bmp'],['female'],[[0]],['female'],[[1]],[[0.12305541]],JX
457,[[12]],[[458]],[[1]],['low holistic'],['right'],['upright'],['U0006.bmp'],['female'],[[8]],['female'],[[1]],[[0.11040672]],JX
458,[[12]],[[459]],[[19]],['low holistic'],['right'],['upright'],['U0361.bmp'],['female'],[[4]],['female'],[[1]],[[0.00253326]],JX
459,[[12]],[[460]],[[19]],['low holistic'],['left'],['inverted'],['U0361.bmp'],['female'],[[4]],['female'],[[1]],[[0.07322699]],JX
460,[[12]],[[461]],[[17]],['high holistic'],['right'],['inverted'],['U0346.bmp'],['male'],[[6]],['female'],[[0]],[[0.02265048]],JX
461,[[12]],[[462]],[[11]],['high holistic'],['fovea'],['upright'],['U0164.bmp'],['female'],[[0]],['female'],[[1]],[[0.09997022]],JX
462,[[12]],[[463]],[[8]],['low holistic'],['right'],['upright'],['U0137.bmp'],['male'],[[2]],['male'],[[1]],[[0.70452181]],JX
463,[[12]],[[464]],[[7]],['low holistic'],['left'],['inverted'],['U0107.bmp'],['female'],[[10]],['female'],[[1]],[[0.13847736]],JX
464,[[12]],[[465]],[[11]],['high holistic'],['left'],['inverted'],['U0164.bmp'],['female'],[[2]],['male'],[[0]],[[0.22279489]],JX
465,[[12]],[[466]],[[9]],['high holistic'],['left'],['inverted'],['U0155.bmp'],['female'],[[6]],['female'],[[1]],[[0.29949302]],JX
466,[[12]],[[467]],[[14]],['low holistic'],['left'],['upright'],['U0228.bmp'],['male'],[[2]],['male'],[[1]],[[0.01596021]],JX
467,[[12]],[[468]],[[19]],['low holistic'],['right'],['inverted'],['U0361.bmp'],['female'],[[10]],['male'],[[0]],[[0.22845328]],JX
468,[[12]],[[469]],[[4]],['high holistic'],['left'],['inverted'],['U0061.bmp'],['female'],[[10]],['male'],[[0]],[[0.25297325]],JX
469,[[12]],[[470]],[[2]],['high holistic'],['right'],['upright'],['U0014.bmp'],['male'],[[10]],['male'],[[1]],[[0.06579858]],JX
470,[[12]],[[471]],[[3]],['high holistic'],['left'],['upright'],['U0020.bmp'],['male'],[[12]],['male'],[[1]],[[0.0874992]],JX
471,[[12]],[[472]],[[3]],['high holistic'],['left'],['inverted'],['U0020.bmp'],['male'],[[4]],['male'],[[1]],[[0.00010131]],JX
472,[[12]],[[473]],[[3]],['low holistic'],['left'],['upright'],['U0020.bmp'],['female'],[[2]],['female'],[[1]],[[0.00010032]],JX
473,[[12]],[[474]],[[2]],['low holistic'],['right'],['inverted'],['U0014.bmp'],['male'],[[12]],['male'],[[1]],[[9.88664106e-05]],JX
474,[[12]],[[475]],[[8]],['high holistic'],['right'],['inverted'],['U0137.bmp'],['female'],[[6]],['male'],[[0]],[[0.88188202]],JX
475,[[12]],[[476]],[[17]],['low holistic'],['right'],['upright'],['U0346.bmp'],['female'],[[10]],['male'],[[0]],[[0.31164681]],JX
476,[[12]],[[477]],[[20]],['low holistic'],['left'],['upright'],['U0362.bmp'],['male'],[[10]],['male'],[[1]],[[9.8830089e-05]],JX
477,[[12]],[[478]],[[20]],['low holistic'],['right'],['inverted'],['U0362.bmp'],['male'],[[10]],['male'],[[1]],[[0.04179708]],JX
478,[[12]],[[479]],[[1]],['low holistic'],['fovea'],['upright'],['U0006.bmp'],['female'],[[0]],['female'],[[1]],[[0.06390008]],JX
479,[[12]],[[480]],[[9]],['low holistic'],['left'],['upright'],['U0155.bmp'],['male'],[[8]],['male'],[[1]],[[0.02117624]],JX
480,[[12]],[[481]],[[10]],['high holistic'],['right'],['inverted'],['U0159.bmp'],['male'],[[8]],['male'],[[1]],[[9.99402255e-05]],JX
481,[[12]],[[482]],[[12]],['high holistic'],['right'],['upright'],['U0178.bmp'],['male'],[[6]],['male'],[[1]],[[0.10708937]],JX
482,[[12]],[[483]],[[7]],['low holistic'],['left'],['upright'],['U0107.bmp'],['female'],[[10]],['male'],[[0]],[[0.3043802]],JX
483,[[12]],[[484]],[[6]],['high holistic'],['left'],['inverted'],['U0106.bmp'],['female'],[[10]],['male'],[[0]],[[9.93022695e-05]],JX
484,[[12]],[[485]],[[5]],['high holistic'],['left'],['inverted'],['U0076.bmp'],['female'],[[10]],['male'],[[0]],[[0.00010777]],JX
485,[[12]],[[486]],[[15]],['low holistic'],['right'],['inverted'],['U0312.bmp'],['male'],[[6]],['male'],[[1]],[[0.41037649]],JX
486,[[12]],[[487]],[[5]],['high holistic'],['right'],['upright'],['U0076.bmp'],['female'],[[8]],['male'],[[0]],[[0.41045058]],JX
487,[[12]],[[488]],[[11]],['high holistic'],['fovea'],['upright'],['U0164.bmp'],['female'],[[0]],['female'],[[1]],[[9.96589661e-05]],JX
488,[[12]],[[489]],[[4]],['low holistic'],['right'],['inverted'],['U0061.bmp'],['female'],[[4]],['female'],[[1]],[[1.14529226]],JX
489,[[12]],[[490]],[[16]],['high holistic'],['left'],['inverted'],['U0335.bmp'],['female'],[[12]],['male'],[[0]],[[0.12979672]],JX
490,[[12]],[[491]],[[5]],['high holistic'],['fovea'],['inverted'],['U0076.bmp'],['female'],[[0]],['male'],[[0]],[[0.00033969]],JX
491,[[12]],[[492]],[[11]],['low holistic'],['right'],['upright'],['U0164.bmp'],['female'],[[4]],['female'],[[1]],[[0.14150681]],JX
492,[[12]],[[493]],[[19]],['low holistic'],['left'],['inverted'],['U0361.bmp'],['female'],[[6]],['female'],[[1]],[[0.03885927]],JX
493,[[12]],[[494]],[[15]],['high holistic'],['right'],['inverted'],['U0312.bmp'],['male'],[[4]],['female'],[[0]],[[0.00010715]],JX
494,[[12]],[[495]],[[17]],['high holistic'],['left'],['inverted'],['U0346.bmp'],['male'],[[12]],['male'],[[1]],[[0.16471423]],JX
495,[[12]],[[496]],[[11]],['low holistic'],['left'],['upright'],['U0164.bmp'],['female'],[[12]],['female'],[[1]],[[9.91523266e-05]],JX
496,[[12]],[[497]],[[1]],['low holistic'],['right'],['inverted'],['U0006.bmp'],['female'],[[8]],['female'],[[1]],[[0.11700128]],JX
497,[[12]],[[498]],[[19]],['low holistic'],['right'],['inverted'],['U0361.bmp'],['female'],[[8]],['female'],[[1]],[[0.00010564]],JX
498,[[12]],[[499]],[[4]],['high holistic'],['left'],['inverted'],['U0061.bmp'],['female'],[[2]],['female'],[[1]],[[0.07133021]],JX
499,[[12]],[[500]],[[5]],['high holistic'],['left'],['inverted'],['U0076.bmp'],['female'],[[4]],['female'],[[1]],[[0.15773109]],JX
500,[[12]],[[501]],[[4]],['high holistic'],['left'],['upright'],['U0061.bmp'],['female'],[[10]],['female'],[[1]],[[0.01365932]],JX
501,[[12]],[[502]],[[6]],['high holistic'],['right'],['inverted'],['U0106.bmp'],['female'],[[10]],['female'],[[1]],[[0.32553346]],JX
502,[[12]],[[503]],[[7]],['low holistic'],['right'],['inverted'],['U0107.bmp'],['female'],[[6]],['female'],[[1]],[[0.09498831]],JX
503,[[12]],[[504]],[[9]],['low holistic'],['left'],['inverted'],['U0155.bmp'],['male'],[[4]],['female'],[[0]],[[0.00010083]],JX
504,[[12]],[[505]],[[7]],['low holistic'],['left'],['inverted'],['U0107.bmp'],['female'],[[2]],['female'],[[1]],[[9.9869445e-05]],JX
505,[[12]],[[506]],[[13]],['low holistic'],['right'],['upright'],['U0181.bmp'],['male'],[[6]],['male'],[[1]],[[0.50774761]],JX
506,[[12]],[[507]],[[7]],['high holistic'],['left'],['inverted'],['U0107.bmp'],['female'],[[6]],['female'],[[1]],[[0.15751769]],JX
507,[[12]],[[508]],[[17]],['high holistic'],['right'],['upright'],['U0346.bmp'],['male'],[[8]],['male'],[[1]],[[0.15128536]],JX
508,[[12]],[[509]],[[13]],['low holistic'],['right'],['upright'],['U0181.bmp'],['male'],[[4]],['male'],[[1]],[[0.04868483]],JX
509,[[12]],[[510]],[[7]],['low holistic'],['right'],['upright'],['U0107.bmp'],['female'],[[12]],['female'],[[1]],[[0.07173184]],JX
510,[[12]],[[511]],[[20]],['high holistic'],['left'],['inverted'],['U0362.bmp'],['female'],[[8]],['female'],[[1]],[[0.01102938]],JX
511,[[12]],[[512]],[[1]],['high holistic'],['left'],['upright'],['U0006.bmp'],['female'],[[8]],['female'],[[1]],[[0.14595875]],JX
512,[[12]],[[513]],[[13]],['high holistic'],['left'],['upright'],['U0181.bmp'],['female'],[[4]],['female'],[[1]],[[0.06177006]],JX
513,[[12]],[[514]],[[11]],['low holistic'],['right'],['upright'],['U0164.bmp'],['female'],[[12]],['female'],[[1]],[[0.00019777]],JX
514,[[12]],[[515]],[[11]],['low holistic'],['left'],['upright'],['U0164.bmp'],['female'],[[12]],['female'],[[1]],[[0.13716844]],JX
515,[[12]],[[516]],[[9]],['high holistic'],['right'],['upright'],['U0155.bmp'],['female'],[[2]],['male'],[[0]],[[0.25011535]],JX
516,[[12]],[[517]],[[5]],['low holistic'],['right'],['upright'],['U0076.bmp'],['male'],[[4]],['male'],[[1]],[[0.16861221]],JX
517,[[12]],[[518]],[[9]],['low holistic'],['fovea'],['inverted'],['U0155.bmp'],['male'],[[0]],['male'],[[1]],[[0.08372182]],JX
518,[[12]],[[519]],[[8]],['high holistic'],['left'],['upright'],['U0137.bmp'],['female'],[[2]],['female'],[[1]],[[0.67796735]],JX
519,[[12]],[[520]],[[13]],['low holistic'],['fovea'],['inverted'],['U0181.bmp'],['male'],[[0]],['male'],[[1]],[[0.02669638]],JX
520,[[12]],[[521]],[[12]],['low holistic'],['left'],['upright'],['U0178.bmp'],['female'],[[8]],['female'],[[1]],[[0.13640116]],JX
521,[[12]],[[522]],[[8]],['low holistic'],['left'],['upright'],['U0137.bmp'],['male'],[[10]],['female'],[[0]],[[0.13801681]],JX
522,[[12]],[[523]],[[16]],['high holistic'],['left'],['inverted'],['U0335.bmp'],['female'],[[4]],['male'],[[0]],[[0.00010705]],JX
523,[[12]],[[524]],[[17]],['high holistic'],['right'],['upright'],['U0346.bmp'],['male'],[[8]],['male'],[[1]],[[0.13953975]],JX
524,[[12]],[[525]],[[7]],['high holistic'],['left'],['inverted'],['U0107.bmp'],['female'],[[10]],['male'],[[0]],[[0.04494033]],JX
525,[[12]],[[526]],[[2]],['low holistic'],['right'],['upright'],['U0014.bmp'],['male'],[[6]],['male'],[[1]],[[0.12410755]],JX
526,[[12]],[[527]],[[15]],['high holistic'],['right'],['inverted'],['U0312.bmp'],['male'],[[4]],['male'],[[1]],[[0.00010024]],JX
527,[[12]],[[528]],[[8]],['high holistic'],['left'],['inverted'],['U0137.bmp'],['female'],[[4]],['male'],[[0]],[[9.95984301e-05]],JX
528,[[12]],[[529]],[[13]],['high holistic'],['right'],['upright'],['U0181.bmp'],['female'],[[2]],['male'],[[0]],[[0.00537125]],JX
529,[[12]],[[530]],[[10]],['high holistic'],['right'],['upright'],['U0159.bmp'],['male'],[[10]],['male'],[[1]],[[0.01337022]],JX
530,[[12]],[[531]],[[10]],['high holistic'],['right'],['upright'],['U0159.bmp'],['male'],[[6]],['male'],[[1]],[[0.00010715]],JX
531,[[12]],[[532]],[[1]],['low holistic'],['left'],['upright'],['U0006.bmp'],['female'],[[12]],['female'],[[1]],[[0.00010661]],JX
532,[[12]],[[533]],[[15]],['low holistic'],['right'],['inverted'],['U0312.bmp'],['male'],[[2]],['male'],[[1]],[[0.09189997]],JX
533,[[12]],[[534]],[[19]],['high holistic'],['left'],['upright'],['U0361.bmp'],['female'],[[12]],['female'],[[1]],[[0.00010682]],JX
534,[[12]],[[535]],[[10]],['low holistic'],['right'],['inverted'],['U0159.bmp'],['female'],[[4]],['female'],[[1]],[[0.06292684]],JX
535,[[12]],[[536]],[[5]],['high holistic'],['left'],['inverted'],['U0076.bmp'],['female'],[[12]],['male'],[[0]],[[0.07604357]],JX
536,[[12]],[[537]],[[5]],['high holistic'],['right'],['inverted'],['U0076.bmp'],['female'],[[4]],['male'],[[0]],[[0.04841357]],JX
537,[[12]],[[538]],[[4]],['low holistic'],['left'],['inverted'],['U0061.bmp'],['female'],[[10]],['female'],[[1]],[[0.31102807]],JX
538,[[12]],[[539]],[[3]],['low holistic'],['left'],['inverted'],['U0020.bmp'],['female'],[[8]],['female'],[[1]],[[0.04262918]],JX
539,[[12]],[[540]],[[4]],['high holistic'],['right'],['inverted'],['U0061.bmp'],['female'],[[6]],['female'],[[1]],[[0.12661984]],JX
540,[[12]],[[541]],[[10]],['high holistic'],['right'],['inverted'],['U0159.bmp'],['male'],[[2]],['male'],[[1]],[[0.00010637]],JX
541,[[12]],[[542]],[[17]],['low holistic'],['left'],['inverted'],['U0346.bmp'],['female'],[[10]],['female'],[[1]],[[0.000101]],JX
542,[[12]],[[543]],[[3]],['low holistic'],['left'],['upright'],['U0020.bmp'],['female'],[[2]],['female'],[[1]],[[9.83513892e-05]],JX
543,[[12]],[[544]],[[14]],['low holistic'],['right'],['upright'],['U0228.bmp'],['male'],[[10]],['male'],[[1]],[[0.00010088]],JX
544,[[12]],[[545]],[[1]],['low holistic'],['fovea'],['inverted'],['U0006.bmp'],['female'],[[0]],['female'],[[1]],[[0.00010708]],JX
545,[[12]],[[546]],[[2]],['low holistic'],['left'],['upright'],['U0014.bmp'],['male'],[[10]],['male'],[[1]],[[0.04951773]],JX
546,[[12]],[[547]],[[15]],['high holistic'],['fovea'],['upright'],['U0312.bmp'],['male'],[[0]],['female'],[[0]],[[0.07045379]],JX
547,[[12]],[[548]],[[17]],['low holistic'],['right'],['upright'],['U0346.bmp'],['female'],[[12]],['female'],[[1]],[[0.00010732]],JX
548,[[12]],[[549]],[[16]],['low holistic'],['right'],['inverted'],['U0335.bmp'],['female'],[[4]],['female'],[[1]],[[0.05100113]],JX
549,[[12]],[[550]],[[9]],['high holistic'],['right'],['inverted'],['U0155.bmp'],['female'],[[10]],['male'],[[0]],[[0.08184751]],JX
550,[[12]],[[551]],[[1]],['low holistic'],['left'],['upright'],['U0006.bmp'],['female'],[[4]],['female'],[[1]],[[0.06982919]],JX
551,[[12]],[[552]],[[6]],['low holistic'],['left'],['upright'],['U0106.bmp'],['male'],[[8]],['female'],[[0]],[[0.01109575]],JX
552,[[12]],[[553]],[[14]],['high holistic'],['right'],['inverted'],['U0228.bmp'],['male'],[[4]],['female'],[[0]],[[9.98675823e-05]],JX
553,[[12]],[[554]],[[11]],['low holistic'],['left'],['upright'],['U0164.bmp'],['female'],[[12]],['female'],[[1]],[[0.09888595]],JX
554,[[12]],[[555]],[[20]],['high holistic'],['right'],['upright'],['U0362.bmp'],['female'],[[4]],['male'],[[0]],[[0.12496693]],JX
555,[[12]],[[556]],[[11]],['high holistic'],['left'],['upright'],['U0164.bmp'],['female'],[[8]],['male'],[[0]],[[0.00010634]],JX
556,[[12]],[[557]],[[3]],['low holistic'],['right'],['upright'],['U0020.bmp'],['female'],[[4]],['female'],[[1]],[[0.09521474]],JX
557,[[12]],[[558]],[[1]],['low holistic'],['fovea'],['upright'],['U0006.bmp'],['female'],[[0]],['female'],[[1]],[[0.00010838]],JX
558,[[12]],[[559]],[[8]],['high holistic'],['right'],['inverted'],['U0137.bmp'],['female'],[[4]],['female'],[[1]],[[0.35417624]],JX
559,[[12]],[[560]],[[3]],['high holistic'],['left'],['upright'],['U0020.bmp'],['male'],[[8]],['female'],[[0]],[[0.03509859]],JX
560,[[12]],[[561]],[[20]],['low holistic'],['left'],['upright'],['U0362.bmp'],['male'],[[4]],['male'],[[1]],[[0.0036474]],JX
561,[[12]],[[562]],[[7]],['high holistic'],['right'],['upright'],['U0107.bmp'],['female'],[[2]],['male'],[[0]],[[0.00010698]],JX
562,[[12]],[[563]],[[19]],['low holistic'],['fovea'],['inverted'],['U0361.bmp'],['female'],[[0]],['male'],[[0]],[[0.02551351]],JX
563,[[12]],[[564]],[[9]],['high holistic'],['left'],['upright'],['U0155.bmp'],['female'],[[4]],['male'],[[0]],[[0.00015097]],JX
564,[[12]],[[565]],[[7]],['high holistic'],['left'],['inverted'],['U0107.bmp'],['female'],[[6]],['male'],[[0]],[[0.1052625]],JX
565,[[12]],[[566]],[[16]],['low holistic'],['right'],['upright'],['U0335.bmp'],['female'],[[4]],['female'],[[1]],[[1.10021522]],JX
566,[[12]],[[567]],[[11]],['low holistic'],['left'],['upright'],['U0164.bmp'],['female'],[[12]],['female'],[[1]],[[0.0542853]],JX
567,[[12]],[[568]],[[9]],['high holistic'],['fovea'],['inverted'],['U0155.bmp'],['female'],[[0]],['male'],[[0]],[[0.11619831]],JX
568,[[12]],[[569]],[[2]],['high holistic'],['fovea'],['upright'],['U0014.bmp'],['male'],[[0]],['male'],[[1]],[[0.00010799]],JX
569,[[12]],[[570]],[[20]],['high holistic'],['left'],['inverted'],['U0362.bmp'],['female'],[[12]],['female'],[[1]],[[0.0650192]],JX
570,[[12]],[[571]],[[7]],['low holistic'],['right'],['inverted'],['U0107.bmp'],['female'],[[12]],['male'],[[0]],[[0.00010094]],JX
571,[[12]],[[572]],[[2]],['low holistic'],['right'],['inverted'],['U0014.bmp'],['male'],[[8]],['male'],[[1]],[[0.0001071]],JX
572,[[12]],[[573]],[[8]],['low holistic'],['right'],['inverted'],['U0137.bmp'],['male'],[[2]],['male'],[[1]],[[9.93777066e-05]],JX
573,[[12]],[[574]],[[20]],['high holistic'],['right'],['inverted'],['U0362.bmp'],['female'],[[12]],['male'],[[0]],[[0.25089441]],JX
574,[[12]],[[575]],[[14]],['high holistic'],['left'],['inverted'],['U0228.bmp'],['male'],[[4]],['male'],[[1]],[[0.24151193]],JX
575,[[12]],[[576]],[[5]],['low holistic'],['right'],['inverted'],['U0076.bmp'],['male'],[[6]],['male'],[[1]],[[0.14257677]],JX
576,[[12]],[[577]],[[11]],['high holistic'],['left'],['upright'],['U0164.bmp'],['female'],[[4]],['female'],[[1]],[[0.00791301]],JX
577,[[12]],[[578]],[[2]],['high holistic'],['left'],['inverted'],['U0014.bmp'],['male'],[[6]],['female'],[[0]],[[0.02511724]],JX
578,[[12]],[[579]],[[4]],['high holistic'],['left'],['upright'],['U0061.bmp'],['female'],[[12]],['male'],[[0]],[[0.000106]],JX
579,[[12]],[[580]],[[10]],['low holistic'],['right'],['inverted'],['U0159.bmp'],['female'],[[2]],['female'],[[1]],[[0.07045187]],JX
580,[[12]],[[581]],[[2]],['low holistic'],['left'],['upright'],['U0014.bmp'],['male'],[[6]],['male'],[[1]],[[0.0599907]],JX
581,[[12]],[[582]],[[1]],['low holistic'],['left'],['upright'],['U0006.bmp'],['female'],[[8]],['female'],[[1]],[[0.06460219]],JX
582,[[12]],[[583]],[[20]],['high holistic'],['fovea'],['inverted'],['U0362.bmp'],['female'],[[0]],['male'],[[0]],[[0.0151007]],JX
583,[[12]],[[584]],[[19]],['low holistic'],['right'],['upright'],['U0361.bmp'],['female'],[[2]],['female'],[[1]],[[0.00010756]],JX
584,[[12]],[[585]],[[2]],['low holistic'],['right'],['upright'],['U0014.bmp'],['male'],[[12]],['male'],[[1]],[[9.9199824e-05]],JX
585,[[12]],[[586]],[[13]],['high holistic'],['left'],['inverted'],['U0181.bmp'],['female'],[[6]],['female'],[[1]],[[0.26837543]],JX
586,[[12]],[[587]],[[2]],['high holistic'],['right'],['inverted'],['U0014.bmp'],['male'],[[8]],['male'],[[1]],[[0.07204848]],JX
587,[[12]],[[588]],[[15]],['low holistic'],['right'],['upright'],['U0312.bmp'],['male'],[[8]],['female'],[[0]],[[9.99877229e-05]],JX
588,[[12]],[[589]],[[5]],['high holistic'],['left'],['inverted'],['U0076.bmp'],['female'],[[2]],['male'],[[0]],[[0.03705364]],JX
589,[[12]],[[590]],[[4]],['high holistic'],['left'],['upright'],['U0061.bmp'],['female'],[[4]],['male'],[[0]],[[1.76400351]],JX
590,[[12]],[[591]],[[13]],['high holistic'],['right'],['upright'],['U0181.bmp'],['female'],[[10]],['female'],[[1]],[[0.26173296]],JX
591,[[12]],[[592]],[[18]],['low holistic'],['right'],['inverted'],['U0359.bmp'],['male'],[[12]],['male'],[[1]],[[0.30617047]],JX
592,[[12]],[[593]],[[17]],['low holistic'],['left'],['upright'],['U0346.bmp'],['female'],[[8]],['female'],[[1]],[[0.35795049]],JX
593,[[12]],[[594]],[[16]],['high holistic'],['right'],['inverted'],['U0335.bmp'],['female'],[[6]],['male'],[[0]],[[0.0001105]],JX
594,[[12]],[[595]],[[13]],['low holistic'],['left'],['inverted'],['U0181.bmp'],['male'],[[10]],['male'],[[1]],[[0.15818348]],JX
595,[[12]],[[596]],[[1]],['high holistic'],['right'],['upright'],['U0006.bmp'],['female'],[[10]],['male'],[[0]],[[0.40114656]],JX
596,[[12]],[[597]],[[9]],['low holistic'],['right'],['inverted'],['U0155.bmp'],['male'],[[12]],['male'],[[1]],[[0.08890965]],JX
597,[[12]],[[598]],[[16]],['high holistic'],['fovea'],['inverted'],['U0335.bmp'],['female'],[[0]],['male'],[[0]],[[0.00010594]],JX
598,[[12]],[[599]],[[1]],['low holistic'],['right'],['upright'],['U0006.bmp'],['female'],[[6]],['female'],[[1]],[[1.02601127]],JX
599,[[12]],[[600]],[[3]],['high holistic'],['fovea'],['upright'],['U0020.bmp'],['male'],[[0]],['male'],[[1]],[[0.18545054]],JX
600,[[12]],[[601]],[[20]],['high holistic'],['right'],['upright'],['U0362.bmp'],['female'],[[10]],['female'],[[1]],[[0.27443618]],JX
601,[[12]],[[602]],[[16]],['low holistic'],['left'],['upright'],['U0335.bmp'],['female'],[[10]],['female'],[[1]],[[0.04019177]],JX
602,[[12]],[[603]],[[19]],['high holistic'],['left'],['inverted'],['U0361.bmp'],['female'],[[8]],['male'],[[0]],[[0.2134096]],JX
603,[[12]],[[604]],[[14]],['low holistic'],['right'],['upright'],['U0228.bmp'],['male'],[[12]],['male'],[[1]],[[0.06943828]],JX
604,[[12]],[[605]],[[18]],['low holistic'],['left'],['upright'],['U0359.bmp'],['male'],[[8]],['female'],[[0]],[[0.12849237]],JX
605,[[12]],[[606]],[[11]],['high holistic'],['right'],['upright'],['U0164.bmp'],['female'],[[2]],['female'],[[1]],[[0.26823034]],JX
606,[[12]],[[607]],[[18]],['low holistic'],['left'],['inverted'],['U0359.bmp'],['male'],[[4]],['female'],[[0]],[[0.17674801]],JX
607,[[12]],[[608]],[[5]],['low holistic'],['left'],['upright'],['U0076.bmp'],['male'],[[12]],['male'],[[1]],[[0.00010659]],JX
608,[[12]],[[609]],[[2]],['high holistic'],['left'],['upright'],['U0014.bmp'],['male'],[[6]],['female'],[[0]],[[0.0002104]],JX
609,[[12]],[[610]],[[14]],['high holistic'],['right'],['inverted'],['U0228.bmp'],['male'],[[4]],['male'],[[1]],[[0.02572958]],JX
610,[[12]],[[611]],[[20]],['low holistic'],['left'],['inverted'],['U0362.bmp'],['male'],[[10]],['male'],[[1]],[[0.0002298]],JX
611,[[12]],[[612]],[[18]],['high holistic'],['right'],['inverted'],['U0359.bmp'],['male'],[[2]],['male'],[[1]],[[0.00018587]],JX
612,[[12]],[[613]],[[19]],['high holistic'],['right'],['upright'],['U0361.bmp'],['female'],[[10]],['male'],[[0]],[[0.00010791]],JX
613,[[12]],[[614]],[[6]],['low holistic'],['right'],['inverted'],['U0106.bmp'],['male'],[[12]],['male'],[[1]],[[0.1340985]],JX
614,[[12]],[[615]],[[19]],['high holistic'],['left'],['upright'],['U0361.bmp'],['female'],[[8]],['male'],[[0]],[[0.00010961]],JX
615,[[12]],[[616]],[[5]],['high holistic'],['right'],['upright'],['U0076.bmp'],['female'],[[10]],['female'],[[1]],[[0.78496783]],JX
616,[[12]],[[617]],[[10]],['high holistic'],['left'],['upright'],['U0159.bmp'],['male'],[[8]],['male'],[[1]],[[0.05601431]],JX
617,[[12]],[[618]],[[4]],['low holistic'],['left'],['upright'],['U0061.bmp'],['female'],[[12]],['female'],[[1]],[[0.69250641]],JX
618,[[12]],[[619]],[[9]],['low holistic'],['left'],['inverted'],['U0155.bmp'],['male'],[[8]],['male'],[[1]],[[0.04199677]],JX
619,[[12]],[[620]],[[8]],['low holistic'],['left'],['inverted'],['U0137.bmp'],['male'],[[6]],['female'],[[0]],[[0.13446001]],JX
620,[[12]],[[621]],[[16]],['low holistic'],['left'],['upright'],['U0335.bmp'],['female'],[[4]],['male'],[[0]],[[9.95723531e-05]],JX
621,[[12]],[[622]],[[18]],['high holistic'],['right'],['inverted'],['U0359.bmp'],['male'],[[10]],['male'],[[1]],[[9.96179879e-05]],JX
622,[[12]],[[623]],[[2]],['low holistic'],['right'],['inverted'],['U0014.bmp'],['male'],[[8]],['male'],[[1]],[[0.00010159]],JX
623,[[12]],[[624]],[[10]],['high holistic'],['left'],['upright'],['U0159.bmp'],['male'],[[10]],['male'],[[1]],[[1.12937004]],JX
624,[[12]],[[625]],[[19]],['low holistic'],['right'],['upright'],['U0361.bmp'],['female'],[[6]],['female'],[[1]],[[0.01871399]],JX
625,[[12]],[[626]],[[15]],['high holistic'],['left'],['upright'],['U0312.bmp'],['male'],[[6]],['male'],[[1]],[[0.24193893]],JX
626,[[12]],[[627]],[[3]],['high holistic'],['left'],['upright'],['U0020.bmp'],['male'],[[12]],['male'],[[1]],[[0.26428608]],JX
627,[[12]],[[628]],[[4]],['high holistic'],['right'],['upright'],['U0061.bmp'],['female'],[[8]],['male'],[[0]],[[9.8709017e-05]],JX
628,[[12]],[[629]],[[14]],['high holistic'],['right'],['upright'],['U0228.bmp'],['male'],[[12]],['male'],[[1]],[[0.10068841]],JX
629,[[12]],[[630]],[[15]],['low holistic'],['right'],['inverted'],['U0312.bmp'],['male'],[[4]],['male'],[[1]],[[0.12677009]],JX
630,[[12]],[[631]],[[6]],['high holistic'],['fovea'],['inverted'],['U0106.bmp'],['female'],[[0]],['male'],[[0]],[[0.05098356]],JX
631,[[12]],[[632]],[[5]],['high holistic'],['right'],['inverted'],['U0076.bmp'],['female'],[[6]],['male'],[[0]],[[0.00013008]],JX
632,[[12]],[[633]],[[19]],['low holistic'],['left'],['upright'],['U0361.bmp'],['female'],[[4]],['female'],[[1]],[[1.26318757]],JX
633,[[12]],[[634]],[[9]],['high holistic'],['right'],['upright'],['U0155.bmp'],['female'],[[10]],['male'],[[0]],[[0.00010148]],JX
634,[[12]],[[635]],[[19]],['high holistic'],['right'],['inverted'],['U0361.bmp'],['female'],[[4]],['male'],[[0]],[[0.10076826]],JX
635,[[12]],[[636]],[[3]],['low holistic'],['right'],['upright'],['U0020.bmp'],['female'],[[4]],['female'],[[1]],[[0.36934815]],JX
636,[[12]],[[637]],[[1]],['high holistic'],['left'],['inverted'],['U0006.bmp'],['female'],[[4]],['male'],[[0]],[[0.05599418]],JX
637,[[12]],[[638]],[[1]],['high holistic'],['left'],['inverted'],['U0006.bmp'],['female'],[[10]],['female'],[[1]],[[0.18993318]],JX
638,[[12]],[[639]],[[19]],['high holistic'],['right'],['upright'],['U0361.bmp'],['female'],[[6]],['female'],[[1]],[[0.37500063]],JX
639,[[12]],[[640]],[[15]],['low holistic'],['right'],['upright'],['U0312.bmp'],['male'],[[2]],['male'],[[1]],[[0.09382901]],JX
640,[[12]],[[641]],[[19]],['low holistic'],['left'],['inverted'],['U0361.bmp'],['female'],[[2]],['female'],[[1]],[[0.6592963]],JX
641,[[12]],[[642]],[[13]],['low holistic'],['left'],['upright'],['U0181.bmp'],['male'],[[12]],['female'],[[0]],[[0.05701347]],JX
642,[[12]],[[643]],[[5]],['low holistic'],['left'],['inverted'],['U0076.bmp'],['male'],[[8]],['male'],[[1]],[[0.00010069]],JX
643,[[12]],[[644]],[[8]],['low holistic'],['left'],['inverted'],['U0137.bmp'],['male'],[[2]],['male'],[[1]],[[0.26043476]],JX
644,[[12]],[[645]],[[15]],['high holistic'],['right'],['inverted'],['U0312.bmp'],['male'],[[4]],['female'],[[0]],[[0.00020295]],JX
645,[[12]],[[646]],[[10]],['low holistic'],['left'],['upright'],['U0159.bmp'],['female'],[[2]],['female'],[[1]],[[0.07412091]],JX
646,[[12]],[[647]],[[8]],['high holistic'],['left'],['upright'],['U0137.bmp'],['female'],[[10]],['female'],[[1]],[[0.02197426]],JX
647,[[12]],[[648]],[[17]],['high holistic'],['right'],['inverted'],['U0346.bmp'],['male'],[[6]],['male'],[[1]],[[0.00512329]],JX
648,[[12]],[[649]],[[6]],['low holistic'],['right'],['upright'],['U0106.bmp'],['male'],[[12]],['female'],[[0]],[[0.0217085]],JX
649,[[12]],[[650]],[[3]],['high holistic'],['right'],['inverted'],['U0020.bmp'],['male'],[[4]],['male'],[[1]],[[0.01939046]],JX
650,[[12]],[[651]],[[18]],['high holistic'],['right'],['upright'],['U0359.bmp'],['male'],[[12]],['male'],[[1]],[[0.00010079]],JX
651,[[12]],[[652]],[[6]],['low holistic'],['fovea'],['upright'],['U0106.bmp'],['male'],[[0]],['male'],[[1]],[[0.00030713]],JX
652,[[12]],[[653]],[[17]],['low holistic'],['right'],['inverted'],['U0346.bmp'],['female'],[[12]],['male'],[[0]],[[0.21540198]],JX
653,[[12]],[[654]],[[12]],['low holistic'],['fovea'],['inverted'],['U0178.bmp'],['female'],[[0]],['male'],[[0]],[[0.07226287]],JX
654,[[12]],[[655]],[[11]],['low holistic'],['left'],['upright'],['U0164.bmp'],['female'],[[2]],['female'],[[1]],[[0.02055397]],JX
655,[[12]],[[656]],[[7]],['low holistic'],['right'],['upright'],['U0107.bmp'],['female'],[[10]],['female'],[[1]],[[0.00361157]],JX
656,[[12]],[[657]],[[5]],['high holistic'],['right'],['upright'],['U0076.bmp'],['female'],[[10]],['female'],[[1]],[[0.06700702]],JX
657,[[12]],[[658]],[[5]],['high holistic'],['left'],['upright'],['U0076.bmp'],['female'],[[4]],['female'],[[1]],[[0.1598077]],JX
658,[[12]],[[659]],[[20]],['low holistic'],['left'],['upright'],['U0362.bmp'],['male'],[[6]],['male'],[[1]],[[0.08113669]],JX
659,[[12]],[[660]],[[7]],['low holistic'],['right'],['upright'],['U0107.bmp'],['female'],[[6]],['male'],[[0]],[[0.11726042]],JX
660,[[12]],[[661]],[[9]],['low holistic'],['left'],['upright'],['U0155.bmp'],['male'],[[12]],['male'],[[1]],[[0.00010124]],JX
661,[[12]],[[662]],[[6]],['high holistic'],['right'],['inverted'],['U0106.bmp'],['female'],[[8]],['male'],[[0]],[[0.00010267]],JX
662,[[12]],[[663]],[[19]],['low holistic'],['right'],['inverted'],['U0361.bmp'],['female'],[[12]],['male'],[[0]],[[0.08044202]],JX
663,[[12]],[[664]],[[2]],['high holistic'],['left'],['inverted'],['U0014.bmp'],['male'],[[12]],['male'],[[1]],[[0.08383986]],JX
664,[[12]],[[665]],[[2]],['high holistic'],['right'],['inverted'],['U0014.bmp'],['male'],[[6]],['male'],[[1]],[[0.04734692]],JX
665,[[12]],[[666]],[[2]],['high holistic'],['right'],['upright'],['U0014.bmp'],['male'],[[10]],['male'],[[1]],[[0.00010877]],JX
666,[[12]],[[667]],[[5]],['low holistic'],['left'],['inverted'],['U0076.bmp'],['male'],[[2]],['male'],[[1]],[[9.96431336e-05]],JX
667,[[12]],[[668]],[[17]],['low holistic'],['left'],['upright'],['U0346.bmp'],['female'],[[6]],['female'],[[1]],[[1.47787914]],JX
668,[[12]],[[669]],[[3]],['low holistic'],['right'],['upright'],['U0020.bmp'],['female'],[[6]],['female'],[[1]],[[0.11291753]],JX
669,[[12]],[[670]],[[6]],['low holistic'],['right'],['upright'],['U0106.bmp'],['male'],[[6]],['male'],[[1]],[[0.00010448]],JX
670,[[12]],[[671]],[[11]],['low holistic'],['left'],['upright'],['U0164.bmp'],['female'],[[6]],['female'],[[1]],[[0.01309781]],JX
671,[[12]],[[672]],[[2]],['high holistic'],['fovea'],['inverted'],['U0014.bmp'],['male'],[[0]],['female'],[[0]],[[0.29896933]],JX
672,[[12]],[[673]],[[19]],['low holistic'],['fovea'],['inverted'],['U0361.bmp'],['female'],[[0]],['female'],[[1]],[[0.56790987]],JX
673,[[12]],[[674]],[[11]],['high holistic'],['fovea'],['upright'],['U0164.bmp'],['female'],[[0]],['female'],[[1]],[[0.06458683]],JX
674,[[12]],[[675]],[[19]],['low holistic'],['left'],['inverted'],['U0361.bmp'],['female'],[[4]],['female'],[[1]],[[0.0002826]],JX
675,[[12]],[[676]],[[10]],['low holistic'],['right'],['upright'],['U0159.bmp'],['female'],[[8]],['female'],[[1]],[[0.00012341]],JX
676,[[12]],[[677]],[[13]],['low holistic'],['left'],['upright'],['U0181.bmp'],['male'],[[8]],['male'],[[1]],[[0.23723712]],JX
677,[[12]],[[678]],[[18]],['high holistic'],['left'],['inverted'],['U0359.bmp'],['male'],[[10]],['female'],[[0]],[[0.21102903]],JX
678,[[12]],[[679]],[[13]],['low holistic'],['right'],['inverted'],['U0181.bmp'],['male'],[[6]],['female'],[[0]],[[0.00299297]],JX
679,[[12]],[[680]],[[18]],['high holistic'],['fovea'],['upright'],['U0359.bmp'],['male'],[[0]],['male'],[[1]],[[9.94848087e-05]],JX
680,[[12]],[[681]],[[3]],['low holistic'],['fovea'],['upright'],['U0020.bmp'],['female'],[[0]],['female'],[[1]],[[0.84175126]],JX
681,[[12]],[[682]],[[11]],['low holistic'],['right'],['upright'],['U0164.bmp'],['female'],[[2]],['female'],[[1]],[[0.00010649]],JX
682,[[12]],[[683]],[[17]],['low holistic'],['right'],['inverted'],['U0346.bmp'],['female'],[[2]],['female'],[[1]],[[0.10235978]],JX
683,[[12]],[[684]],[[20]],['high holistic'],['right'],['inverted'],['U0362.bmp'],['female'],[[8]],['male'],[[0]],[[0.39500478]],JX
684,[[12]],[[685]],[[10]],['high holistic'],['right'],['upright'],['U0159.bmp'],['male'],[[10]],['male'],[[1]],[[0.0001558]],JX
685,[[12]],[[686]],[[9]],['low holistic'],['left'],['inverted'],['U0155.bmp'],['male'],[[10]],['male'],[[1]],[[0.04194673]],JX
686,[[12]],[[687]],[[20]],['low holistic'],['right'],['inverted'],['U0362.bmp'],['male'],[[4]],['male'],[[1]],[[0.04792705]],JX
687,[[12]],[[688]],[[7]],['high holistic'],['left'],['inverted'],['U0107.bmp'],['female'],[[8]],['male'],[[0]],[[0.05398967]],JX
688,[[12]],[[689]],[[16]],['high holistic'],['right'],['upright'],['U0335.bmp'],['female'],[[8]],['male'],[[0]],[[0.00010045]],JX
689,[[12]],[[690]],[[13]],['low holistic'],['right'],['upright'],['U0181.bmp'],['male'],[[12]],['male'],[[1]],[[0.20117138]],JX
690,[[12]],[[691]],[[19]],['high holistic'],['left'],['upright'],['U0361.bmp'],['female'],[[6]],['female'],[[1]],[[0.12054233]],JX
691,[[12]],[[692]],[[16]],['high holistic'],['left'],['inverted'],['U0335.bmp'],['female'],[[4]],['male'],[[0]],[[0.0001005]],JX
692,[[12]],[[693]],[[6]],['high holistic'],['right'],['upright'],['U0106.bmp'],['female'],[[4]],['male'],[[0]],[[0.08346074]],JX
693,[[12]],[[694]],[[14]],['high holistic'],['left'],['inverted'],['U0228.bmp'],['male'],[[6]],['male'],[[1]],[[0.13537326]],JX
694,[[12]],[[695]],[[8]],['high holistic'],['left'],['inverted'],['U0137.bmp'],['female'],[[12]],['male'],[[0]],[[0.01968633]],JX
695,[[12]],[[696]],[[13]],['high holistic'],['right'],['inverted'],['U0181.bmp'],['female'],[[2]],['male'],[[0]],[[0.00010062]],JX
696,[[12]],[[697]],[[18]],['low holistic'],['left'],['inverted'],['U0359.bmp'],['male'],[[2]],['male'],[[1]],[[0.02410108]],JX
697,[[12]],[[698]],[[10]],['low holistic'],['right'],['inverted'],['U0159.bmp'],['female'],[[4]],['male'],[[0]],[[0.23875343]],JX
698,[[12]],[[699]],[[11]],['high holistic'],['right'],['upright'],['U0164.bmp'],['female'],[[2]],['female'],[[1]],[[0.30858682]],JX
699,[[12]],[[700]],[[12]],['high holistic'],['right'],['inverted'],['U0178.bmp'],['male'],[[4]],['female'],[[0]],[[0.20848318]],JX
700,[[12]],[[701]],[[7]],['low holistic'],['left'],['inverted'],['U0107.bmp'],['female'],[[6]],['female'],[[1]],[[0.0001001]],JX
701,[[12]],[[702]],[[11]],['high holistic'],['left'],['inverted'],['U0164.bmp'],['female'],[[10]],['male'],[[0]],[[0.17567065]],JX
702,[[12]],[[703]],[[20]],['high holistic'],['right'],['upright'],['U0362.bmp'],['female'],[[12]],['female'],[[1]],[[0.19250979]],JX
703,[[12]],[[704]],[[6]],['high holistic'],['right'],['upright'],['U0106.bmp'],['female'],[[12]],['female'],[[1]],[[0.15952]],JX
704,[[12]],[[705]],[[20]],['high holistic'],['left'],['upright'],['U0362.bmp'],['female'],[[10]],['female'],[[1]],[[0.00992471]],JX
705,[[12]],[[706]],[[8]],['high holistic'],['fovea'],['upright'],['U0137.bmp'],['female'],[[0]],['female'],[[1]],[[0.11899068]],JX
706,[[12]],[[707]],[[13]],['low holistic'],['fovea'],['upright'],['U0181.bmp'],['male'],[[0]],['male'],[[1]],[[0.1066967]],JX
707,[[12]],[[708]],[[18]],['high holistic'],['right'],['inverted'],['U0359.bmp'],['male'],[[6]],['male'],[[1]],[[0.26327757]],JX
708,[[12]],[[709]],[[17]],['high holistic'],['right'],['inverted'],['U0346.bmp'],['male'],[[12]],['male'],[[1]],[[0.09137806]],JX
709,[[12]],[[710]],[[3]],['low holistic'],['left'],['upright'],['U0020.bmp'],['female'],[[6]],['female'],[[1]],[[0.19012578]],JX
710,[[12]],[[711]],[[20]],['low holistic'],['right'],['upright'],['U0362.bmp'],['male'],[[10]],['male'],[[1]],[[0.0864143]],JX
711,[[12]],[[712]],[[1]],['low holistic'],['left'],['inverted'],['U0006.bmp'],['female'],[[2]],['female'],[[1]],[[0.00010174]],JX
712,[[12]],[[713]],[[3]],['low holistic'],['right'],['upright'],['U0020.bmp'],['female'],[[12]],['female'],[[1]],[[0.00010663]],JX
713,[[12]],[[714]],[[10]],['low holistic'],['right'],['upright'],['U0159.bmp'],['female'],[[8]],['female'],[[1]],[[0.00010797]],JX
714,[[12]],[[715]],[[6]],['low holistic'],['left'],['inverted'],['U0106.bmp'],['male'],[[12]],['male'],[[1]],[[0.00939251]],JX
715,[[12]],[[716]],[[4]],['low holistic'],['fovea'],['upright'],['U0061.bmp'],['female'],[[0]],['male'],[[0]],[[0.00010037]],JX
716,[[12]],[[717]],[[14]],['low holistic'],['left'],['upright'],['U0228.bmp'],['male'],[[2]],['female'],[[0]],[[0.00012633]],JX
717,[[12]],[[718]],[[11]],['high holistic'],['right'],['inverted'],['U0164.bmp'],['female'],[[12]],['male'],[[0]],[[0.00010059]],JX
718,[[12]],[[719]],[[4]],['high holistic'],['left'],['upright'],['U0061.bmp'],['female'],[[2]],['female'],[[1]],[[0.04098397]],JX
719,[[12]],[[720]],[[12]],['high holistic'],['right'],['inverted'],['U0178.bmp'],['male'],[[6]],['male'],[[1]],[[0.04682933]],JX
720,[[12]],[[721]],[[14]],['low holistic'],['right'],['inverted'],['U0228.bmp'],['male'],[[8]],['male'],[[1]],[[0.00010115]],JX
721,[[12]],[[722]],[[2]],['high holistic'],['left'],['inverted'],['U0014.bmp'],['male'],[[12]],['male'],[[1]],[[0.00010302]],JX
722,[[12]],[[723]],[[13]],['high holistic'],['left'],['upright'],['U0181.bmp'],['female'],[[4]],['male'],[[0]],[[0.11468291]],JX
723,[[12]],[[724]],[[16]],['low holistic'],['fovea'],['upright'],['U0335.bmp'],['female'],[[0]],['female'],[[1]],[[1.50104157]],JX
724,[[12]],[[725]],[[20]],['high holistic'],['left'],['upright'],['U0362.bmp'],['female'],[[12]],['male'],[[0]],[[9.9956058e-05]],JX
725,[[12]],[[726]],[[5]],['low holistic'],['left'],['inverted'],['U0076.bmp'],['male'],[[8]],['male'],[[1]],[[0.00010064]],JX
726,[[12]],[[727]],[[20]],['low holistic'],['left'],['inverted'],['U0362.bmp'],['male'],[[2]],['male'],[[1]],[[0.00025252]],JX
727,[[12]],[[728]],[[10]],['high holistic'],['left'],['inverted'],['U0159.bmp'],['male'],[[2]],['male'],[[1]],[[0.16123789]],JX
728,[[12]],[[729]],[[3]],['low holistic'],['fovea'],['inverted'],['U0020.bmp'],['female'],[[0]],['female'],[[1]],[[0.0088944]],JX
729,[[12]],[[730]],[[18]],['high holistic'],['left'],['inverted'],['U0359.bmp'],['male'],[[6]],['male'],[[1]],[[0.15350987]],JX
730,[[12]],[[731]],[[15]],['low holistic'],['left'],['inverted'],['U0312.bmp'],['male'],[[2]],['male'],[[1]],[[0.08136702]],JX
731,[[12]],[[732]],[[6]],['high holistic'],['right'],['inverted'],['U0106.bmp'],['female'],[[10]],['male'],[[0]],[[9.99839976e-05]],JX
732,[[12]],[[733]],[[9]],['high holistic'],['left'],['inverted'],['U0155.bmp'],['female'],[[4]],['male'],[[0]],[[1.06315714]],JX
733,[[12]],[[734]],[[8]],['low holistic'],['right'],['upright'],['U0137.bmp'],['male'],[[10]],['male'],[[1]],[[0.14805675]],JX
734,[[12]],[[735]],[[1]],['high holistic'],['left'],['inverted'],['U0006.bmp'],['female'],[[8]],['male'],[[0]],[[0.09334693]],JX
735,[[12]],[[736]],[[14]],['high holistic'],['left'],['upright'],['U0228.bmp'],['male'],[[12]],['male'],[[1]],[[0.16907988]],JX
736,[[12]],[[737]],[[11]],['high holistic'],['left'],['inverted'],['U0164.bmp'],['female'],[[8]],['male'],[[0]],[[0.0190324]],JX
737,[[12]],[[738]],[[3]],['high holistic'],['right'],['upright'],['U0020.bmp'],['male'],[[8]],['male'],[[1]],[[0.08872012]],JX
738,[[12]],[[739]],[[14]],['high holistic'],['left'],['inverted'],['U0228.bmp'],['male'],[[4]],['male'],[[1]],[[0.14918173]],JX
739,[[12]],[[740]],[[3]],['high holistic'],['right'],['upright'],['U0020.bmp'],['male'],[[2]],['male'],[[1]],[[0.07879481]],JX
740,[[12]],[[741]],[[18]],['high holistic'],['right'],['upright'],['U0359.bmp'],['male'],[[12]],['male'],[[1]],[[9.99448821e-05]],JX
741,[[12]],[[742]],[[15]],['high holistic'],['left'],['inverted'],['U0312.bmp'],['male'],[[6]],['male'],[[1]],[[0.06576005]],JX
742,[[12]],[[743]],[[14]],['low holistic'],['right'],['upright'],['U0228.bmp'],['male'],[[2]],['male'],[[1]],[[0.00022439]],JX
743,[[12]],[[744]],[[2]],['high holistic'],['right'],['upright'],['U0014.bmp'],['male'],[[4]],['male'],[[1]],[[0.00010551]],JX
744,[[12]],[[745]],[[7]],['high holistic'],['right'],['inverted'],['U0107.bmp'],['female'],[[10]],['male'],[[0]],[[0.00010066]],JX
745,[[12]],[[746]],[[17]],['low holistic'],['left'],['inverted'],['U0346.bmp'],['female'],[[10]],['male'],[[0]],[[0.05997944]],JX
746,[[12]],[[747]],[[14]],['high holistic'],['right'],['inverted'],['U0228.bmp'],['male'],[[12]],['male'],[[1]],[[9.94158909e-05]],JX
747,[[12]],[[748]],[[4]],['high holistic'],['left'],['upright'],['U0061.bmp'],['female'],[[6]],['male'],[[0]],[[0.00024347]],JX
748,[[12]],[[749]],[[7]],['high holistic'],['left'],['inverted'],['U0107.bmp'],['female'],[[2]],['male'],[[0]],[[0.07302833]],JX
749,[[12]],[[750]],[[6]],['high holistic'],['right'],['inverted'],['U0106.bmp'],['female'],[[8]],['male'],[[0]],[[0.13223206]],JX
750,[[12]],[[751]],[[7]],['high holistic'],['left'],['inverted'],['U0107.bmp'],['female'],[[12]],['male'],[[0]],[[0.03075875]],JX
751,[[12]],[[752]],[[18]],['low holistic'],['left'],['inverted'],['U0359.bmp'],['male'],[[10]],['male'],[[1]],[[0.10918448]],JX
752,[[12]],[[753]],[[5]],['low holistic'],['left'],['upright'],['U0076.bmp'],['male'],[[8]],['male'],[[1]],[[0.04843162]],JX
753,[[12]],[[754]],[[9]],['low holistic'],['right'],['upright'],['U0155.bmp'],['male'],[[6]],['male'],[[1]],[[0.1330229]],JX
754,[[12]],[[755]],[[3]],['high holistic'],['fovea'],['inverted'],['U0020.bmp'],['male'],[[0]],['male'],[[1]],[[0.62467733]],JX
755,[[12]],[[756]],[[11]],['high holistic'],['right'],['upright'],['U0164.bmp'],['female'],[[4]],['female'],[[1]],[[1.63020937]],JX
756,[[12]],[[757]],[[16]],['high holistic'],['right'],['inverted'],['U0335.bmp'],['female'],[[6]],['male'],[[0]],[[0.00030178]],JX
757,[[12]],[[758]],[[17]],['high holistic'],['fovea'],['upright'],['U0346.bmp'],['male'],[[0]],['male'],[[1]],[[0.00015615]],JX
758,[[12]],[[759]],[[10]],['low holistic'],['right'],['upright'],['U0159.bmp'],['female'],[[6]],['female'],[[1]],[[0.08489117]],JX
759,[[12]],[[760]],[[7]],['low holistic'],['right'],['upright'],['U0107.bmp'],['female'],[[4]],['female'],[[1]],[[0.05685939]],JX
760,[[12]],[[761]],[[14]],['high holistic'],['right'],['upright'],['U0228.bmp'],['male'],[[2]],['male'],[[1]],[[0.05289082]],JX
761,[[12]],[[762]],[[11]],['high holistic'],['left'],['inverted'],['U0164.bmp'],['female'],[[6]],['female'],[[1]],[[0.49965367]],JX
762,[[12]],[[763]],[[5]],['high holistic'],['right'],['upright'],['U0076.bmp'],['female'],[[4]],['female'],[[1]],[[0.24534522]],JX
763,[[12]],[[764]],[[8]],['high holistic'],['right'],['inverted'],['U0137.bmp'],['female'],[[12]],['male'],[[0]],[[0.2429467]],JX
764,[[12]],[[765]],[[14]],['high holistic'],['left'],['inverted'],['U0228.bmp'],['male'],[[12]],['male'],[[1]],[[0.28157167]],JX
765,[[12]],[[766]],[[9]],['low holistic'],['fovea'],['inverted'],['U0155.bmp'],['male'],[[0]],['male'],[[1]],[[0.06113124]],JX
766,[[12]],[[767]],[[5]],['high holistic'],['right'],['inverted'],['U0076.bmp'],['female'],[[10]],['male'],[[0]],[[0.08100029]],JX
767,[[12]],[[768]],[[12]],['high holistic'],['fovea'],['inverted'],['U0178.bmp'],['male'],[[0]],['male'],[[1]],[[0.09298916]],JX
768,[[12]],[[769]],[[7]],['low holistic'],['left'],['inverted'],['U0107.bmp'],['female'],[[10]],['female'],[[1]],[[1.27309064]],JX
769,[[12]],[[770]],[[15]],['low holistic'],['left'],['inverted'],['U0312.bmp'],['male'],[[4]],['male'],[[1]],[[0.15945179]],JX
770,[[12]],[[771]],[[11]],['low holistic'],['right'],['inverted'],['U0164.bmp'],['female'],[[10]],['female'],[[1]],[[0.29539622]],JX
771,[[12]],[[772]],[[17]],['high holistic'],['left'],['inverted'],['U0346.bmp'],['male'],[[2]],['male'],[[1]],[[0.18617185]],JX
772,[[12]],[[773]],[[18]],['high holistic'],['right'],['upright'],['U0359.bmp'],['male'],[[2]],['male'],[[1]],[[0.16137703]],JX
