,SUBID,TRIAL,MOONEYID,MOONEYCATEGORY,LOC,COND,MOONEY_NAME,MOONEY_GENDER,ECCENTRICITY,RESPONSE,ACCURACY,RT,SUBINIT
0,[[15]],[[1]],[[20]],['low holistic'],['fovea'],['inverted'],['U0362.bmp'],['male'],[[0]],['female'],[[0]],[[0.55441475]],LM
1,[[15]],[[2]],[[2]],['high holistic'],['right'],['upright'],['U0014.bmp'],['male'],[[8]],['male'],[[1]],[[0.30659407]],LM
2,[[15]],[[3]],[[3]],['high holistic'],['fovea'],['inverted'],['U0020.bmp'],['male'],[[0]],['female'],[[0]],[[0.80828206]],LM
3,[[15]],[[4]],[[3]],['high holistic'],['left'],['inverted'],['U0020.bmp'],['male'],[[8]],['female'],[[0]],[[0.91114801]],LM
4,[[15]],[[5]],[[11]],['low holistic'],['right'],['inverted'],['U0164.bmp'],['female'],[[2]],['female'],[[1]],[[0.6037115]],LM
5,[[15]],[[6]],[[11]],['high holistic'],['right'],['inverted'],['U0164.bmp'],['female'],[[2]],['male'],[[0]],[[0.38751424]],LM
6,[[15]],[[7]],[[18]],['high holistic'],['right'],['inverted'],['U0359.bmp'],['male'],[[6]],['male'],[[1]],[[0.38732434]],LM
7,[[15]],[[8]],[[17]],['low holistic'],['right'],['inverted'],['U0346.bmp'],['female'],[[6]],['male'],[[0]],[[0.3723606]],LM
8,[[15]],[[9]],[[16]],['low holistic'],['right'],['upright'],['U0335.bmp'],['female'],[[12]],['male'],[[0]],[[0.27777908]],LM
9,[[15]],[[10]],[[13]],['low holistic'],['right'],['inverted'],['U0181.bmp'],['male'],[[8]],['female'],[[0]],[[0.12378829]],LM
10,[[15]],[[11]],[[2]],['high holistic'],['right'],['upright'],['U0014.bmp'],['male'],[[10]],['male'],[[1]],[[0.49302852]],LM
11,[[15]],[[12]],[[9]],['high holistic'],['right'],['upright'],['U0155.bmp'],['female'],[[8]],['female'],[[1]],[[0.09980305]],LM
12,[[15]],[[13]],[[9]],['high holistic'],['left'],['upright'],['U0155.bmp'],['female'],[[12]],['female'],[[1]],[[0.39953716]],LM
13,[[15]],[[14]],[[11]],['high holistic'],['left'],['inverted'],['U0164.bmp'],['female'],[[12]],['female'],[[1]],[[0.32019796]],LM
14,[[15]],[[15]],[[16]],['high holistic'],['left'],['upright'],['U0335.bmp'],['female'],[[12]],['female'],[[1]],[[0.321272]],LM
15,[[15]],[[16]],[[18]],['high holistic'],['right'],['inverted'],['U0359.bmp'],['male'],[[6]],['male'],[[1]],[[0.28758541]],LM
16,[[15]],[[17]],[[16]],['low holistic'],['left'],['upright'],['U0335.bmp'],['female'],[[4]],['female'],[[1]],[[0.1372141]],LM
17,[[15]],[[18]],[[4]],['high holistic'],['left'],['upright'],['U0061.bmp'],['female'],[[8]],['female'],[[1]],[[0.1476505]],LM
18,[[15]],[[19]],[[8]],['low holistic'],['left'],['upright'],['U0137.bmp'],['male'],[[10]],['female'],[[0]],[[0.10976928]],LM
19,[[15]],[[20]],[[12]],['high holistic'],['left'],['upright'],['U0178.bmp'],['male'],[[2]],['male'],[[1]],[[0.00208111]],LM
20,[[15]],[[21]],[[4]],['high holistic'],['right'],['inverted'],['U0061.bmp'],['female'],[[8]],['male'],[[0]],[[0.09891825]],LM
21,[[15]],[[22]],[[12]],['high holistic'],['right'],['inverted'],['U0178.bmp'],['male'],[[6]],['male'],[[1]],[[0.10394045]],LM
22,[[15]],[[23]],[[4]],['high holistic'],['left'],['inverted'],['U0061.bmp'],['female'],[[2]],['female'],[[1]],[[0.16216644]],LM
23,[[15]],[[24]],[[10]],['high holistic'],['fovea'],['inverted'],['U0159.bmp'],['male'],[[0]],['male'],[[1]],[[0.13253457]],LM
24,[[15]],[[25]],[[19]],['low holistic'],['left'],['inverted'],['U0361.bmp'],['female'],[[4]],['female'],[[1]],[[0.53428722]],LM
25,[[15]],[[26]],[[17]],['low holistic'],['left'],['upright'],['U0346.bmp'],['female'],[[12]],['male'],[[0]],[[0.72244453]],LM
26,[[15]],[[27]],[[19]],['low holistic'],['left'],['inverted'],['U0361.bmp'],['female'],[[6]],['female'],[[1]],[[0.61509135]],LM
27,[[15]],[[28]],[[18]],['low holistic'],['fovea'],['inverted'],['U0359.bmp'],['male'],[[0]],['male'],[[1]],[[0.31723402]],LM
28,[[15]],[[29]],[[20]],['low holistic'],['left'],['upright'],['U0362.bmp'],['male'],[[8]],['male'],[[1]],[[0.34386072]],LM
29,[[15]],[[30]],[[13]],['high holistic'],['fovea'],['upright'],['U0181.bmp'],['female'],[[0]],['female'],[[1]],[[0.32951245]],LM
30,[[15]],[[31]],[[13]],['low holistic'],['right'],['inverted'],['U0181.bmp'],['male'],[[6]],['male'],[[1]],[[0.56498784]],LM
31,[[15]],[[32]],[[20]],['low holistic'],['left'],['upright'],['U0362.bmp'],['male'],[[12]],['male'],[[1]],[[0.41484567]],LM
32,[[15]],[[33]],[[15]],['low holistic'],['right'],['inverted'],['U0312.bmp'],['male'],[[12]],['male'],[[1]],[[0.24549272]],LM
33,[[15]],[[34]],[[14]],['low holistic'],['left'],['upright'],['U0228.bmp'],['male'],[[4]],['male'],[[1]],[[0.22095344]],LM
34,[[15]],[[35]],[[17]],['high holistic'],['left'],['upright'],['U0346.bmp'],['male'],[[2]],['male'],[[1]],[[0.22801877]],LM
35,[[15]],[[36]],[[4]],['high holistic'],['right'],['upright'],['U0061.bmp'],['female'],[[2]],['female'],[[1]],[[0.1775597]],LM
36,[[15]],[[37]],[[16]],['high holistic'],['right'],['upright'],['U0335.bmp'],['female'],[[4]],['female'],[[1]],[[0.34726372]],LM
37,[[15]],[[38]],[[12]],['low holistic'],['left'],['upright'],['U0178.bmp'],['female'],[[4]],['female'],[[1]],[[0.11047385]],LM
38,[[15]],[[39]],[[7]],['high holistic'],['left'],['upright'],['U0107.bmp'],['female'],[[10]],['male'],[[0]],[[0.34761334]],LM
39,[[15]],[[40]],[[20]],['high holistic'],['left'],['upright'],['U0362.bmp'],['female'],[[8]],['female'],[[1]],[[1.4510259]],LM
40,[[15]],[[41]],[[14]],['low holistic'],['left'],['inverted'],['U0228.bmp'],['male'],[[8]],['male'],[[1]],[[0.8355651]],LM
41,[[15]],[[42]],[[8]],['high holistic'],['right'],['upright'],['U0137.bmp'],['female'],[[6]],['female'],[[1]],[[1.1611079]],LM
42,[[15]],[[43]],[[6]],['low holistic'],['fovea'],['upright'],['U0106.bmp'],['male'],[[0]],['male'],[[1]],[[0.9627278]],LM
43,[[15]],[[44]],[[9]],['high holistic'],['right'],['inverted'],['U0155.bmp'],['female'],[[8]],['female'],[[1]],[[0.54911918]],LM
44,[[15]],[[45]],[[9]],['low holistic'],['right'],['upright'],['U0155.bmp'],['male'],[[10]],['female'],[[0]],[[1.92649898]],LM
45,[[15]],[[46]],[[16]],['high holistic'],['right'],['upright'],['U0335.bmp'],['female'],[[8]],['female'],[[1]],[[0.95300078]],LM
46,[[15]],[[47]],[[14]],['high holistic'],['right'],['upright'],['U0228.bmp'],['male'],[[2]],['male'],[[1]],[[0.3465015]],LM
47,[[15]],[[48]],[[12]],['high holistic'],['right'],['inverted'],['U0178.bmp'],['male'],[[10]],['female'],[[0]],[[0.84631435]],LM
48,[[15]],[[49]],[[7]],['low holistic'],['left'],['upright'],['U0107.bmp'],['female'],[[2]],['female'],[[1]],[[0.54877154]],LM
49,[[15]],[[50]],[[5]],['high holistic'],['right'],['upright'],['U0076.bmp'],['female'],[[12]],['female'],[[1]],[[0.7901928]],LM
50,[[15]],[[51]],[[1]],['low holistic'],['left'],['inverted'],['U0006.bmp'],['female'],[[2]],['female'],[[1]],[[0.67170643]],LM
51,[[15]],[[52]],[[17]],['high holistic'],['right'],['inverted'],['U0346.bmp'],['male'],[[6]],['male'],[[1]],[[0.35600422]],LM
52,[[15]],[[53]],[[10]],['low holistic'],['fovea'],['inverted'],['U0159.bmp'],['female'],[[0]],['female'],[[1]],[[0.32562051]],LM
53,[[15]],[[54]],[[7]],['low holistic'],['right'],['upright'],['U0107.bmp'],['female'],[[8]],['female'],[[1]],[[0.64106996]],LM
54,[[15]],[[55]],[[14]],['low holistic'],['left'],['upright'],['U0228.bmp'],['male'],[[2]],['male'],[[1]],[[0.75267278]],LM
55,[[15]],[[56]],[[9]],['high holistic'],['left'],['inverted'],['U0155.bmp'],['female'],[[12]],['female'],[[1]],[[2.04269437]],LM
56,[[15]],[[57]],[[9]],['low holistic'],['left'],['inverted'],['U0155.bmp'],['male'],[[4]],['male'],[[1]],[[1.20773996]],LM
57,[[15]],[[58]],[[5]],['high holistic'],['left'],['inverted'],['U0076.bmp'],['female'],[[2]],['female'],[[1]],[[0.74276541]],LM
58,[[15]],[[59]],[[15]],['high holistic'],['right'],['inverted'],['U0312.bmp'],['male'],[[2]],['female'],[[0]],[[0.95480062]],LM
59,[[15]],[[60]],[[4]],['high holistic'],['left'],['upright'],['U0061.bmp'],['female'],[[2]],['male'],[[0]],[[0.62793096]],LM
60,[[15]],[[61]],[[10]],['low holistic'],['left'],['upright'],['U0159.bmp'],['female'],[[10]],['female'],[[1]],[[0.45151598]],LM
61,[[15]],[[62]],[[13]],['low holistic'],['left'],['inverted'],['U0181.bmp'],['male'],[[8]],['male'],[[1]],[[0.74484519]],LM
62,[[15]],[[63]],[[14]],['high holistic'],['right'],['inverted'],['U0228.bmp'],['male'],[[6]],['male'],[[1]],[[0.42088061]],LM
63,[[15]],[[64]],[[19]],['high holistic'],['left'],['inverted'],['U0361.bmp'],['female'],[[10]],['male'],[[0]],[[0.45005205]],LM
64,[[15]],[[65]],[[8]],['low holistic'],['right'],['inverted'],['U0137.bmp'],['male'],[[10]],['female'],[[0]],[[0.45688002]],LM
65,[[15]],[[66]],[[20]],['high holistic'],['right'],['inverted'],['U0362.bmp'],['female'],[[12]],['female'],[[1]],[[0.36718751]],LM
66,[[15]],[[67]],[[9]],['high holistic'],['left'],['upright'],['U0155.bmp'],['female'],[[12]],['male'],[[0]],[[0.68072393]],LM
67,[[15]],[[68]],[[13]],['high holistic'],['left'],['inverted'],['U0181.bmp'],['female'],[[12]],['female'],[[1]],[[0.84481134]],LM
68,[[15]],[[69]],[[15]],['low holistic'],['fovea'],['upright'],['U0312.bmp'],['male'],[[0]],['male'],[[1]],[[0.61170587]],LM
69,[[15]],[[70]],[[3]],['high holistic'],['left'],['inverted'],['U0020.bmp'],['male'],[[12]],['female'],[[0]],[[0.45099361]],LM
70,[[15]],[[71]],[[17]],['high holistic'],['left'],['inverted'],['U0346.bmp'],['male'],[[6]],['male'],[[1]],[[0.9059091]],LM
71,[[15]],[[72]],[[13]],['high holistic'],['right'],['inverted'],['U0181.bmp'],['female'],[[4]],['female'],[[1]],[[0.22850758]],LM
72,[[15]],[[73]],[[4]],['low holistic'],['right'],['upright'],['U0061.bmp'],['female'],[[10]],['female'],[[1]],[[0.30864605]],LM
73,[[15]],[[74]],[[12]],['low holistic'],['right'],['upright'],['U0178.bmp'],['female'],[[4]],['female'],[[1]],[[0.2640058]],LM
74,[[15]],[[75]],[[14]],['high holistic'],['right'],['upright'],['U0228.bmp'],['male'],[[8]],['male'],[[1]],[[0.2442065]],LM
75,[[15]],[[76]],[[4]],['high holistic'],['left'],['upright'],['U0061.bmp'],['female'],[[6]],['female'],[[1]],[[0.35651167]],LM
76,[[15]],[[77]],[[2]],['high holistic'],['left'],['inverted'],['U0014.bmp'],['male'],[[6]],['male'],[[1]],[[0.87038504]],LM
77,[[15]],[[78]],[[7]],['high holistic'],['right'],['upright'],['U0107.bmp'],['female'],[[4]],['female'],[[1]],[[0.53748331]],LM
78,[[15]],[[79]],[[18]],['high holistic'],['left'],['inverted'],['U0359.bmp'],['male'],[[8]],['male'],[[1]],[[0.32565617]],LM
79,[[15]],[[80]],[[16]],['low holistic'],['right'],['upright'],['U0335.bmp'],['female'],[[10]],['female'],[[1]],[[0.34474092]],LM
80,[[15]],[[81]],[[16]],['high holistic'],['fovea'],['inverted'],['U0335.bmp'],['female'],[[0]],['male'],[[0]],[[0.44176834]],LM
81,[[15]],[[82]],[[2]],['low holistic'],['left'],['upright'],['U0014.bmp'],['male'],[[10]],['male'],[[1]],[[0.28869903]],LM
82,[[15]],[[83]],[[9]],['high holistic'],['left'],['inverted'],['U0155.bmp'],['female'],[[12]],['female'],[[1]],[[0.36516156]],LM
83,[[15]],[[84]],[[5]],['low holistic'],['right'],['upright'],['U0076.bmp'],['male'],[[8]],['male'],[[1]],[[0.21507081]],LM
84,[[15]],[[85]],[[1]],['high holistic'],['right'],['inverted'],['U0006.bmp'],['female'],[[12]],['female'],[[1]],[[0.293061]],LM
85,[[15]],[[86]],[[12]],['low holistic'],['left'],['inverted'],['U0178.bmp'],['female'],[[6]],['female'],[[1]],[[0.27445564]],LM
86,[[15]],[[87]],[[14]],['high holistic'],['right'],['upright'],['U0228.bmp'],['male'],[[6]],['male'],[[1]],[[0.26957545]],LM
87,[[15]],[[88]],[[15]],['low holistic'],['right'],['upright'],['U0312.bmp'],['male'],[[4]],['male'],[[1]],[[0.25186324]],LM
88,[[15]],[[89]],[[19]],['high holistic'],['left'],['upright'],['U0361.bmp'],['female'],[[2]],['female'],[[1]],[[0.33711124]],LM
89,[[15]],[[90]],[[13]],['high holistic'],['left'],['upright'],['U0181.bmp'],['female'],[[10]],['female'],[[1]],[[0.30156538]],LM
90,[[15]],[[91]],[[11]],['low holistic'],['right'],['upright'],['U0164.bmp'],['female'],[[2]],['female'],[[1]],[[0.44927046]],LM
91,[[15]],[[92]],[[17]],['low holistic'],['left'],['upright'],['U0346.bmp'],['female'],[[6]],['female'],[[1]],[[0.31048566]],LM
92,[[15]],[[93]],[[8]],['high holistic'],['right'],['upright'],['U0137.bmp'],['female'],[[8]],['female'],[[1]],[[0.33047134]],LM
93,[[15]],[[94]],[[15]],['low holistic'],['left'],['upright'],['U0312.bmp'],['male'],[[6]],['male'],[[1]],[[0.26941199]],LM
94,[[15]],[[95]],[[16]],['high holistic'],['right'],['upright'],['U0335.bmp'],['female'],[[8]],['female'],[[1]],[[0.42509449]],LM
95,[[15]],[[96]],[[9]],['high holistic'],['right'],['upright'],['U0155.bmp'],['female'],[[6]],['male'],[[0]],[[0.45613639]],LM
96,[[15]],[[97]],[[20]],['high holistic'],['right'],['upright'],['U0362.bmp'],['female'],[[4]],['male'],[[0]],[[0.32768646]],LM
97,[[15]],[[98]],[[17]],['high holistic'],['right'],['inverted'],['U0346.bmp'],['male'],[[4]],['male'],[[1]],[[1.55445365]],LM
98,[[15]],[[99]],[[18]],['high holistic'],['fovea'],['inverted'],['U0359.bmp'],['male'],[[0]],['female'],[[0]],[[0.67508119]],LM
99,[[15]],[[100]],[[16]],['high holistic'],['left'],['inverted'],['U0335.bmp'],['female'],[[12]],['male'],[[0]],[[1.52070027]],LM
100,[[15]],[[101]],[[18]],['high holistic'],['left'],['upright'],['U0359.bmp'],['male'],[[4]],['male'],[[1]],[[0.39667212]],LM
101,[[15]],[[102]],[[18]],['high holistic'],['right'],['upright'],['U0359.bmp'],['male'],[[10]],['male'],[[1]],[[0.30817378]],LM
102,[[15]],[[103]],[[5]],['low holistic'],['left'],['inverted'],['U0076.bmp'],['male'],[[8]],['male'],[[1]],[[0.51198864]],LM
103,[[15]],[[104]],[[4]],['low holistic'],['right'],['inverted'],['U0061.bmp'],['female'],[[10]],['female'],[[1]],[[0.5076154]],LM
104,[[15]],[[105]],[[11]],['high holistic'],['right'],['inverted'],['U0164.bmp'],['female'],[[2]],['female'],[[1]],[[0.40547748]],LM
105,[[15]],[[106]],[[10]],['low holistic'],['left'],['inverted'],['U0159.bmp'],['female'],[[10]],['female'],[[1]],[[1.31348974]],LM
106,[[15]],[[107]],[[9]],['high holistic'],['right'],['upright'],['U0155.bmp'],['female'],[[4]],['female'],[[1]],[[0.96399104]],LM
107,[[15]],[[108]],[[11]],['high holistic'],['fovea'],['upright'],['U0164.bmp'],['female'],[[0]],['female'],[[1]],[[0.51029234]],LM
108,[[15]],[[109]],[[18]],['low holistic'],['right'],['upright'],['U0359.bmp'],['male'],[[6]],['male'],[[1]],[[0.56930867]],LM
109,[[15]],[[110]],[[12]],['low holistic'],['left'],['upright'],['U0178.bmp'],['female'],[[12]],['female'],[[1]],[[0.31483562]],LM
110,[[15]],[[111]],[[15]],['high holistic'],['left'],['inverted'],['U0312.bmp'],['male'],[[10]],['male'],[[1]],[[0.50222746]],LM
111,[[15]],[[112]],[[16]],['high holistic'],['left'],['upright'],['U0335.bmp'],['female'],[[4]],['female'],[[1]],[[0.20951169]],LM
112,[[15]],[[113]],[[4]],['low holistic'],['left'],['upright'],['U0061.bmp'],['female'],[[2]],['female'],[[1]],[[0.34494101]],LM
113,[[15]],[[114]],[[19]],['high holistic'],['right'],['upright'],['U0361.bmp'],['female'],[[6]],['female'],[[1]],[[0.28359794]],LM
114,[[15]],[[115]],[[15]],['high holistic'],['left'],['upright'],['U0312.bmp'],['male'],[[10]],['male'],[[1]],[[0.29676251]],LM
115,[[15]],[[116]],[[20]],['low holistic'],['right'],['inverted'],['U0362.bmp'],['male'],[[8]],['male'],[[1]],[[0.99557073]],LM
116,[[15]],[[117]],[[1]],['low holistic'],['right'],['inverted'],['U0006.bmp'],['female'],[[6]],['female'],[[1]],[[0.24452087]],LM
117,[[15]],[[118]],[[9]],['low holistic'],['left'],['inverted'],['U0155.bmp'],['male'],[[12]],['male'],[[1]],[[0.30767556]],LM
118,[[15]],[[119]],[[14]],['high holistic'],['left'],['inverted'],['U0228.bmp'],['male'],[[10]],['male'],[[1]],[[0.45307135]],LM
119,[[15]],[[120]],[[13]],['low holistic'],['left'],['upright'],['U0181.bmp'],['male'],[[10]],['male'],[[1]],[[0.28436669]],LM
120,[[15]],[[121]],[[6]],['high holistic'],['left'],['upright'],['U0106.bmp'],['female'],[[6]],['female'],[[1]],[[0.33719152]],LM
121,[[15]],[[122]],[[8]],['high holistic'],['left'],['inverted'],['U0137.bmp'],['female'],[[6]],['male'],[[0]],[[1.65165269]],LM
122,[[15]],[[123]],[[14]],['high holistic'],['right'],['inverted'],['U0228.bmp'],['male'],[[8]],['male'],[[1]],[[0.88926326]],LM
123,[[15]],[[124]],[[2]],['low holistic'],['fovea'],['upright'],['U0014.bmp'],['male'],[[0]],['male'],[[1]],[[0.41372877]],LM
124,[[15]],[[125]],[[5]],['high holistic'],['left'],['inverted'],['U0076.bmp'],['female'],[[2]],['male'],[[0]],[[0.67613652]],LM
125,[[15]],[[126]],[[4]],['low holistic'],['right'],['upright'],['U0061.bmp'],['female'],[[2]],['female'],[[1]],[[0.27226141]],LM
126,[[15]],[[127]],[[13]],['low holistic'],['right'],['upright'],['U0181.bmp'],['male'],[[4]],['female'],[[0]],[[0.22243521]],LM
127,[[15]],[[128]],[[11]],['high holistic'],['fovea'],['inverted'],['U0164.bmp'],['female'],[[0]],['female'],[[1]],[[1.28615566]],LM
128,[[15]],[[129]],[[13]],['high holistic'],['left'],['upright'],['U0181.bmp'],['female'],[[2]],['female'],[[1]],[[0.40309357]],LM
129,[[15]],[[130]],[[5]],['low holistic'],['right'],['inverted'],['U0076.bmp'],['male'],[[12]],['male'],[[1]],[[0.43381731]],LM
130,[[15]],[[131]],[[5]],['high holistic'],['right'],['inverted'],['U0076.bmp'],['female'],[[2]],['male'],[[0]],[[1.27604996]],LM
131,[[15]],[[132]],[[19]],['low holistic'],['right'],['inverted'],['U0361.bmp'],['female'],[[12]],['female'],[[1]],[[0.55327872]],LM
132,[[15]],[[133]],[[1]],['high holistic'],['right'],['inverted'],['U0006.bmp'],['female'],[[12]],['female'],[[1]],[[0.71646963]],LM
133,[[15]],[[134]],[[19]],['high holistic'],['left'],['inverted'],['U0361.bmp'],['female'],[[6]],['female'],[[1]],[[1.66245034]],LM
134,[[15]],[[135]],[[3]],['high holistic'],['right'],['inverted'],['U0020.bmp'],['male'],[[10]],['female'],[[0]],[[0.27629979]],LM
135,[[15]],[[136]],[[20]],['low holistic'],['left'],['inverted'],['U0362.bmp'],['male'],[[6]],['male'],[[1]],[[0.40865698]],LM
136,[[15]],[[137]],[[19]],['high holistic'],['left'],['inverted'],['U0361.bmp'],['female'],[[10]],['female'],[[1]],[[0.48007079]],LM
137,[[15]],[[138]],[[7]],['high holistic'],['fovea'],['inverted'],['U0107.bmp'],['female'],[[0]],['male'],[[0]],[[0.91676421]],LM
138,[[15]],[[139]],[[4]],['high holistic'],['right'],['upright'],['U0061.bmp'],['female'],[[8]],['female'],[[1]],[[0.43309637]],LM
139,[[15]],[[140]],[[20]],['low holistic'],['fovea'],['upright'],['U0362.bmp'],['male'],[[0]],['male'],[[1]],[[1.59897461]],LM
140,[[15]],[[141]],[[15]],['low holistic'],['right'],['upright'],['U0312.bmp'],['male'],[[12]],['male'],[[1]],[[0.25613555]],LM
141,[[15]],[[142]],[[11]],['low holistic'],['left'],['inverted'],['U0164.bmp'],['female'],[[12]],['female'],[[1]],[[0.3806566]],LM
142,[[15]],[[143]],[[10]],['high holistic'],['fovea'],['upright'],['U0159.bmp'],['male'],[[0]],['male'],[[1]],[[0.05360922]],LM
143,[[15]],[[144]],[[15]],['low holistic'],['left'],['upright'],['U0312.bmp'],['male'],[[2]],['male'],[[1]],[[0.00010688]],LM
144,[[15]],[[145]],[[9]],['low holistic'],['left'],['inverted'],['U0155.bmp'],['male'],[[10]],['male'],[[1]],[[0.17971785]],LM
145,[[15]],[[146]],[[13]],['low holistic'],['fovea'],['upright'],['U0181.bmp'],['male'],[[0]],['male'],[[1]],[[0.00012264]],LM
146,[[15]],[[147]],[[10]],['low holistic'],['fovea'],['upright'],['U0159.bmp'],['female'],[[0]],['female'],[[1]],[[0.03546836]],LM
147,[[15]],[[148]],[[17]],['low holistic'],['right'],['inverted'],['U0346.bmp'],['female'],[[6]],['male'],[[0]],[[0.00010042]],LM
148,[[15]],[[149]],[[12]],['low holistic'],['left'],['upright'],['U0178.bmp'],['female'],[[4]],['female'],[[1]],[[2.2667135]],LM
149,[[15]],[[150]],[[10]],['low holistic'],['fovea'],['upright'],['U0159.bmp'],['female'],[[0]],['female'],[[1]],[[0.0001082]],LM
150,[[15]],[[151]],[[13]],['low holistic'],['right'],['upright'],['U0181.bmp'],['male'],[[8]],['male'],[[1]],[[0.03931907]],LM
151,[[15]],[[152]],[[19]],['low holistic'],['left'],['upright'],['U0361.bmp'],['female'],[[6]],['female'],[[1]],[[0.27798491]],LM
152,[[15]],[[153]],[[6]],['low holistic'],['right'],['upright'],['U0106.bmp'],['male'],[[12]],['male'],[[1]],[[0.08294495]],LM
153,[[15]],[[154]],[[1]],['low holistic'],['right'],['inverted'],['U0006.bmp'],['female'],[[2]],['female'],[[1]],[[1.69566316]],LM
154,[[15]],[[155]],[[2]],['high holistic'],['fovea'],['inverted'],['U0014.bmp'],['male'],[[0]],['female'],[[0]],[[0.46773296]],LM
155,[[15]],[[156]],[[3]],['high holistic'],['right'],['inverted'],['U0020.bmp'],['male'],[[2]],['female'],[[0]],[[0.07405022]],LM
156,[[15]],[[157]],[[4]],['low holistic'],['right'],['upright'],['U0061.bmp'],['female'],[[8]],['female'],[[1]],[[0.07755936]],LM
157,[[15]],[[158]],[[11]],['low holistic'],['right'],['inverted'],['U0164.bmp'],['female'],[[4]],['female'],[[1]],[[0.13041215]],LM
158,[[15]],[[159]],[[8]],['high holistic'],['fovea'],['upright'],['U0137.bmp'],['female'],[[0]],['male'],[[0]],[[0.00052395]],LM
159,[[15]],[[160]],[[14]],['high holistic'],['right'],['upright'],['U0228.bmp'],['male'],[[12]],['male'],[[1]],[[0.08518757]],LM
160,[[15]],[[161]],[[19]],['low holistic'],['left'],['upright'],['U0361.bmp'],['female'],[[12]],['female'],[[1]],[[0.01066468]],LM
161,[[15]],[[162]],[[2]],['low holistic'],['left'],['inverted'],['U0014.bmp'],['male'],[[8]],['male'],[[1]],[[0.76380209]],LM
162,[[15]],[[163]],[[9]],['high holistic'],['right'],['inverted'],['U0155.bmp'],['female'],[[4]],['male'],[[0]],[[0.395474]],LM
163,[[15]],[[164]],[[16]],['high holistic'],['left'],['upright'],['U0335.bmp'],['female'],[[8]],['female'],[[1]],[[0.23582753]],LM
164,[[15]],[[165]],[[9]],['low holistic'],['left'],['inverted'],['U0155.bmp'],['male'],[[12]],['male'],[[1]],[[0.25705612]],LM
165,[[15]],[[166]],[[3]],['high holistic'],['left'],['upright'],['U0020.bmp'],['male'],[[6]],['male'],[[1]],[[0.69467092]],LM
166,[[15]],[[167]],[[10]],['low holistic'],['right'],['upright'],['U0159.bmp'],['female'],[[6]],['female'],[[1]],[[0.21938486]],LM
167,[[15]],[[168]],[[3]],['low holistic'],['right'],['upright'],['U0020.bmp'],['female'],[[4]],['female'],[[1]],[[0.76389355]],LM
168,[[15]],[[169]],[[7]],['high holistic'],['right'],['inverted'],['U0107.bmp'],['female'],[[6]],['male'],[[0]],[[0.61994358]],LM
169,[[15]],[[170]],[[12]],['low holistic'],['right'],['inverted'],['U0178.bmp'],['female'],[[10]],['female'],[[1]],[[0.41202713]],LM
170,[[15]],[[171]],[[20]],['low holistic'],['right'],['inverted'],['U0362.bmp'],['male'],[[8]],['male'],[[1]],[[1.36346106]],LM
171,[[15]],[[172]],[[4]],['high holistic'],['left'],['inverted'],['U0061.bmp'],['female'],[[6]],['female'],[[1]],[[0.52397172]],LM
172,[[15]],[[173]],[[20]],['high holistic'],['right'],['upright'],['U0362.bmp'],['female'],[[10]],['female'],[[1]],[[0.32856071]],LM
173,[[15]],[[174]],[[12]],['low holistic'],['right'],['upright'],['U0178.bmp'],['female'],[[12]],['female'],[[1]],[[0.21799939]],LM
174,[[15]],[[175]],[[2]],['low holistic'],['right'],['upright'],['U0014.bmp'],['male'],[[6]],['male'],[[1]],[[0.17134453]],LM
175,[[15]],[[176]],[[7]],['low holistic'],['left'],['upright'],['U0107.bmp'],['female'],[[8]],['female'],[[1]],[[0.98009549]],LM
176,[[15]],[[177]],[[18]],['low holistic'],['right'],['upright'],['U0359.bmp'],['male'],[[12]],['male'],[[1]],[[0.33934517]],LM
177,[[15]],[[178]],[[13]],['low holistic'],['fovea'],['inverted'],['U0181.bmp'],['male'],[[0]],['male'],[[1]],[[0.43130092]],LM
178,[[15]],[[179]],[[10]],['low holistic'],['right'],['upright'],['U0159.bmp'],['female'],[[8]],['female'],[[1]],[[0.28412669]],LM
179,[[15]],[[180]],[[1]],['low holistic'],['right'],['inverted'],['U0006.bmp'],['female'],[[8]],['female'],[[1]],[[0.64111671]],LM
180,[[15]],[[181]],[[3]],['high holistic'],['left'],['upright'],['U0020.bmp'],['male'],[[2]],['male'],[[1]],[[0.67231428]],LM
181,[[15]],[[182]],[[8]],['low holistic'],['right'],['inverted'],['U0137.bmp'],['male'],[[2]],['male'],[[1]],[[2.50079378]],LM
182,[[15]],[[183]],[[9]],['low holistic'],['left'],['upright'],['U0155.bmp'],['male'],[[10]],['male'],[[1]],[[0.36827174]],LM
183,[[15]],[[184]],[[7]],['low holistic'],['right'],['upright'],['U0107.bmp'],['female'],[[8]],['female'],[[1]],[[0.18336193]],LM
184,[[15]],[[185]],[[3]],['low holistic'],['left'],['inverted'],['U0020.bmp'],['female'],[[8]],['female'],[[1]],[[1.26594044]],LM
185,[[15]],[[186]],[[19]],['low holistic'],['left'],['inverted'],['U0361.bmp'],['female'],[[10]],['female'],[[1]],[[0.20723967]],LM
186,[[15]],[[187]],[[2]],['low holistic'],['left'],['inverted'],['U0014.bmp'],['male'],[[6]],['male'],[[1]],[[1.14372616]],LM
187,[[15]],[[188]],[[3]],['high holistic'],['right'],['inverted'],['U0020.bmp'],['male'],[[8]],['male'],[[1]],[[1.29891727]],LM
188,[[15]],[[189]],[[19]],['low holistic'],['left'],['inverted'],['U0361.bmp'],['female'],[[6]],['female'],[[1]],[[0.17465977]],LM
189,[[15]],[[190]],[[20]],['high holistic'],['left'],['upright'],['U0362.bmp'],['female'],[[10]],['female'],[[1]],[[0.19985984]],LM
190,[[15]],[[191]],[[2]],['low holistic'],['left'],['upright'],['U0014.bmp'],['male'],[[4]],['male'],[[1]],[[0.0560476]],LM
191,[[15]],[[192]],[[15]],['low holistic'],['right'],['upright'],['U0312.bmp'],['male'],[[2]],['male'],[[1]],[[3.03730841]],LM
192,[[15]],[[193]],[[15]],['low holistic'],['left'],['upright'],['U0312.bmp'],['male'],[[4]],['male'],[[1]],[[1.00988779]],LM
193,[[15]],[[194]],[[3]],['high holistic'],['right'],['upright'],['U0020.bmp'],['male'],[[12]],['male'],[[1]],[[0.29945689]],LM
194,[[15]],[[195]],[[2]],['low holistic'],['left'],['inverted'],['U0014.bmp'],['male'],[[8]],['male'],[[1]],[[0.50216277]],LM
195,[[15]],[[196]],[[14]],['high holistic'],['right'],['inverted'],['U0228.bmp'],['male'],[[4]],['male'],[[1]],[[0.13100115]],LM
196,[[15]],[[197]],[[8]],['low holistic'],['right'],['upright'],['U0137.bmp'],['male'],[[2]],['male'],[[1]],[[0.00010701]],LM
197,[[15]],[[198]],[[3]],['low holistic'],['right'],['upright'],['U0020.bmp'],['female'],[[12]],['female'],[[1]],[[0.01365811]],LM
198,[[15]],[[199]],[[7]],['low holistic'],['right'],['upright'],['U0107.bmp'],['female'],[[6]],['female'],[[1]],[[9.90405679e-05]],LM
199,[[15]],[[200]],[[6]],['high holistic'],['right'],['inverted'],['U0106.bmp'],['female'],[[8]],['male'],[[0]],[[0.73372771]],LM
200,[[15]],[[201]],[[10]],['low holistic'],['left'],['upright'],['U0159.bmp'],['female'],[[8]],['female'],[[1]],[[0.19836301]],LM
201,[[15]],[[202]],[[19]],['low holistic'],['right'],['inverted'],['U0361.bmp'],['female'],[[6]],['female'],[[1]],[[0.0004415]],LM
202,[[15]],[[203]],[[18]],['low holistic'],['left'],['upright'],['U0359.bmp'],['male'],[[10]],['male'],[[1]],[[0.06269209]],LM
203,[[15]],[[204]],[[14]],['high holistic'],['left'],['inverted'],['U0228.bmp'],['male'],[[2]],['male'],[[1]],[[0.14848107]],LM
204,[[15]],[[205]],[[19]],['high holistic'],['right'],['upright'],['U0361.bmp'],['female'],[[2]],['male'],[[0]],[[0.39794399]],LM
205,[[15]],[[206]],[[2]],['high holistic'],['right'],['inverted'],['U0014.bmp'],['male'],[[12]],['male'],[[1]],[[1.97503687]],LM
206,[[15]],[[207]],[[14]],['high holistic'],['right'],['inverted'],['U0228.bmp'],['male'],[[12]],['female'],[[0]],[[0.00010869]],LM
207,[[15]],[[208]],[[11]],['low holistic'],['left'],['inverted'],['U0164.bmp'],['female'],[[8]],['female'],[[1]],[[0.15953402]],LM
208,[[15]],[[209]],[[16]],['low holistic'],['left'],['inverted'],['U0335.bmp'],['female'],[[4]],['female'],[[1]],[[0.20058376]],LM
209,[[15]],[[210]],[[17]],['high holistic'],['left'],['upright'],['U0346.bmp'],['male'],[[2]],['male'],[[1]],[[9.98759642e-05]],LM
210,[[15]],[[211]],[[19]],['high holistic'],['right'],['upright'],['U0361.bmp'],['female'],[[6]],['male'],[[0]],[[0.09009999]],LM
211,[[15]],[[212]],[[16]],['low holistic'],['left'],['upright'],['U0335.bmp'],['female'],[[4]],['female'],[[1]],[[0.32405041]],LM
212,[[15]],[[213]],[[19]],['low holistic'],['left'],['upright'],['U0361.bmp'],['female'],[[12]],['female'],[[1]],[[0.0080074]],LM
213,[[15]],[[214]],[[6]],['low holistic'],['left'],['upright'],['U0106.bmp'],['male'],[[2]],['female'],[[0]],[[0.00010636]],LM
214,[[15]],[[215]],[[2]],['high holistic'],['left'],['upright'],['U0014.bmp'],['male'],[[10]],['male'],[[1]],[[0.17689921]],LM
215,[[15]],[[216]],[[2]],['high holistic'],['left'],['upright'],['U0014.bmp'],['male'],[[2]],['male'],[[1]],[[0.00010813]],LM
216,[[15]],[[217]],[[6]],['high holistic'],['left'],['upright'],['U0106.bmp'],['female'],[[12]],['female'],[[1]],[[0.2255329]],LM
217,[[15]],[[218]],[[10]],['low holistic'],['left'],['inverted'],['U0159.bmp'],['female'],[[12]],['female'],[[1]],[[0.11921915]],LM
218,[[15]],[[219]],[[11]],['high holistic'],['left'],['upright'],['U0164.bmp'],['female'],[[10]],['female'],[[1]],[[0.13960161]],LM
219,[[15]],[[220]],[[11]],['high holistic'],['right'],['inverted'],['U0164.bmp'],['female'],[[12]],['male'],[[0]],[[0.99634022]],LM
220,[[15]],[[221]],[[18]],['high holistic'],['right'],['inverted'],['U0359.bmp'],['male'],[[10]],['male'],[[1]],[[0.00011226]],LM
221,[[15]],[[222]],[[14]],['low holistic'],['right'],['upright'],['U0228.bmp'],['male'],[[10]],['male'],[[1]],[[9.73353162e-05]],LM
222,[[15]],[[223]],[[10]],['high holistic'],['left'],['inverted'],['U0159.bmp'],['male'],[[12]],['female'],[[0]],[[0.22193701]],LM
223,[[15]],[[224]],[[17]],['low holistic'],['fovea'],['inverted'],['U0346.bmp'],['female'],[[0]],['male'],[[0]],[[0.16457752]],LM
224,[[15]],[[225]],[[4]],['low holistic'],['right'],['upright'],['U0061.bmp'],['female'],[[12]],['female'],[[1]],[[0.18247086]],LM
225,[[15]],[[226]],[[11]],['low holistic'],['right'],['upright'],['U0164.bmp'],['female'],[[2]],['female'],[[1]],[[0.15039738]],LM
226,[[15]],[[227]],[[16]],['low holistic'],['left'],['inverted'],['U0335.bmp'],['female'],[[10]],['female'],[[1]],[[0.13513077]],LM
227,[[15]],[[228]],[[2]],['low holistic'],['left'],['inverted'],['U0014.bmp'],['male'],[[8]],['female'],[[0]],[[0.26750378]],LM
228,[[15]],[[229]],[[17]],['low holistic'],['right'],['upright'],['U0346.bmp'],['female'],[[12]],['female'],[[1]],[[0.32000225]],LM
229,[[15]],[[230]],[[11]],['high holistic'],['right'],['upright'],['U0164.bmp'],['female'],[[12]],['female'],[[1]],[[0.03523704]],LM
230,[[15]],[[231]],[[19]],['high holistic'],['left'],['inverted'],['U0361.bmp'],['female'],[[6]],['female'],[[1]],[[0.00010052]],LM
231,[[15]],[[232]],[[9]],['low holistic'],['right'],['inverted'],['U0155.bmp'],['male'],[[10]],['male'],[[1]],[[0.07450429]],LM
232,[[15]],[[233]],[[17]],['high holistic'],['right'],['inverted'],['U0346.bmp'],['male'],[[2]],['male'],[[1]],[[0.00012679]],LM
233,[[15]],[[234]],[[7]],['low holistic'],['right'],['inverted'],['U0107.bmp'],['female'],[[8]],['female'],[[1]],[[0.2071204]],LM
234,[[15]],[[235]],[[11]],['high holistic'],['left'],['upright'],['U0164.bmp'],['female'],[[4]],['male'],[[0]],[[0.06328073]],LM
235,[[15]],[[236]],[[8]],['high holistic'],['left'],['upright'],['U0137.bmp'],['female'],[[8]],['female'],[[1]],[[0.70076966]],LM
236,[[15]],[[237]],[[8]],['high holistic'],['fovea'],['inverted'],['U0137.bmp'],['female'],[[0]],['female'],[[1]],[[0.09602368]],LM
237,[[15]],[[238]],[[7]],['low holistic'],['left'],['upright'],['U0107.bmp'],['female'],[[12]],['female'],[[1]],[[0.29971491]],LM
238,[[15]],[[239]],[[14]],['high holistic'],['right'],['inverted'],['U0228.bmp'],['male'],[[8]],['male'],[[1]],[[2.0087972]],LM
239,[[15]],[[240]],[[13]],['low holistic'],['left'],['inverted'],['U0181.bmp'],['male'],[[6]],['male'],[[1]],[[0.24736539]],LM
240,[[15]],[[241]],[[9]],['high holistic'],['right'],['upright'],['U0155.bmp'],['female'],[[10]],['female'],[[1]],[[0.52561724]],LM
241,[[15]],[[242]],[[10]],['low holistic'],['right'],['inverted'],['U0159.bmp'],['female'],[[12]],['female'],[[1]],[[0.00787702]],LM
242,[[15]],[[243]],[[7]],['low holistic'],['left'],['inverted'],['U0107.bmp'],['female'],[[2]],['female'],[[1]],[[0.04168324]],LM
243,[[15]],[[244]],[[4]],['high holistic'],['right'],['upright'],['U0061.bmp'],['female'],[[8]],['female'],[[1]],[[0.00018251]],LM
244,[[15]],[[245]],[[1]],['high holistic'],['right'],['inverted'],['U0006.bmp'],['female'],[[6]],['female'],[[1]],[[0.06249338]],LM
245,[[15]],[[246]],[[18]],['high holistic'],['left'],['upright'],['U0359.bmp'],['male'],[[2]],['male'],[[1]],[[0.45996125]],LM
246,[[15]],[[247]],[[9]],['high holistic'],['right'],['upright'],['U0155.bmp'],['female'],[[10]],['female'],[[1]],[[0.4258851]],LM
247,[[15]],[[248]],[[5]],['high holistic'],['left'],['inverted'],['U0076.bmp'],['female'],[[12]],['female'],[[1]],[[0.21756884]],LM
248,[[15]],[[249]],[[13]],['low holistic'],['right'],['inverted'],['U0181.bmp'],['male'],[[12]],['male'],[[1]],[[0.00941501]],LM
249,[[15]],[[250]],[[16]],['low holistic'],['left'],['upright'],['U0335.bmp'],['female'],[[4]],['female'],[[1]],[[0.91214454]],LM
250,[[15]],[[251]],[[9]],['low holistic'],['left'],['upright'],['U0155.bmp'],['male'],[[12]],['male'],[[1]],[[0.43628484]],LM
251,[[15]],[[252]],[[16]],['low holistic'],['right'],['upright'],['U0335.bmp'],['female'],[[12]],['female'],[[1]],[[0.72320439]],LM
252,[[15]],[[253]],[[11]],['low holistic'],['fovea'],['upright'],['U0164.bmp'],['female'],[[0]],['female'],[[1]],[[2.15825778]],LM
253,[[15]],[[254]],[[12]],['low holistic'],['right'],['inverted'],['U0178.bmp'],['female'],[[10]],['female'],[[1]],[[0.1125761]],LM
254,[[15]],[[255]],[[17]],['low holistic'],['left'],['upright'],['U0346.bmp'],['female'],[[12]],['female'],[[1]],[[9.93330032e-05]],LM
255,[[15]],[[256]],[[3]],['high holistic'],['left'],['inverted'],['U0020.bmp'],['male'],[[10]],['female'],[[0]],[[0.13142296]],LM
256,[[15]],[[257]],[[6]],['high holistic'],['right'],['upright'],['U0106.bmp'],['female'],[[6]],['female'],[[1]],[[1.13250508]],LM
257,[[15]],[[258]],[[1]],['low holistic'],['left'],['inverted'],['U0006.bmp'],['female'],[[2]],['female'],[[1]],[[0.19938891]],LM
258,[[15]],[[259]],[[11]],['low holistic'],['right'],['inverted'],['U0164.bmp'],['female'],[[2]],['female'],[[1]],[[0.75212728]],LM
259,[[15]],[[260]],[[17]],['high holistic'],['right'],['inverted'],['U0346.bmp'],['male'],[[2]],['female'],[[0]],[[0.00016943]],LM
260,[[15]],[[261]],[[19]],['low holistic'],['left'],['inverted'],['U0361.bmp'],['female'],[[6]],['female'],[[1]],[[0.15586476]],LM
261,[[15]],[[262]],[[16]],['low holistic'],['left'],['inverted'],['U0335.bmp'],['female'],[[8]],['female'],[[1]],[[0.29390243]],LM
262,[[15]],[[263]],[[3]],['high holistic'],['left'],['inverted'],['U0020.bmp'],['male'],[[2]],['female'],[[0]],[[0.04828558]],LM
263,[[15]],[[264]],[[5]],['high holistic'],['left'],['inverted'],['U0076.bmp'],['female'],[[8]],['male'],[[0]],[[1.342435]],LM
264,[[15]],[[265]],[[15]],['high holistic'],['right'],['inverted'],['U0312.bmp'],['male'],[[10]],['male'],[[1]],[[0.28222321]],LM
265,[[15]],[[266]],[[2]],['high holistic'],['right'],['inverted'],['U0014.bmp'],['male'],[[4]],['male'],[[1]],[[0.00010592]],LM
266,[[15]],[[267]],[[12]],['low holistic'],['right'],['upright'],['U0178.bmp'],['female'],[[6]],['female'],[[1]],[[0.00010729]],LM
267,[[15]],[[268]],[[3]],['low holistic'],['right'],['upright'],['U0020.bmp'],['female'],[[10]],['female'],[[1]],[[9.93749127e-05]],LM
268,[[15]],[[269]],[[10]],['high holistic'],['right'],['upright'],['U0159.bmp'],['male'],[[2]],['male'],[[1]],[[0.09407713]],LM
269,[[15]],[[270]],[[14]],['high holistic'],['fovea'],['upright'],['U0228.bmp'],['male'],[[0]],['male'],[[1]],[[0.00010029]],LM
270,[[15]],[[271]],[[7]],['high holistic'],['left'],['inverted'],['U0107.bmp'],['female'],[[2]],['male'],[[0]],[[0.13850057]],LM
271,[[15]],[[272]],[[19]],['high holistic'],['right'],['inverted'],['U0361.bmp'],['female'],[[12]],['male'],[[0]],[[0.52461169]],LM
272,[[15]],[[273]],[[7]],['low holistic'],['left'],['inverted'],['U0107.bmp'],['female'],[[6]],['female'],[[1]],[[0.01519157]],LM
273,[[15]],[[274]],[[12]],['low holistic'],['right'],['inverted'],['U0178.bmp'],['female'],[[12]],['female'],[[1]],[[1.49428157]],LM
274,[[15]],[[275]],[[9]],['high holistic'],['right'],['upright'],['U0155.bmp'],['female'],[[4]],['male'],[[0]],[[1.22006958]],LM
275,[[15]],[[276]],[[18]],['high holistic'],['right'],['inverted'],['U0359.bmp'],['male'],[[2]],['female'],[[0]],[[2.26647949]],LM
276,[[15]],[[277]],[[4]],['high holistic'],['right'],['inverted'],['U0061.bmp'],['female'],[[12]],['female'],[[1]],[[0.39147598]],LM
277,[[15]],[[278]],[[19]],['low holistic'],['fovea'],['inverted'],['U0361.bmp'],['female'],[[0]],['female'],[[1]],[[0.69566027]],LM
278,[[15]],[[279]],[[8]],['high holistic'],['right'],['inverted'],['U0137.bmp'],['female'],[[12]],['male'],[[0]],[[0.13936636]],LM
279,[[15]],[[280]],[[18]],['high holistic'],['left'],['upright'],['U0359.bmp'],['male'],[[2]],['male'],[[1]],[[1.0153051]],LM
280,[[15]],[[281]],[[11]],['high holistic'],['right'],['inverted'],['U0164.bmp'],['female'],[[2]],['female'],[[1]],[[2.04624418]],LM
281,[[15]],[[282]],[[18]],['high holistic'],['right'],['upright'],['U0359.bmp'],['male'],[[2]],['male'],[[1]],[[0.38024313]],LM
282,[[15]],[[283]],[[17]],['high holistic'],['right'],['upright'],['U0346.bmp'],['male'],[[6]],['male'],[[1]],[[0.30059932]],LM
283,[[15]],[[284]],[[6]],['low holistic'],['left'],['upright'],['U0106.bmp'],['male'],[[2]],['male'],[[1]],[[0.28829915]],LM
284,[[15]],[[285]],[[1]],['high holistic'],['left'],['inverted'],['U0006.bmp'],['female'],[[10]],['female'],[[1]],[[0.78814516]],LM
285,[[15]],[[286]],[[4]],['low holistic'],['left'],['inverted'],['U0061.bmp'],['female'],[[12]],['female'],[[1]],[[0.20495786]],LM
286,[[15]],[[287]],[[4]],['high holistic'],['left'],['upright'],['U0061.bmp'],['female'],[[12]],['female'],[[1]],[[0.1579862]],LM
287,[[15]],[[288]],[[7]],['low holistic'],['left'],['inverted'],['U0107.bmp'],['female'],[[4]],['female'],[[1]],[[0.19027357]],LM
288,[[15]],[[289]],[[14]],['high holistic'],['left'],['inverted'],['U0228.bmp'],['male'],[[2]],['male'],[[1]],[[1.34983704]],LM
289,[[15]],[[290]],[[16]],['high holistic'],['right'],['upright'],['U0335.bmp'],['female'],[[4]],['female'],[[1]],[[1.08805295]],LM
290,[[15]],[[291]],[[4]],['low holistic'],['left'],['upright'],['U0061.bmp'],['female'],[[6]],['female'],[[1]],[[1.82050617]],LM
291,[[15]],[[292]],[[9]],['low holistic'],['left'],['inverted'],['U0155.bmp'],['male'],[[4]],['male'],[[1]],[[0.04326678]],LM
292,[[15]],[[293]],[[9]],['high holistic'],['left'],['inverted'],['U0155.bmp'],['female'],[[10]],['male'],[[0]],[[0.00010919]],LM
293,[[15]],[[294]],[[11]],['high holistic'],['left'],['inverted'],['U0164.bmp'],['female'],[[4]],['female'],[[1]],[[0.13017276]],LM
294,[[15]],[[295]],[[15]],['high holistic'],['left'],['inverted'],['U0312.bmp'],['male'],[[4]],['female'],[[0]],[[0.71651918]],LM
295,[[15]],[[296]],[[15]],['high holistic'],['right'],['upright'],['U0312.bmp'],['male'],[[10]],['male'],[[1]],[[0.0257384]],LM
296,[[15]],[[297]],[[4]],['low holistic'],['left'],['inverted'],['U0061.bmp'],['female'],[[10]],['male'],[[0]],[[0.66478393]],LM
297,[[15]],[[298]],[[19]],['low holistic'],['left'],['upright'],['U0361.bmp'],['female'],[[8]],['male'],[[0]],[[0.64560515]],LM
298,[[15]],[[299]],[[16]],['low holistic'],['right'],['upright'],['U0335.bmp'],['female'],[[12]],['male'],[[0]],[[1.55530983]],LM
299,[[15]],[[300]],[[6]],['high holistic'],['right'],['upright'],['U0106.bmp'],['female'],[[8]],['male'],[[0]],[[0.30166772]],LM
300,[[15]],[[301]],[[1]],['high holistic'],['right'],['inverted'],['U0006.bmp'],['female'],[[6]],['female'],[[1]],[[2.02438537]],LM
301,[[15]],[[302]],[[9]],['high holistic'],['right'],['upright'],['U0155.bmp'],['female'],[[8]],['female'],[[1]],[[0.48732672]],LM
302,[[15]],[[303]],[[18]],['high holistic'],['left'],['inverted'],['U0359.bmp'],['male'],[[10]],['male'],[[1]],[[0.13980227]],LM
303,[[15]],[[304]],[[5]],['low holistic'],['right'],['upright'],['U0076.bmp'],['male'],[[10]],['male'],[[1]],[[0.54202152]],LM
304,[[15]],[[305]],[[19]],['high holistic'],['left'],['upright'],['U0361.bmp'],['female'],[[12]],['female'],[[1]],[[0.15391904]],LM
305,[[15]],[[306]],[[5]],['high holistic'],['left'],['inverted'],['U0076.bmp'],['female'],[[6]],['female'],[[1]],[[0.38764484]],LM
306,[[15]],[[307]],[[8]],['low holistic'],['fovea'],['inverted'],['U0137.bmp'],['male'],[[0]],['male'],[[1]],[[0.32192875]],LM
307,[[15]],[[308]],[[4]],['high holistic'],['left'],['inverted'],['U0061.bmp'],['female'],[[2]],['female'],[[1]],[[0.38246318]],LM
308,[[15]],[[309]],[[13]],['high holistic'],['left'],['upright'],['U0181.bmp'],['female'],[[4]],['female'],[[1]],[[0.32750687]],LM
309,[[15]],[[310]],[[14]],['high holistic'],['left'],['inverted'],['U0228.bmp'],['male'],[[4]],['male'],[[1]],[[0.1537786]],LM
310,[[15]],[[311]],[[20]],['high holistic'],['left'],['inverted'],['U0362.bmp'],['female'],[[2]],['female'],[[1]],[[1.03404052]],LM
311,[[15]],[[312]],[[13]],['low holistic'],['right'],['inverted'],['U0181.bmp'],['male'],[[2]],['female'],[[0]],[[0.87486439]],LM
312,[[15]],[[313]],[[19]],['low holistic'],['left'],['upright'],['U0361.bmp'],['female'],[[6]],['female'],[[1]],[[0.94398159]],LM
313,[[15]],[[314]],[[12]],['high holistic'],['fovea'],['inverted'],['U0178.bmp'],['male'],[[0]],['male'],[[1]],[[1.64143652]],LM
314,[[15]],[[315]],[[20]],['low holistic'],['right'],['upright'],['U0362.bmp'],['male'],[[12]],['male'],[[1]],[[0.19114382]],LM
315,[[15]],[[316]],[[1]],['low holistic'],['right'],['upright'],['U0006.bmp'],['female'],[[10]],['female'],[[1]],[[0.19187885]],LM
316,[[15]],[[317]],[[2]],['high holistic'],['right'],['upright'],['U0014.bmp'],['male'],[[10]],['male'],[[1]],[[0.96000018]],LM
317,[[15]],[[318]],[[18]],['high holistic'],['right'],['upright'],['U0359.bmp'],['male'],[[6]],['male'],[[1]],[[0.0754837]],LM
318,[[15]],[[319]],[[6]],['low holistic'],['left'],['inverted'],['U0106.bmp'],['male'],[[4]],['female'],[[0]],[[1.15155958]],LM
319,[[15]],[[320]],[[7]],['low holistic'],['left'],['inverted'],['U0107.bmp'],['female'],[[10]],['male'],[[0]],[[0.56852304]],LM
320,[[15]],[[321]],[[17]],['low holistic'],['left'],['inverted'],['U0346.bmp'],['female'],[[10]],['female'],[[1]],[[1.20288533]],LM
321,[[15]],[[322]],[[19]],['high holistic'],['left'],['upright'],['U0361.bmp'],['female'],[[6]],['female'],[[1]],[[0.05072798]],LM
322,[[15]],[[323]],[[9]],['high holistic'],['right'],['inverted'],['U0155.bmp'],['female'],[[4]],['male'],[[0]],[[1.20149149]],LM
323,[[15]],[[324]],[[11]],['low holistic'],['right'],['inverted'],['U0164.bmp'],['female'],[[4]],['female'],[[1]],[[0.16155199]],LM
324,[[15]],[[325]],[[1]],['high holistic'],['right'],['inverted'],['U0006.bmp'],['female'],[[8]],['female'],[[1]],[[0.29155135]],LM
325,[[15]],[[326]],[[19]],['low holistic'],['left'],['upright'],['U0361.bmp'],['female'],[[8]],['female'],[[1]],[[0.46282844]],LM
326,[[15]],[[327]],[[19]],['high holistic'],['fovea'],['inverted'],['U0361.bmp'],['female'],[[0]],['female'],[[1]],[[1.9002614]],LM
327,[[15]],[[328]],[[3]],['high holistic'],['left'],['upright'],['U0020.bmp'],['male'],[[10]],['female'],[[0]],[[1.67961248]],LM
328,[[15]],[[329]],[[4]],['low holistic'],['left'],['inverted'],['U0061.bmp'],['female'],[[8]],['female'],[[1]],[[0.2043737]],LM
329,[[15]],[[330]],[[15]],['low holistic'],['right'],['inverted'],['U0312.bmp'],['male'],[[8]],['male'],[[1]],[[0.03703099]],LM
330,[[15]],[[331]],[[19]],['high holistic'],['right'],['inverted'],['U0361.bmp'],['female'],[[12]],['female'],[[1]],[[0.18597968]],LM
331,[[15]],[[332]],[[19]],['low holistic'],['left'],['upright'],['U0361.bmp'],['female'],[[8]],['female'],[[1]],[[0.19629592]],LM
332,[[15]],[[333]],[[13]],['low holistic'],['right'],['upright'],['U0181.bmp'],['male'],[[10]],['male'],[[1]],[[9.99458134e-05]],LM
333,[[15]],[[334]],[[12]],['low holistic'],['right'],['inverted'],['U0178.bmp'],['female'],[[2]],['female'],[[1]],[[0.07539851]],LM
334,[[15]],[[335]],[[18]],['low holistic'],['right'],['inverted'],['U0359.bmp'],['male'],[[8]],['female'],[[0]],[[0.12807756]],LM
335,[[15]],[[336]],[[8]],['low holistic'],['right'],['inverted'],['U0137.bmp'],['male'],[[2]],['male'],[[1]],[[0.45261082]],LM
336,[[15]],[[337]],[[18]],['low holistic'],['left'],['upright'],['U0359.bmp'],['male'],[[8]],['male'],[[1]],[[0.06615168]],LM
337,[[15]],[[338]],[[14]],['low holistic'],['right'],['inverted'],['U0228.bmp'],['male'],[[4]],['male'],[[1]],[[0.4321586]],LM
338,[[15]],[[339]],[[2]],['low holistic'],['left'],['upright'],['U0014.bmp'],['male'],[[4]],['male'],[[1]],[[1.00555896]],LM
339,[[15]],[[340]],[[19]],['low holistic'],['right'],['inverted'],['U0361.bmp'],['female'],[[8]],['female'],[[1]],[[0.12638783]],LM
340,[[15]],[[341]],[[15]],['high holistic'],['right'],['inverted'],['U0312.bmp'],['male'],[[2]],['female'],[[0]],[[0.27305001]],LM
341,[[15]],[[342]],[[18]],['low holistic'],['left'],['inverted'],['U0359.bmp'],['male'],[[8]],['female'],[[0]],[[0.30042181]],LM
342,[[15]],[[343]],[[20]],['high holistic'],['right'],['inverted'],['U0362.bmp'],['female'],[[6]],['female'],[[1]],[[5.34412249]],LM
343,[[15]],[[344]],[[16]],['low holistic'],['left'],['inverted'],['U0335.bmp'],['female'],[[6]],['female'],[[1]],[[1.08187719]],LM
344,[[15]],[[345]],[[18]],['high holistic'],['right'],['upright'],['U0359.bmp'],['male'],[[12]],['male'],[[1]],[[0.08030059]],LM
345,[[15]],[[346]],[[16]],['high holistic'],['right'],['inverted'],['U0335.bmp'],['female'],[[8]],['male'],[[0]],[[0.30080223]],LM
346,[[15]],[[347]],[[6]],['high holistic'],['right'],['upright'],['U0106.bmp'],['female'],[[12]],['female'],[[1]],[[1.1374091]],LM
347,[[15]],[[348]],[[15]],['high holistic'],['left'],['inverted'],['U0312.bmp'],['male'],[[12]],['male'],[[1]],[[0.69197831]],LM
348,[[15]],[[349]],[[7]],['high holistic'],['right'],['inverted'],['U0107.bmp'],['female'],[[8]],['male'],[[0]],[[1.19904404]],LM
349,[[15]],[[350]],[[6]],['high holistic'],['right'],['upright'],['U0106.bmp'],['female'],[[12]],['female'],[[1]],[[0.05579506]],LM
350,[[15]],[[351]],[[3]],['high holistic'],['left'],['upright'],['U0020.bmp'],['male'],[[8]],['male'],[[1]],[[0.19649989]],LM
351,[[15]],[[352]],[[10]],['high holistic'],['left'],['upright'],['U0159.bmp'],['male'],[[12]],['male'],[[1]],[[0.14819339]],LM
352,[[15]],[[353]],[[3]],['low holistic'],['right'],['upright'],['U0020.bmp'],['female'],[[12]],['female'],[[1]],[[0.16023301]],LM
353,[[15]],[[354]],[[19]],['high holistic'],['right'],['inverted'],['U0361.bmp'],['female'],[[6]],['female'],[[1]],[[0.90312703]],LM
354,[[15]],[[355]],[[4]],['high holistic'],['left'],['upright'],['U0061.bmp'],['female'],[[8]],['male'],[[0]],[[0.22826932]],LM
355,[[15]],[[356]],[[9]],['low holistic'],['left'],['inverted'],['U0155.bmp'],['male'],[[8]],['male'],[[1]],[[0.15671066]],LM
356,[[15]],[[357]],[[4]],['high holistic'],['right'],['upright'],['U0061.bmp'],['female'],[[10]],['female'],[[1]],[[0.22865523]],LM
357,[[15]],[[358]],[[1]],['high holistic'],['left'],['upright'],['U0006.bmp'],['female'],[[12]],['female'],[[1]],[[0.40318247]],LM
358,[[15]],[[359]],[[6]],['low holistic'],['right'],['inverted'],['U0106.bmp'],['male'],[[10]],['male'],[[1]],[[0.19511415]],LM
359,[[15]],[[360]],[[4]],['low holistic'],['left'],['inverted'],['U0061.bmp'],['female'],[[10]],['female'],[[1]],[[0.50706549]],LM
360,[[15]],[[361]],[[15]],['high holistic'],['right'],['upright'],['U0312.bmp'],['male'],[[12]],['female'],[[0]],[[0.32813353]],LM
361,[[15]],[[362]],[[20]],['high holistic'],['left'],['upright'],['U0362.bmp'],['female'],[[10]],['female'],[[1]],[[0.25810698]],LM
362,[[15]],[[363]],[[1]],['high holistic'],['left'],['inverted'],['U0006.bmp'],['female'],[[4]],['female'],[[1]],[[0.31089232]],LM
363,[[15]],[[364]],[[9]],['low holistic'],['right'],['inverted'],['U0155.bmp'],['male'],[[10]],['male'],[[1]],[[0.04262708]],LM
364,[[15]],[[365]],[[9]],['low holistic'],['right'],['inverted'],['U0155.bmp'],['male'],[[6]],['male'],[[1]],[[0.00010036]],LM
365,[[15]],[[366]],[[6]],['high holistic'],['right'],['inverted'],['U0106.bmp'],['female'],[[10]],['female'],[[1]],[[0.46532019]],LM
366,[[15]],[[367]],[[12]],['high holistic'],['fovea'],['upright'],['U0178.bmp'],['male'],[[0]],['male'],[[1]],[[0.10399718]],LM
367,[[15]],[[368]],[[9]],['high holistic'],['right'],['upright'],['U0155.bmp'],['female'],[[12]],['female'],[[1]],[[0.33061919]],LM
368,[[15]],[[369]],[[3]],['high holistic'],['right'],['inverted'],['U0020.bmp'],['male'],[[10]],['female'],[[0]],[[0.51708286]],LM
369,[[15]],[[370]],[[19]],['high holistic'],['left'],['upright'],['U0361.bmp'],['female'],[[12]],['female'],[[1]],[[0.26631984]],LM
370,[[15]],[[371]],[[3]],['high holistic'],['left'],['upright'],['U0020.bmp'],['male'],[[12]],['male'],[[1]],[[0.39737012]],LM
371,[[15]],[[372]],[[14]],['low holistic'],['left'],['inverted'],['U0228.bmp'],['male'],[[2]],['male'],[[1]],[[0.00010064]],LM
372,[[15]],[[373]],[[14]],['high holistic'],['left'],['upright'],['U0228.bmp'],['male'],[[8]],['male'],[[1]],[[1.34152859]],LM
373,[[15]],[[374]],[[14]],['low holistic'],['left'],['upright'],['U0228.bmp'],['male'],[[12]],['male'],[[1]],[[0.1210959]],LM
374,[[15]],[[375]],[[14]],['high holistic'],['left'],['inverted'],['U0228.bmp'],['male'],[[12]],['male'],[[1]],[[1.3160261]],LM
375,[[15]],[[376]],[[19]],['high holistic'],['right'],['upright'],['U0361.bmp'],['female'],[[8]],['female'],[[1]],[[0.01403022]],LM
376,[[15]],[[377]],[[6]],['low holistic'],['right'],['inverted'],['U0106.bmp'],['male'],[[8]],['male'],[[1]],[[9.86410305e-05]],LM
377,[[15]],[[378]],[[1]],['high holistic'],['right'],['inverted'],['U0006.bmp'],['female'],[[4]],['male'],[[0]],[[2.60721221]],LM
378,[[15]],[[379]],[[8]],['low holistic'],['left'],['inverted'],['U0137.bmp'],['male'],[[4]],['male'],[[1]],[[0.28553195]],LM
379,[[15]],[[380]],[[16]],['high holistic'],['right'],['inverted'],['U0335.bmp'],['female'],[[4]],['male'],[[0]],[[1.58812089]],LM
380,[[15]],[[381]],[[7]],['high holistic'],['right'],['upright'],['U0107.bmp'],['female'],[[4]],['female'],[[1]],[[0.15323217]],LM
381,[[15]],[[382]],[[10]],['high holistic'],['right'],['upright'],['U0159.bmp'],['male'],[[2]],['male'],[[1]],[[0.00011753]],LM
382,[[15]],[[383]],[[9]],['high holistic'],['left'],['upright'],['U0155.bmp'],['female'],[[6]],['female'],[[1]],[[0.14077929]],LM
383,[[15]],[[384]],[[6]],['high holistic'],['left'],['inverted'],['U0106.bmp'],['female'],[[6]],['female'],[[1]],[[0.18994747]],LM
384,[[15]],[[385]],[[2]],['low holistic'],['right'],['upright'],['U0014.bmp'],['male'],[[2]],['male'],[[1]],[[0.00017091]],LM
385,[[15]],[[386]],[[10]],['low holistic'],['left'],['upright'],['U0159.bmp'],['female'],[[10]],['female'],[[1]],[[0.1585153]],LM
386,[[15]],[[387]],[[19]],['high holistic'],['right'],['upright'],['U0361.bmp'],['female'],[[6]],['male'],[[0]],[[1.54465798]],LM
387,[[15]],[[388]],[[9]],['low holistic'],['left'],['inverted'],['U0155.bmp'],['male'],[[12]],['female'],[[0]],[[1.00251342]],LM
388,[[15]],[[389]],[[10]],['high holistic'],['right'],['upright'],['U0159.bmp'],['male'],[[6]],['male'],[[1]],[[0.09041102]],LM
389,[[15]],[[390]],[[18]],['high holistic'],['left'],['upright'],['U0359.bmp'],['male'],[[4]],['male'],[[1]],[[0.00010661]],LM
390,[[15]],[[391]],[[14]],['high holistic'],['right'],['upright'],['U0228.bmp'],['male'],[[10]],['female'],[[0]],[[0.15526231]],LM
391,[[15]],[[392]],[[10]],['high holistic'],['right'],['upright'],['U0159.bmp'],['male'],[[12]],['female'],[[0]],[[0.09885525]],LM
392,[[15]],[[393]],[[18]],['high holistic'],['right'],['inverted'],['U0359.bmp'],['male'],[[12]],['male'],[[1]],[[0.33632522]],LM
393,[[15]],[[394]],[[18]],['low holistic'],['right'],['inverted'],['U0359.bmp'],['male'],[[6]],['male'],[[1]],[[0.23409441]],LM
394,[[15]],[[395]],[[19]],['low holistic'],['left'],['inverted'],['U0361.bmp'],['female'],[[12]],['female'],[[1]],[[0.15237037]],LM
395,[[15]],[[396]],[[19]],['high holistic'],['left'],['inverted'],['U0361.bmp'],['female'],[[2]],['female'],[[1]],[[1.09816596]],LM
396,[[15]],[[397]],[[9]],['low holistic'],['right'],['inverted'],['U0155.bmp'],['male'],[[10]],['male'],[[1]],[[0.03786286]],LM
397,[[15]],[[398]],[[10]],['high holistic'],['left'],['upright'],['U0159.bmp'],['male'],[[6]],['male'],[[1]],[[0.1261185]],LM
398,[[15]],[[399]],[[1]],['high holistic'],['left'],['upright'],['U0006.bmp'],['female'],[[4]],['female'],[[1]],[[0.38464798]],LM
399,[[15]],[[400]],[[16]],['low holistic'],['right'],['upright'],['U0335.bmp'],['female'],[[2]],['female'],[[1]],[[0.24907523]],LM
400,[[15]],[[401]],[[18]],['low holistic'],['right'],['upright'],['U0359.bmp'],['male'],[[8]],['male'],[[1]],[[0.17360975]],LM
401,[[15]],[[402]],[[18]],['high holistic'],['fovea'],['upright'],['U0359.bmp'],['male'],[[0]],['male'],[[1]],[[0.11932165]],LM
402,[[15]],[[403]],[[3]],['low holistic'],['left'],['inverted'],['U0020.bmp'],['female'],[[2]],['female'],[[1]],[[0.44228061]],LM
403,[[15]],[[404]],[[5]],['high holistic'],['fovea'],['upright'],['U0076.bmp'],['female'],[[0]],['female'],[[1]],[[0.20165423]],LM
404,[[15]],[[405]],[[17]],['low holistic'],['right'],['upright'],['U0346.bmp'],['female'],[[8]],['female'],[[1]],[[0.0954775]],LM
405,[[15]],[[406]],[[1]],['high holistic'],['left'],['upright'],['U0006.bmp'],['female'],[[12]],['female'],[[1]],[[0.17272243]],LM
406,[[15]],[[407]],[[4]],['high holistic'],['left'],['upright'],['U0061.bmp'],['female'],[[6]],['female'],[[1]],[[0.13138813]],LM
407,[[15]],[[408]],[[2]],['low holistic'],['right'],['inverted'],['U0014.bmp'],['male'],[[6]],['female'],[[0]],[[0.5121516]],LM
408,[[15]],[[409]],[[7]],['low holistic'],['left'],['inverted'],['U0107.bmp'],['female'],[[4]],['female'],[[1]],[[0.08318868]],LM
409,[[15]],[[410]],[[1]],['high holistic'],['right'],['inverted'],['U0006.bmp'],['female'],[[2]],['female'],[[1]],[[0.14995434]],LM
410,[[15]],[[411]],[[12]],['high holistic'],['left'],['inverted'],['U0178.bmp'],['male'],[[8]],['female'],[[0]],[[0.28966826]],LM
411,[[15]],[[412]],[[7]],['high holistic'],['fovea'],['upright'],['U0107.bmp'],['female'],[[0]],['male'],[[0]],[[0.28459129]],LM
412,[[15]],[[413]],[[5]],['low holistic'],['left'],['inverted'],['U0076.bmp'],['male'],[[8]],['male'],[[1]],[[0.15377975]],LM
413,[[15]],[[414]],[[6]],['high holistic'],['fovea'],['inverted'],['U0106.bmp'],['female'],[[0]],['female'],[[1]],[[0.61179133]],LM
414,[[15]],[[415]],[[6]],['low holistic'],['left'],['upright'],['U0106.bmp'],['male'],[[2]],['male'],[[1]],[[0.7163268]],LM
415,[[15]],[[416]],[[18]],['high holistic'],['left'],['upright'],['U0359.bmp'],['male'],[[4]],['male'],[[1]],[[0.56560972]],LM
416,[[15]],[[417]],[[8]],['high holistic'],['left'],['upright'],['U0137.bmp'],['female'],[[10]],['female'],[[1]],[[0.34349858]],LM
417,[[15]],[[418]],[[5]],['high holistic'],['right'],['upright'],['U0076.bmp'],['female'],[[12]],['female'],[[1]],[[0.24204759]],LM
418,[[15]],[[419]],[[5]],['low holistic'],['left'],['upright'],['U0076.bmp'],['male'],[[4]],['male'],[[1]],[[0.16831909]],LM
419,[[15]],[[420]],[[4]],['low holistic'],['left'],['upright'],['U0061.bmp'],['female'],[[4]],['female'],[[1]],[[0.18368112]],LM
420,[[15]],[[421]],[[16]],['low holistic'],['left'],['inverted'],['U0335.bmp'],['female'],[[12]],['female'],[[1]],[[0.24228123]],LM
421,[[15]],[[422]],[[8]],['low holistic'],['left'],['upright'],['U0137.bmp'],['male'],[[2]],['male'],[[1]],[[0.1031075]],LM
422,[[15]],[[423]],[[7]],['high holistic'],['left'],['inverted'],['U0107.bmp'],['female'],[[4]],['male'],[[0]],[[0.1233429]],LM
423,[[15]],[[424]],[[6]],['high holistic'],['right'],['upright'],['U0106.bmp'],['female'],[[8]],['female'],[[1]],[[0.5516559]],LM
424,[[15]],[[425]],[[11]],['high holistic'],['left'],['inverted'],['U0164.bmp'],['female'],[[10]],['female'],[[1]],[[0.49776375]],LM
425,[[15]],[[426]],[[19]],['high holistic'],['right'],['upright'],['U0361.bmp'],['female'],[[6]],['female'],[[1]],[[0.8918084]],LM
426,[[15]],[[427]],[[6]],['high holistic'],['left'],['inverted'],['U0106.bmp'],['female'],[[12]],['female'],[[1]],[[0.24939566]],LM
427,[[15]],[[428]],[[3]],['high holistic'],['left'],['inverted'],['U0020.bmp'],['male'],[[6]],['female'],[[0]],[[0.26290328]],LM
428,[[15]],[[429]],[[2]],['high holistic'],['right'],['inverted'],['U0014.bmp'],['male'],[[2]],['female'],[[0]],[[0.27631274]],LM
429,[[15]],[[430]],[[15]],['low holistic'],['left'],['inverted'],['U0312.bmp'],['male'],[[2]],['male'],[[1]],[[0.04049081]],LM
430,[[15]],[[431]],[[14]],['low holistic'],['left'],['upright'],['U0228.bmp'],['male'],[[4]],['male'],[[1]],[[0.10280672]],LM
431,[[15]],[[432]],[[10]],['low holistic'],['left'],['upright'],['U0159.bmp'],['female'],[[12]],['female'],[[1]],[[0.33876917]],LM
432,[[15]],[[433]],[[1]],['high holistic'],['right'],['inverted'],['U0006.bmp'],['female'],[[12]],['female'],[[1]],[[0.3648318]],LM
433,[[15]],[[434]],[[11]],['high holistic'],['left'],['inverted'],['U0164.bmp'],['female'],[[4]],['female'],[[1]],[[0.66352184]],LM
434,[[15]],[[435]],[[6]],['low holistic'],['right'],['inverted'],['U0106.bmp'],['male'],[[6]],['male'],[[1]],[[0.30740535]],LM
435,[[15]],[[436]],[[4]],['low holistic'],['left'],['inverted'],['U0061.bmp'],['female'],[[6]],['male'],[[0]],[[0.1593984]],LM
436,[[15]],[[437]],[[8]],['low holistic'],['right'],['inverted'],['U0137.bmp'],['male'],[[12]],['male'],[[1]],[[0.33574843]],LM
437,[[15]],[[438]],[[4]],['low holistic'],['right'],['inverted'],['U0061.bmp'],['female'],[[8]],['female'],[[1]],[[0.19582487]],LM
438,[[15]],[[439]],[[8]],['high holistic'],['right'],['inverted'],['U0137.bmp'],['female'],[[6]],['female'],[[1]],[[0.44988078]],LM
439,[[15]],[[440]],[[17]],['high holistic'],['right'],['upright'],['U0346.bmp'],['male'],[[10]],['male'],[[1]],[[0.71387669]],LM
440,[[15]],[[441]],[[9]],['high holistic'],['right'],['upright'],['U0155.bmp'],['female'],[[2]],['male'],[[0]],[[0.59711597]],LM
441,[[15]],[[442]],[[3]],['high holistic'],['left'],['upright'],['U0020.bmp'],['male'],[[10]],['male'],[[1]],[[0.62022266]],LM
442,[[15]],[[443]],[[11]],['high holistic'],['fovea'],['upright'],['U0164.bmp'],['female'],[[0]],['female'],[[1]],[[0.23513139]],LM
443,[[15]],[[444]],[[15]],['low holistic'],['right'],['inverted'],['U0312.bmp'],['male'],[[12]],['male'],[[1]],[[0.18529538]],LM
444,[[15]],[[445]],[[19]],['high holistic'],['right'],['inverted'],['U0361.bmp'],['female'],[[10]],['female'],[[1]],[[0.6182568]],LM
445,[[15]],[[446]],[[2]],['low holistic'],['left'],['inverted'],['U0014.bmp'],['male'],[[8]],['male'],[[1]],[[0.6872117]],LM
446,[[15]],[[447]],[[15]],['high holistic'],['left'],['inverted'],['U0312.bmp'],['male'],[[8]],['male'],[[1]],[[0.9335676]],LM
447,[[15]],[[448]],[[10]],['low holistic'],['right'],['upright'],['U0159.bmp'],['female'],[[2]],['female'],[[1]],[[0.13610934]],LM
448,[[15]],[[449]],[[7]],['high holistic'],['right'],['inverted'],['U0107.bmp'],['female'],[[2]],['male'],[[0]],[[0.12279568]],LM
449,[[15]],[[450]],[[4]],['low holistic'],['right'],['upright'],['U0061.bmp'],['female'],[[2]],['female'],[[1]],[[0.00048167]],LM
450,[[15]],[[451]],[[2]],['low holistic'],['left'],['inverted'],['U0014.bmp'],['male'],[[4]],['female'],[[0]],[[2.41062686]],LM
451,[[15]],[[452]],[[7]],['low holistic'],['left'],['inverted'],['U0107.bmp'],['female'],[[4]],['female'],[[1]],[[0.29035322]],LM
452,[[15]],[[453]],[[8]],['low holistic'],['fovea'],['inverted'],['U0137.bmp'],['male'],[[0]],['male'],[[1]],[[0.09572096]],LM
453,[[15]],[[454]],[[13]],['high holistic'],['right'],['inverted'],['U0181.bmp'],['female'],[[8]],['female'],[[1]],[[0.55625599]],LM
454,[[15]],[[455]],[[20]],['high holistic'],['left'],['inverted'],['U0362.bmp'],['female'],[[4]],['male'],[[0]],[[0.45289774]],LM
455,[[15]],[[456]],[[20]],['high holistic'],['right'],['inverted'],['U0362.bmp'],['female'],[[10]],['female'],[[1]],[[0.49891768]],LM
456,[[15]],[[457]],[[9]],['high holistic'],['right'],['upright'],['U0155.bmp'],['female'],[[6]],['female'],[[1]],[[0.1426324]],LM
457,[[15]],[[458]],[[7]],['high holistic'],['left'],['upright'],['U0107.bmp'],['female'],[[2]],['male'],[[0]],[[0.58269995]],LM
458,[[15]],[[459]],[[1]],['high holistic'],['left'],['inverted'],['U0006.bmp'],['female'],[[4]],['male'],[[0]],[[0.64751297]],LM
459,[[15]],[[460]],[[15]],['low holistic'],['left'],['upright'],['U0312.bmp'],['male'],[[12]],['male'],[[1]],[[0.14276363]],LM
460,[[15]],[[461]],[[19]],['low holistic'],['right'],['upright'],['U0361.bmp'],['female'],[[2]],['female'],[[1]],[[0.01564341]],LM
461,[[15]],[[462]],[[17]],['low holistic'],['left'],['inverted'],['U0346.bmp'],['female'],[[4]],['female'],[[1]],[[1.64639896]],LM
462,[[15]],[[463]],[[18]],['high holistic'],['left'],['inverted'],['U0359.bmp'],['male'],[[12]],['male'],[[1]],[[0.2515751]],LM
463,[[15]],[[464]],[[7]],['low holistic'],['right'],['inverted'],['U0107.bmp'],['female'],[[4]],['female'],[[1]],[[0.38670694]],LM
464,[[15]],[[465]],[[10]],['low holistic'],['left'],['inverted'],['U0159.bmp'],['female'],[[12]],['male'],[[0]],[[0.54711762]],LM
465,[[15]],[[466]],[[14]],['low holistic'],['fovea'],['upright'],['U0228.bmp'],['male'],[[0]],['female'],[[0]],[[1.09311181]],LM
466,[[15]],[[467]],[[9]],['low holistic'],['left'],['inverted'],['U0155.bmp'],['male'],[[2]],['female'],[[0]],[[0.41583232]],LM
467,[[15]],[[468]],[[16]],['low holistic'],['left'],['inverted'],['U0335.bmp'],['female'],[[12]],['female'],[[1]],[[0.35084723]],LM
468,[[15]],[[469]],[[10]],['high holistic'],['right'],['inverted'],['U0159.bmp'],['male'],[[4]],['male'],[[1]],[[0.84201732]],LM
469,[[15]],[[470]],[[12]],['low holistic'],['left'],['inverted'],['U0178.bmp'],['female'],[[2]],['male'],[[0]],[[0.28681146]],LM
470,[[15]],[[471]],[[17]],['low holistic'],['left'],['inverted'],['U0346.bmp'],['female'],[[8]],['male'],[[0]],[[0.04218875]],LM
471,[[15]],[[472]],[[18]],['high holistic'],['right'],['upright'],['U0359.bmp'],['male'],[[4]],['male'],[[1]],[[0.20880829]],LM
472,[[15]],[[473]],[[16]],['high holistic'],['left'],['upright'],['U0335.bmp'],['female'],[[12]],['female'],[[1]],[[0.22527744]],LM
473,[[15]],[[474]],[[4]],['low holistic'],['left'],['inverted'],['U0061.bmp'],['female'],[[4]],['female'],[[1]],[[2.02195777]],LM
474,[[15]],[[475]],[[3]],['high holistic'],['left'],['upright'],['U0020.bmp'],['male'],[[10]],['male'],[[1]],[[0.14132114]],LM
475,[[15]],[[476]],[[7]],['high holistic'],['left'],['inverted'],['U0107.bmp'],['female'],[[8]],['male'],[[0]],[[1.18401072]],LM
476,[[15]],[[477]],[[8]],['low holistic'],['right'],['upright'],['U0137.bmp'],['male'],[[4]],['male'],[[1]],[[0.30436965]],LM
477,[[15]],[[478]],[[1]],['low holistic'],['fovea'],['inverted'],['U0006.bmp'],['female'],[[0]],['female'],[[1]],[[1.13152861]],LM
478,[[15]],[[479]],[[4]],['low holistic'],['right'],['inverted'],['U0061.bmp'],['female'],[[12]],['female'],[[1]],[[0.27684463]],LM
479,[[15]],[[480]],[[20]],['high holistic'],['left'],['upright'],['U0362.bmp'],['female'],[[12]],['female'],[[1]],[[0.26552707]],LM
480,[[15]],[[481]],[[20]],['low holistic'],['left'],['upright'],['U0362.bmp'],['male'],[[8]],['male'],[[1]],[[0.32652305]],LM
481,[[15]],[[482]],[[20]],['low holistic'],['left'],['upright'],['U0362.bmp'],['male'],[[2]],['male'],[[1]],[[0.02685211]],LM
482,[[15]],[[483]],[[3]],['low holistic'],['right'],['inverted'],['U0020.bmp'],['female'],[[2]],['female'],[[1]],[[0.52913195]],LM
483,[[15]],[[484]],[[6]],['low holistic'],['left'],['inverted'],['U0106.bmp'],['male'],[[4]],['female'],[[0]],[[0.20209517]],LM
484,[[15]],[[485]],[[14]],['high holistic'],['right'],['upright'],['U0228.bmp'],['male'],[[10]],['male'],[[1]],[[0.07398567]],LM
485,[[15]],[[486]],[[12]],['low holistic'],['left'],['inverted'],['U0178.bmp'],['female'],[[12]],['female'],[[1]],[[0.58340013]],LM
486,[[15]],[[487]],[[16]],['low holistic'],['right'],['upright'],['U0335.bmp'],['female'],[[2]],['male'],[[0]],[[2.06404547]],LM
487,[[15]],[[488]],[[19]],['low holistic'],['right'],['upright'],['U0361.bmp'],['female'],[[10]],['male'],[[0]],[[0.10013121]],LM
488,[[15]],[[489]],[[1]],['low holistic'],['fovea'],['upright'],['U0006.bmp'],['female'],[[0]],['female'],[[1]],[[0.54443981]],LM
489,[[15]],[[490]],[[17]],['high holistic'],['right'],['upright'],['U0346.bmp'],['male'],[[4]],['male'],[[1]],[[0.0028836]],LM
490,[[15]],[[491]],[[1]],['high holistic'],['right'],['upright'],['U0006.bmp'],['female'],[[10]],['female'],[[1]],[[0.36092424]],LM
491,[[15]],[[492]],[[18]],['low holistic'],['left'],['inverted'],['U0359.bmp'],['male'],[[2]],['male'],[[1]],[[0.7774054]],LM
492,[[15]],[[493]],[[8]],['low holistic'],['left'],['upright'],['U0137.bmp'],['male'],[[4]],['male'],[[1]],[[0.00527334]],LM
493,[[15]],[[494]],[[5]],['low holistic'],['left'],['upright'],['U0076.bmp'],['male'],[[4]],['male'],[[1]],[[0.22876248]],LM
494,[[15]],[[495]],[[9]],['low holistic'],['fovea'],['upright'],['U0155.bmp'],['male'],[[0]],['male'],[[1]],[[0.00010719]],LM
495,[[15]],[[496]],[[6]],['high holistic'],['left'],['inverted'],['U0106.bmp'],['female'],[[12]],['female'],[[1]],[[0.52952882]],LM
496,[[15]],[[497]],[[18]],['low holistic'],['fovea'],['upright'],['U0359.bmp'],['male'],[[0]],['male'],[[1]],[[0.40479757]],LM
497,[[15]],[[498]],[[20]],['low holistic'],['left'],['inverted'],['U0362.bmp'],['male'],[[12]],['male'],[[1]],[[0.26693551]],LM
498,[[15]],[[499]],[[7]],['low holistic'],['fovea'],['upright'],['U0107.bmp'],['female'],[[0]],['female'],[[1]],[[0.08894183]],LM
499,[[15]],[[500]],[[10]],['high holistic'],['fovea'],['upright'],['U0159.bmp'],['male'],[[0]],['male'],[[1]],[[0.9877086]],LM
500,[[15]],[[501]],[[1]],['low holistic'],['left'],['upright'],['U0006.bmp'],['female'],[[12]],['female'],[[1]],[[0.22943922]],LM
501,[[15]],[[502]],[[4]],['high holistic'],['right'],['upright'],['U0061.bmp'],['female'],[[6]],['male'],[[0]],[[1.19485553]],LM
502,[[15]],[[503]],[[20]],['low holistic'],['left'],['upright'],['U0362.bmp'],['male'],[[8]],['male'],[[1]],[[0.08414119]],LM
503,[[15]],[[504]],[[6]],['high holistic'],['fovea'],['inverted'],['U0106.bmp'],['female'],[[0]],['male'],[[0]],[[0.15789566]],LM
504,[[15]],[[505]],[[14]],['high holistic'],['left'],['upright'],['U0228.bmp'],['male'],[[12]],['male'],[[1]],[[0.29617736]],LM
505,[[15]],[[506]],[[3]],['high holistic'],['left'],['upright'],['U0020.bmp'],['male'],[[10]],['male'],[[1]],[[0.29344613]],LM
506,[[15]],[[507]],[[18]],['high holistic'],['right'],['inverted'],['U0359.bmp'],['male'],[[10]],['male'],[[1]],[[0.28688084]],LM
507,[[15]],[[508]],[[11]],['high holistic'],['left'],['inverted'],['U0164.bmp'],['female'],[[6]],['male'],[[0]],[[0.68370705]],LM
508,[[15]],[[509]],[[20]],['high holistic'],['left'],['upright'],['U0362.bmp'],['female'],[[6]],['female'],[[1]],[[0.273215]],LM
509,[[15]],[[510]],[[3]],['high holistic'],['left'],['upright'],['U0020.bmp'],['male'],[[10]],['male'],[[1]],[[0.50099353]],LM
510,[[15]],[[511]],[[16]],['low holistic'],['left'],['upright'],['U0335.bmp'],['female'],[[10]],['female'],[[1]],[[0.67449407]],LM
511,[[15]],[[512]],[[18]],['low holistic'],['left'],['upright'],['U0359.bmp'],['male'],[[4]],['male'],[[1]],[[0.89325856]],LM
512,[[15]],[[513]],[[10]],['low holistic'],['left'],['inverted'],['U0159.bmp'],['female'],[[6]],['female'],[[1]],[[0.40940217]],LM
513,[[15]],[[514]],[[17]],['high holistic'],['right'],['inverted'],['U0346.bmp'],['male'],[[6]],['male'],[[1]],[[0.28008565]],LM
514,[[15]],[[515]],[[16]],['low holistic'],['right'],['upright'],['U0335.bmp'],['female'],[[4]],['female'],[[1]],[[0.33328562]],LM
515,[[15]],[[516]],[[10]],['low holistic'],['left'],['upright'],['U0159.bmp'],['female'],[[6]],['female'],[[1]],[[0.60875453]],LM
516,[[15]],[[517]],[[7]],['low holistic'],['left'],['upright'],['U0107.bmp'],['female'],[[10]],['male'],[[0]],[[0.84611489]],LM
517,[[15]],[[518]],[[13]],['low holistic'],['right'],['inverted'],['U0181.bmp'],['male'],[[10]],['male'],[[1]],[[1.18804386]],LM
518,[[15]],[[519]],[[17]],['high holistic'],['right'],['inverted'],['U0346.bmp'],['male'],[[12]],['male'],[[1]],[[0.00010724]],LM
519,[[15]],[[520]],[[2]],['high holistic'],['right'],['inverted'],['U0014.bmp'],['male'],[[12]],['female'],[[0]],[[0.85894402]],LM
520,[[15]],[[521]],[[8]],['low holistic'],['left'],['inverted'],['U0137.bmp'],['male'],[[12]],['male'],[[1]],[[1.22025674]],LM
521,[[15]],[[522]],[[3]],['low holistic'],['left'],['inverted'],['U0020.bmp'],['female'],[[2]],['female'],[[1]],[[0.63615292]],LM
522,[[15]],[[523]],[[15]],['high holistic'],['right'],['upright'],['U0312.bmp'],['male'],[[8]],['female'],[[0]],[[1.32989476]],LM
523,[[15]],[[524]],[[6]],['low holistic'],['left'],['upright'],['U0106.bmp'],['male'],[[8]],['male'],[[1]],[[0.14787091]],LM
524,[[15]],[[525]],[[13]],['low holistic'],['right'],['upright'],['U0181.bmp'],['male'],[[4]],['male'],[[1]],[[0.06138344]],LM
525,[[15]],[[526]],[[10]],['low holistic'],['right'],['upright'],['U0159.bmp'],['female'],[[4]],['female'],[[1]],[[0.02631653]],LM
526,[[15]],[[527]],[[4]],['low holistic'],['left'],['upright'],['U0061.bmp'],['female'],[[2]],['female'],[[1]],[[0.28948551]],LM
527,[[15]],[[528]],[[14]],['low holistic'],['right'],['inverted'],['U0228.bmp'],['male'],[[2]],['male'],[[1]],[[0.028739]],LM
528,[[15]],[[529]],[[8]],['high holistic'],['right'],['upright'],['U0137.bmp'],['female'],[[8]],['female'],[[1]],[[0.24396113]],LM
529,[[15]],[[530]],[[20]],['low holistic'],['right'],['upright'],['U0362.bmp'],['male'],[[6]],['male'],[[1]],[[0.82513039]],LM
530,[[15]],[[531]],[[3]],['low holistic'],['right'],['upright'],['U0020.bmp'],['female'],[[6]],['female'],[[1]],[[1.87313429]],LM
531,[[15]],[[532]],[[12]],['high holistic'],['left'],['inverted'],['U0178.bmp'],['male'],[[10]],['female'],[[0]],[[1.54112726]],LM
532,[[15]],[[533]],[[14]],['high holistic'],['left'],['inverted'],['U0228.bmp'],['male'],[[12]],['male'],[[1]],[[1.4242889]],LM
533,[[15]],[[534]],[[13]],['low holistic'],['left'],['inverted'],['U0181.bmp'],['male'],[[12]],['male'],[[1]],[[1.75748812]],LM
534,[[15]],[[535]],[[1]],['low holistic'],['right'],['upright'],['U0006.bmp'],['female'],[[4]],['female'],[[1]],[[0.06974668]],LM
535,[[15]],[[536]],[[17]],['low holistic'],['right'],['upright'],['U0346.bmp'],['female'],[[12]],['female'],[[1]],[[0.6753719]],LM
536,[[15]],[[537]],[[1]],['high holistic'],['left'],['inverted'],['U0006.bmp'],['female'],[[6]],['male'],[[0]],[[0.43184958]],LM
537,[[15]],[[538]],[[7]],['high holistic'],['right'],['inverted'],['U0107.bmp'],['female'],[[8]],['male'],[[0]],[[0.00010767]],LM
538,[[15]],[[539]],[[8]],['high holistic'],['left'],['inverted'],['U0137.bmp'],['female'],[[4]],['female'],[[1]],[[0.35154609]],LM
539,[[15]],[[540]],[[18]],['low holistic'],['right'],['upright'],['U0359.bmp'],['male'],[[6]],['male'],[[1]],[[0.32025439]],LM
540,[[15]],[[541]],[[8]],['low holistic'],['right'],['inverted'],['U0137.bmp'],['male'],[[6]],['male'],[[1]],[[0.17932864]],LM
541,[[15]],[[542]],[[3]],['high holistic'],['fovea'],['upright'],['U0020.bmp'],['male'],[[0]],['male'],[[1]],[[0.12406762]],LM
542,[[15]],[[543]],[[8]],['high holistic'],['right'],['inverted'],['U0137.bmp'],['female'],[[6]],['female'],[[1]],[[0.27678548]],LM
543,[[15]],[[544]],[[18]],['high holistic'],['left'],['inverted'],['U0359.bmp'],['male'],[[2]],['male'],[[1]],[[0.09119271]],LM
544,[[15]],[[545]],[[17]],['low holistic'],['left'],['upright'],['U0346.bmp'],['female'],[[4]],['female'],[[1]],[[0.25535719]],LM
545,[[15]],[[546]],[[16]],['high holistic'],['left'],['inverted'],['U0335.bmp'],['female'],[[10]],['male'],[[0]],[[0.69958791]],LM
546,[[15]],[[547]],[[10]],['low holistic'],['right'],['inverted'],['U0159.bmp'],['female'],[[6]],['female'],[[1]],[[0.43265762]],LM
547,[[15]],[[548]],[[16]],['high holistic'],['left'],['inverted'],['U0335.bmp'],['female'],[[12]],['female'],[[1]],[[0.27120225]],LM
548,[[15]],[[549]],[[13]],['high holistic'],['right'],['inverted'],['U0181.bmp'],['female'],[[6]],['female'],[[1]],[[0.3563055]],LM
549,[[15]],[[550]],[[1]],['high holistic'],['left'],['inverted'],['U0006.bmp'],['female'],[[8]],['female'],[[1]],[[0.18030964]],LM
550,[[15]],[[551]],[[3]],['low holistic'],['left'],['upright'],['U0020.bmp'],['female'],[[4]],['female'],[[1]],[[0.34062258]],LM
551,[[15]],[[552]],[[15]],['high holistic'],['left'],['upright'],['U0312.bmp'],['male'],[[4]],['male'],[[1]],[[0.15825667]],LM
552,[[15]],[[553]],[[10]],['low holistic'],['right'],['inverted'],['U0159.bmp'],['female'],[[10]],['male'],[[0]],[[0.43185245]],LM
553,[[15]],[[554]],[[6]],['low holistic'],['right'],['upright'],['U0106.bmp'],['male'],[[2]],['male'],[[1]],[[0.33525925]],LM
554,[[15]],[[555]],[[9]],['high holistic'],['left'],['upright'],['U0155.bmp'],['female'],[[2]],['female'],[[1]],[[0.36053783]],LM
555,[[15]],[[556]],[[17]],['low holistic'],['right'],['upright'],['U0346.bmp'],['female'],[[12]],['female'],[[1]],[[0.15552457]],LM
556,[[15]],[[557]],[[3]],['high holistic'],['left'],['inverted'],['U0020.bmp'],['male'],[[10]],['female'],[[0]],[[0.18033697]],LM
557,[[15]],[[558]],[[9]],['high holistic'],['fovea'],['upright'],['U0155.bmp'],['female'],[[0]],['female'],[[1]],[[0.29106994]],LM
558,[[15]],[[559]],[[18]],['low holistic'],['left'],['upright'],['U0359.bmp'],['male'],[[12]],['male'],[[1]],[[0.43934319]],LM
559,[[15]],[[560]],[[7]],['high holistic'],['right'],['upright'],['U0107.bmp'],['female'],[[12]],['female'],[[1]],[[0.57275403]],LM
560,[[15]],[[561]],[[15]],['low holistic'],['left'],['inverted'],['U0312.bmp'],['male'],[[2]],['male'],[[1]],[[0.00029499]],LM
561,[[15]],[[562]],[[11]],['high holistic'],['left'],['inverted'],['U0164.bmp'],['female'],[[6]],['female'],[[1]],[[0.54270615]],LM
562,[[15]],[[563]],[[17]],['high holistic'],['left'],['inverted'],['U0346.bmp'],['male'],[[8]],['male'],[[1]],[[0.28811389]],LM
563,[[15]],[[564]],[[15]],['low holistic'],['left'],['upright'],['U0312.bmp'],['male'],[[10]],['male'],[[1]],[[9.96207818e-05]],LM
564,[[15]],[[565]],[[3]],['low holistic'],['right'],['upright'],['U0020.bmp'],['female'],[[6]],['female'],[[1]],[[0.15483902]],LM
565,[[15]],[[566]],[[12]],['high holistic'],['left'],['inverted'],['U0178.bmp'],['male'],[[8]],['male'],[[1]],[[0.00031157]],LM
566,[[15]],[[567]],[[6]],['low holistic'],['left'],['inverted'],['U0106.bmp'],['male'],[[6]],['male'],[[1]],[[0.00017019]],LM
567,[[15]],[[568]],[[3]],['low holistic'],['left'],['inverted'],['U0020.bmp'],['female'],[[12]],['female'],[[1]],[[0.05349227]],LM
568,[[15]],[[569]],[[9]],['low holistic'],['right'],['upright'],['U0155.bmp'],['male'],[[4]],['male'],[[1]],[[0.00010019]],LM
569,[[15]],[[570]],[[15]],['low holistic'],['right'],['inverted'],['U0312.bmp'],['male'],[[12]],['male'],[[1]],[[0.17165509]],LM
570,[[15]],[[571]],[[10]],['high holistic'],['left'],['inverted'],['U0159.bmp'],['male'],[[6]],['female'],[[0]],[[0.15437952]],LM
571,[[15]],[[572]],[[8]],['high holistic'],['left'],['inverted'],['U0137.bmp'],['female'],[[2]],['male'],[[0]],[[0.00010078]],LM
572,[[15]],[[573]],[[17]],['high holistic'],['left'],['upright'],['U0346.bmp'],['male'],[[4]],['male'],[[1]],[[0.00014935]],LM
573,[[15]],[[574]],[[17]],['low holistic'],['right'],['upright'],['U0346.bmp'],['female'],[[8]],['female'],[[1]],[[0.24375707]],LM
574,[[15]],[[575]],[[1]],['high holistic'],['right'],['inverted'],['U0006.bmp'],['female'],[[8]],['female'],[[1]],[[0.60240668]],LM
575,[[15]],[[576]],[[5]],['low holistic'],['fovea'],['inverted'],['U0076.bmp'],['male'],[[0]],['male'],[[1]],[[0.24874719]],LM
576,[[15]],[[577]],[[12]],['high holistic'],['left'],['inverted'],['U0178.bmp'],['male'],[[2]],['male'],[[1]],[[0.2384993]],LM
577,[[15]],[[578]],[[2]],['low holistic'],['right'],['inverted'],['U0014.bmp'],['male'],[[10]],['male'],[[1]],[[0.34731496]],LM
578,[[15]],[[579]],[[18]],['high holistic'],['left'],['inverted'],['U0359.bmp'],['male'],[[8]],['male'],[[1]],[[0.0858095]],LM
579,[[15]],[[580]],[[19]],['high holistic'],['right'],['upright'],['U0361.bmp'],['female'],[[2]],['male'],[[0]],[[0.00011872]],LM
580,[[15]],[[581]],[[19]],['high holistic'],['right'],['upright'],['U0361.bmp'],['female'],[[12]],['female'],[[1]],[[0.12990994]],LM
581,[[15]],[[582]],[[10]],['low holistic'],['right'],['inverted'],['U0159.bmp'],['female'],[[4]],['female'],[[1]],[[0.12511914]],LM
582,[[15]],[[583]],[[6]],['low holistic'],['left'],['upright'],['U0106.bmp'],['male'],[[12]],['male'],[[1]],[[0.13467684]],LM
583,[[15]],[[584]],[[4]],['high holistic'],['fovea'],['inverted'],['U0061.bmp'],['female'],[[0]],['female'],[[1]],[[0.36213652]],LM
584,[[15]],[[585]],[[5]],['high holistic'],['right'],['upright'],['U0076.bmp'],['female'],[[2]],['female'],[[1]],[[0.17144615]],LM
585,[[15]],[[586]],[[7]],['low holistic'],['left'],['upright'],['U0107.bmp'],['female'],[[6]],['female'],[[1]],[[0.06845114]],LM
586,[[15]],[[587]],[[20]],['low holistic'],['left'],['upright'],['U0362.bmp'],['male'],[[10]],['male'],[[1]],[[0.13697123]],LM
587,[[15]],[[588]],[[18]],['high holistic'],['right'],['inverted'],['U0359.bmp'],['male'],[[4]],['male'],[[1]],[[0.25045052]],LM
588,[[15]],[[589]],[[9]],['low holistic'],['left'],['upright'],['U0155.bmp'],['male'],[[6]],['male'],[[1]],[[0.09721854]],LM
589,[[15]],[[590]],[[12]],['low holistic'],['right'],['upright'],['U0178.bmp'],['female'],[[12]],['female'],[[1]],[[0.06000043]],LM
590,[[15]],[[591]],[[6]],['high holistic'],['right'],['inverted'],['U0106.bmp'],['female'],[[6]],['female'],[[1]],[[0.22582314]],LM
591,[[15]],[[592]],[[13]],['low holistic'],['left'],['upright'],['U0181.bmp'],['male'],[[4]],['male'],[[1]],[[0.11072388]],LM
592,[[15]],[[593]],[[10]],['low holistic'],['right'],['upright'],['U0159.bmp'],['female'],[[10]],['female'],[[1]],[[0.77275281]],LM
593,[[15]],[[594]],[[12]],['high holistic'],['left'],['upright'],['U0178.bmp'],['male'],[[6]],['male'],[[1]],[[0.03618854]],LM
594,[[15]],[[595]],[[3]],['high holistic'],['right'],['upright'],['U0020.bmp'],['male'],[[4]],['male'],[[1]],[[0.19514427]],LM
595,[[15]],[[596]],[[2]],['low holistic'],['right'],['inverted'],['U0014.bmp'],['male'],[[8]],['male'],[[1]],[[0.21932742]],LM
596,[[15]],[[597]],[[17]],['low holistic'],['right'],['upright'],['U0346.bmp'],['female'],[[8]],['female'],[[1]],[[0.02690164]],LM
597,[[15]],[[598]],[[1]],['high holistic'],['right'],['upright'],['U0006.bmp'],['female'],[[2]],['female'],[[1]],[[0.21757195]],LM
598,[[15]],[[599]],[[11]],['low holistic'],['left'],['inverted'],['U0164.bmp'],['female'],[[2]],['male'],[[0]],[[0.42241949]],LM
599,[[15]],[[600]],[[1]],['low holistic'],['left'],['upright'],['U0006.bmp'],['female'],[[10]],['female'],[[1]],[[1.1969373]],LM
600,[[15]],[[601]],[[4]],['low holistic'],['left'],['inverted'],['U0061.bmp'],['female'],[[2]],['female'],[[1]],[[0.4458101]],LM
601,[[15]],[[602]],[[20]],['high holistic'],['left'],['upright'],['U0362.bmp'],['female'],[[6]],['female'],[[1]],[[0.15636332]],LM
602,[[15]],[[603]],[[7]],['high holistic'],['left'],['inverted'],['U0107.bmp'],['female'],[[12]],['male'],[[0]],[[0.65279545]],LM
603,[[15]],[[604]],[[10]],['low holistic'],['right'],['inverted'],['U0159.bmp'],['female'],[[2]],['female'],[[1]],[[0.43398791]],LM
604,[[15]],[[605]],[[2]],['low holistic'],['right'],['upright'],['U0014.bmp'],['male'],[[6]],['male'],[[1]],[[0.40935713]],LM
605,[[15]],[[606]],[[2]],['low holistic'],['right'],['upright'],['U0014.bmp'],['male'],[[4]],['male'],[[1]],[[9.84454527e-05]],LM
606,[[15]],[[607]],[[18]],['high holistic'],['right'],['upright'],['U0359.bmp'],['male'],[[8]],['male'],[[1]],[[0.3930485]],LM
607,[[15]],[[608]],[[7]],['low holistic'],['right'],['upright'],['U0107.bmp'],['female'],[[10]],['female'],[[1]],[[0.72839644]],LM
608,[[15]],[[609]],[[20]],['low holistic'],['right'],['inverted'],['U0362.bmp'],['male'],[[8]],['female'],[[0]],[[1.93040225]],LM
609,[[15]],[[610]],[[1]],['low holistic'],['left'],['inverted'],['U0006.bmp'],['female'],[[4]],['female'],[[1]],[[0.41257014]],LM
610,[[15]],[[611]],[[15]],['low holistic'],['fovea'],['upright'],['U0312.bmp'],['male'],[[0]],['male'],[[1]],[[0.39644402]],LM
611,[[15]],[[612]],[[15]],['high holistic'],['left'],['inverted'],['U0312.bmp'],['male'],[[4]],['female'],[[0]],[[1.21272223]],LM
612,[[15]],[[613]],[[3]],['high holistic'],['right'],['inverted'],['U0020.bmp'],['male'],[[8]],['male'],[[1]],[[0.34673158]],LM
613,[[15]],[[614]],[[14]],['low holistic'],['left'],['inverted'],['U0228.bmp'],['male'],[[4]],['male'],[[1]],[[0.0102121]],LM
614,[[15]],[[615]],[[6]],['low holistic'],['right'],['inverted'],['U0106.bmp'],['male'],[[2]],['male'],[[1]],[[0.32246049]],LM
615,[[15]],[[616]],[[13]],['high holistic'],['right'],['inverted'],['U0181.bmp'],['female'],[[6]],['female'],[[1]],[[0.83733019]],LM
616,[[15]],[[617]],[[1]],['high holistic'],['left'],['upright'],['U0006.bmp'],['female'],[[12]],['female'],[[1]],[[0.37122883]],LM
617,[[15]],[[618]],[[9]],['low holistic'],['left'],['upright'],['U0155.bmp'],['male'],[[8]],['female'],[[0]],[[1.03645272]],LM
618,[[15]],[[619]],[[14]],['high holistic'],['right'],['inverted'],['U0228.bmp'],['male'],[[10]],['male'],[[1]],[[0.30817741]],LM
619,[[15]],[[620]],[[18]],['low holistic'],['right'],['inverted'],['U0359.bmp'],['male'],[[6]],['male'],[[1]],[[0.27901934]],LM
620,[[15]],[[621]],[[4]],['low holistic'],['left'],['upright'],['U0061.bmp'],['female'],[[12]],['female'],[[1]],[[0.28308964]],LM
621,[[15]],[[622]],[[16]],['high holistic'],['left'],['upright'],['U0335.bmp'],['female'],[[4]],['female'],[[1]],[[0.36762043]],LM
622,[[15]],[[623]],[[18]],['high holistic'],['left'],['upright'],['U0359.bmp'],['male'],[[8]],['male'],[[1]],[[0.06536454]],LM
623,[[15]],[[624]],[[13]],['low holistic'],['right'],['upright'],['U0181.bmp'],['male'],[[8]],['male'],[[1]],[[0.15800082]],LM
624,[[15]],[[625]],[[16]],['high holistic'],['right'],['upright'],['U0335.bmp'],['female'],[[6]],['male'],[[0]],[[0.00037949]],LM
625,[[15]],[[626]],[[3]],['low holistic'],['left'],['inverted'],['U0020.bmp'],['female'],[[6]],['female'],[[1]],[[0.42962314]],LM
626,[[15]],[[627]],[[1]],['low holistic'],['right'],['inverted'],['U0006.bmp'],['female'],[[2]],['female'],[[1]],[[0.19628011]],LM
627,[[15]],[[628]],[[10]],['high holistic'],['right'],['inverted'],['U0159.bmp'],['male'],[[12]],['female'],[[0]],[[0.50963408]],LM
628,[[15]],[[629]],[[5]],['low holistic'],['right'],['inverted'],['U0076.bmp'],['male'],[[10]],['male'],[[1]],[[0.04800915]],LM
629,[[15]],[[630]],[[7]],['low holistic'],['right'],['upright'],['U0107.bmp'],['female'],[[6]],['female'],[[1]],[[0.06057454]],LM
630,[[15]],[[631]],[[15]],['low holistic'],['left'],['upright'],['U0312.bmp'],['male'],[[2]],['male'],[[1]],[[0.14734273]],LM
631,[[15]],[[632]],[[14]],['high holistic'],['left'],['upright'],['U0228.bmp'],['male'],[[4]],['male'],[[1]],[[0.22854035]],LM
632,[[15]],[[633]],[[6]],['low holistic'],['left'],['upright'],['U0106.bmp'],['male'],[[6]],['male'],[[1]],[[0.14743158]],LM
633,[[15]],[[634]],[[10]],['low holistic'],['right'],['inverted'],['U0159.bmp'],['female'],[[12]],['female'],[[1]],[[0.20327244]],LM
634,[[15]],[[635]],[[9]],['high holistic'],['left'],['inverted'],['U0155.bmp'],['female'],[[6]],['female'],[[1]],[[1.05945356]],LM
635,[[15]],[[636]],[[5]],['low holistic'],['left'],['inverted'],['U0076.bmp'],['male'],[[10]],['male'],[[1]],[[0.33833053]],LM
636,[[15]],[[637]],[[16]],['high holistic'],['fovea'],['inverted'],['U0335.bmp'],['female'],[[0]],['female'],[[1]],[[0.29816771]],LM
637,[[15]],[[638]],[[19]],['low holistic'],['left'],['inverted'],['U0361.bmp'],['female'],[[10]],['female'],[[1]],[[0.27144317]],LM
638,[[15]],[[639]],[[18]],['low holistic'],['right'],['upright'],['U0359.bmp'],['male'],[[6]],['female'],[[0]],[[0.62037685]],LM
639,[[15]],[[640]],[[11]],['high holistic'],['fovea'],['inverted'],['U0164.bmp'],['female'],[[0]],['female'],[[1]],[[0.57928582]],LM
640,[[15]],[[641]],[[6]],['low holistic'],['right'],['upright'],['U0106.bmp'],['male'],[[4]],['male'],[[1]],[[0.00017903]],LM
641,[[15]],[[642]],[[5]],['low holistic'],['left'],['inverted'],['U0076.bmp'],['male'],[[4]],['male'],[[1]],[[0.13775096]],LM
642,[[15]],[[643]],[[9]],['low holistic'],['left'],['upright'],['U0155.bmp'],['male'],[[12]],['male'],[[1]],[[0.08575902]],LM
643,[[15]],[[644]],[[5]],['low holistic'],['right'],['upright'],['U0076.bmp'],['male'],[[10]],['male'],[[1]],[[0.00672363]],LM
644,[[15]],[[645]],[[10]],['high holistic'],['fovea'],['inverted'],['U0159.bmp'],['male'],[[0]],['female'],[[0]],[[0.86228747]],LM
645,[[15]],[[646]],[[10]],['low holistic'],['right'],['inverted'],['U0159.bmp'],['female'],[[4]],['female'],[[1]],[[0.49969529]],LM
646,[[15]],[[647]],[[13]],['low holistic'],['right'],['upright'],['U0181.bmp'],['male'],[[12]],['male'],[[1]],[[0.08755505]],LM
647,[[15]],[[648]],[[12]],['low holistic'],['right'],['upright'],['U0178.bmp'],['female'],[[12]],['male'],[[0]],[[0.00352854]],LM
648,[[15]],[[649]],[[8]],['low holistic'],['right'],['inverted'],['U0137.bmp'],['male'],[[8]],['male'],[[1]],[[0.25053923]],LM
649,[[15]],[[650]],[[15]],['low holistic'],['left'],['inverted'],['U0312.bmp'],['male'],[[8]],['male'],[[1]],[[0.08812054]],LM
650,[[15]],[[651]],[[12]],['low holistic'],['right'],['inverted'],['U0178.bmp'],['female'],[[10]],['female'],[[1]],[[0.43194706]],LM
651,[[15]],[[652]],[[7]],['high holistic'],['left'],['inverted'],['U0107.bmp'],['female'],[[4]],['male'],[[0]],[[0.57482497]],LM
652,[[15]],[[653]],[[17]],['high holistic'],['left'],['inverted'],['U0346.bmp'],['male'],[[4]],['male'],[[1]],[[0.00010064]],LM
653,[[15]],[[654]],[[11]],['high holistic'],['left'],['inverted'],['U0164.bmp'],['female'],[[6]],['male'],[[0]],[[0.16846261]],LM
654,[[15]],[[655]],[[20]],['high holistic'],['right'],['upright'],['U0362.bmp'],['female'],[[2]],['female'],[[1]],[[0.08785368]],LM
655,[[15]],[[656]],[[3]],['high holistic'],['left'],['upright'],['U0020.bmp'],['male'],[[10]],['male'],[[1]],[[0.15621133]],LM
656,[[15]],[[657]],[[20]],['low holistic'],['fovea'],['upright'],['U0362.bmp'],['male'],[[0]],['male'],[[1]],[[0.16421312]],LM
657,[[15]],[[658]],[[10]],['high holistic'],['left'],['upright'],['U0159.bmp'],['male'],[[4]],['female'],[[0]],[[2.44579984]],LM
658,[[15]],[[659]],[[8]],['high holistic'],['right'],['inverted'],['U0137.bmp'],['female'],[[4]],['female'],[[1]],[[0.25866171]],LM
659,[[15]],[[660]],[[9]],['high holistic'],['left'],['upright'],['U0155.bmp'],['female'],[[6]],['male'],[[0]],[[0.87264898]],LM
660,[[15]],[[661]],[[8]],['low holistic'],['left'],['inverted'],['U0137.bmp'],['male'],[[2]],['male'],[[1]],[[0.16596283]],LM
661,[[15]],[[662]],[[8]],['low holistic'],['right'],['upright'],['U0137.bmp'],['male'],[[8]],['male'],[[1]],[[0.00027694]],LM
662,[[15]],[[663]],[[19]],['low holistic'],['right'],['inverted'],['U0361.bmp'],['female'],[[2]],['female'],[[1]],[[0.39752082]],LM
663,[[15]],[[664]],[[14]],['high holistic'],['right'],['inverted'],['U0228.bmp'],['male'],[[6]],['male'],[[1]],[[1.16583552]],LM
664,[[15]],[[665]],[[4]],['high holistic'],['right'],['inverted'],['U0061.bmp'],['female'],[[2]],['male'],[[0]],[[1.35081215]],LM
665,[[15]],[[666]],[[17]],['high holistic'],['right'],['upright'],['U0346.bmp'],['male'],[[6]],['male'],[[1]],[[0.35879155]],LM
666,[[15]],[[667]],[[5]],['high holistic'],['left'],['upright'],['U0076.bmp'],['female'],[[6]],['female'],[[1]],[[0.33661385]],LM
667,[[15]],[[668]],[[14]],['high holistic'],['left'],['upright'],['U0228.bmp'],['male'],[[4]],['male'],[[1]],[[0.3147454]],LM
668,[[15]],[[669]],[[11]],['low holistic'],['right'],['inverted'],['U0164.bmp'],['female'],[[8]],['female'],[[1]],[[0.93371185]],LM
669,[[15]],[[670]],[[12]],['high holistic'],['right'],['upright'],['U0178.bmp'],['male'],[[10]],['female'],[[0]],[[0.81670045]],LM
670,[[15]],[[671]],[[2]],['low holistic'],['left'],['inverted'],['U0014.bmp'],['male'],[[4]],['male'],[[1]],[[0.23243325]],LM
671,[[15]],[[672]],[[18]],['low holistic'],['right'],['upright'],['U0359.bmp'],['male'],[[12]],['male'],[[1]],[[0.27693016]],LM
672,[[15]],[[673]],[[14]],['high holistic'],['left'],['inverted'],['U0228.bmp'],['male'],[[6]],['male'],[[1]],[[0.26700464]],LM
673,[[15]],[[674]],[[10]],['high holistic'],['left'],['upright'],['U0159.bmp'],['male'],[[6]],['male'],[[1]],[[0.13433257]],LM
674,[[15]],[[675]],[[17]],['low holistic'],['left'],['upright'],['U0346.bmp'],['female'],[[8]],['female'],[[1]],[[0.19337328]],LM
675,[[15]],[[676]],[[9]],['low holistic'],['left'],['upright'],['U0155.bmp'],['male'],[[2]],['male'],[[1]],[[0.1446555]],LM
676,[[15]],[[677]],[[14]],['low holistic'],['right'],['inverted'],['U0228.bmp'],['male'],[[6]],['male'],[[1]],[[0.15497945]],LM
677,[[15]],[[678]],[[11]],['low holistic'],['fovea'],['upright'],['U0164.bmp'],['female'],[[0]],['female'],[[1]],[[0.05859667]],LM
678,[[15]],[[679]],[[5]],['high holistic'],['left'],['upright'],['U0076.bmp'],['female'],[[2]],['male'],[[0]],[[0.28155908]],LM
679,[[15]],[[680]],[[13]],['high holistic'],['left'],['inverted'],['U0181.bmp'],['female'],[[6]],['female'],[[1]],[[0.42762749]],LM
680,[[15]],[[681]],[[3]],['low holistic'],['fovea'],['upright'],['U0020.bmp'],['female'],[[0]],['female'],[[1]],[[0.00011383]],LM
681,[[15]],[[682]],[[7]],['high holistic'],['left'],['inverted'],['U0107.bmp'],['female'],[[10]],['male'],[[0]],[[0.36260213]],LM
682,[[15]],[[683]],[[16]],['low holistic'],['left'],['upright'],['U0335.bmp'],['female'],[[2]],['female'],[[1]],[[0.00010743]],LM
683,[[15]],[[684]],[[1]],['high holistic'],['right'],['inverted'],['U0006.bmp'],['female'],[[2]],['female'],[[1]],[[0.21213755]],LM
684,[[15]],[[685]],[[19]],['low holistic'],['left'],['inverted'],['U0361.bmp'],['female'],[[10]],['female'],[[1]],[[0.45021902]],LM
685,[[15]],[[686]],[[8]],['high holistic'],['right'],['upright'],['U0137.bmp'],['female'],[[4]],['male'],[[0]],[[0.00015684]],LM
686,[[15]],[[687]],[[11]],['low holistic'],['right'],['upright'],['U0164.bmp'],['female'],[[8]],['female'],[[1]],[[0.13484062]],LM
687,[[15]],[[688]],[[11]],['high holistic'],['right'],['inverted'],['U0164.bmp'],['female'],[[6]],['female'],[[1]],[[0.44046022]],LM
688,[[15]],[[689]],[[20]],['low holistic'],['right'],['upright'],['U0362.bmp'],['male'],[[12]],['male'],[[1]],[[0.27046893]],LM
689,[[15]],[[690]],[[18]],['high holistic'],['right'],['upright'],['U0359.bmp'],['male'],[[2]],['male'],[[1]],[[0.39477347]],LM
690,[[15]],[[691]],[[15]],['high holistic'],['right'],['inverted'],['U0312.bmp'],['male'],[[4]],['female'],[[0]],[[4.3369133]],LM
691,[[15]],[[692]],[[2]],['low holistic'],['left'],['upright'],['U0014.bmp'],['male'],[[8]],['male'],[[1]],[[0.29899121]],LM
692,[[15]],[[693]],[[19]],['low holistic'],['right'],['upright'],['U0361.bmp'],['female'],[[2]],['female'],[[1]],[[0.00486787]],LM
693,[[15]],[[694]],[[2]],['low holistic'],['fovea'],['inverted'],['U0014.bmp'],['male'],[[0]],['male'],[[1]],[[0.8114169]],LM
694,[[15]],[[695]],[[20]],['low holistic'],['left'],['inverted'],['U0362.bmp'],['male'],[[6]],['male'],[[1]],[[0.36137125]],LM
695,[[15]],[[696]],[[3]],['high holistic'],['right'],['inverted'],['U0020.bmp'],['male'],[[12]],['male'],[[1]],[[0.22041125]],LM
696,[[15]],[[697]],[[2]],['low holistic'],['left'],['inverted'],['U0014.bmp'],['male'],[[2]],['male'],[[1]],[[0.70783309]],LM
697,[[15]],[[698]],[[10]],['high holistic'],['left'],['upright'],['U0159.bmp'],['male'],[[6]],['male'],[[1]],[[0.1104985]],LM
698,[[15]],[[699]],[[2]],['high holistic'],['right'],['inverted'],['U0014.bmp'],['male'],[[10]],['male'],[[1]],[[0.48932131]],LM
699,[[15]],[[700]],[[12]],['low holistic'],['right'],['inverted'],['U0178.bmp'],['female'],[[4]],['female'],[[1]],[[0.22884516]],LM
700,[[15]],[[701]],[[14]],['high holistic'],['left'],['upright'],['U0228.bmp'],['male'],[[6]],['male'],[[1]],[[1.42047027]],LM
701,[[15]],[[702]],[[12]],['high holistic'],['left'],['upright'],['U0178.bmp'],['male'],[[10]],['male'],[[1]],[[1.63341519]],LM
702,[[15]],[[703]],[[12]],['low holistic'],['left'],['upright'],['U0178.bmp'],['female'],[[4]],['female'],[[1]],[[0.26241371]],LM
703,[[15]],[[704]],[[11]],['low holistic'],['left'],['upright'],['U0164.bmp'],['female'],[[8]],['female'],[[1]],[[0.0001003]],LM
704,[[15]],[[705]],[[19]],['high holistic'],['right'],['inverted'],['U0361.bmp'],['female'],[[10]],['male'],[[0]],[[0.09157528]],LM
705,[[15]],[[706]],[[14]],['low holistic'],['left'],['inverted'],['U0228.bmp'],['male'],[[10]],['female'],[[0]],[[0.77679755]],LM
706,[[15]],[[707]],[[14]],['high holistic'],['left'],['upright'],['U0228.bmp'],['male'],[[4]],['male'],[[1]],[[0.05456238]],LM
707,[[15]],[[708]],[[16]],['high holistic'],['left'],['upright'],['U0335.bmp'],['female'],[[2]],['female'],[[1]],[[0.26923066]],LM
708,[[15]],[[709]],[[9]],['low holistic'],['left'],['inverted'],['U0155.bmp'],['male'],[[2]],['male'],[[1]],[[1.01677645]],LM
709,[[15]],[[710]],[[8]],['high holistic'],['right'],['upright'],['U0137.bmp'],['female'],[[10]],['female'],[[1]],[[3.13495171]],LM
710,[[15]],[[711]],[[6]],['high holistic'],['left'],['inverted'],['U0106.bmp'],['female'],[[8]],['female'],[[1]],[[0.45755851]],LM
711,[[15]],[[712]],[[15]],['high holistic'],['fovea'],['upright'],['U0312.bmp'],['male'],[[0]],['male'],[[1]],[[0.469789]],LM
712,[[15]],[[713]],[[11]],['low holistic'],['right'],['inverted'],['U0164.bmp'],['female'],[[6]],['female'],[[1]],[[0.37932785]],LM
713,[[15]],[[714]],[[3]],['high holistic'],['right'],['inverted'],['U0020.bmp'],['male'],[[8]],['female'],[[0]],[[0.11554575]],LM
714,[[15]],[[715]],[[12]],['high holistic'],['left'],['inverted'],['U0178.bmp'],['male'],[[2]],['male'],[[1]],[[0.00019932]],LM
715,[[15]],[[716]],[[9]],['low holistic'],['right'],['upright'],['U0155.bmp'],['male'],[[6]],['male'],[[1]],[[0.19870902]],LM
716,[[15]],[[717]],[[18]],['low holistic'],['left'],['inverted'],['U0359.bmp'],['male'],[[10]],['male'],[[1]],[[0.06079029]],LM
717,[[15]],[[718]],[[14]],['high holistic'],['right'],['upright'],['U0228.bmp'],['male'],[[8]],['male'],[[1]],[[0.01002153]],LM
718,[[15]],[[719]],[[20]],['low holistic'],['right'],['upright'],['U0362.bmp'],['male'],[[2]],['male'],[[1]],[[0.00013143]],LM
719,[[15]],[[720]],[[17]],['low holistic'],['right'],['upright'],['U0346.bmp'],['female'],[[8]],['female'],[[1]],[[2.20983027]],LM
720,[[15]],[[721]],[[16]],['low holistic'],['right'],['inverted'],['U0335.bmp'],['female'],[[8]],['female'],[[1]],[[0.12013384]],LM
721,[[15]],[[722]],[[18]],['low holistic'],['fovea'],['inverted'],['U0359.bmp'],['male'],[[0]],['male'],[[1]],[[0.35453463]],LM
722,[[15]],[[723]],[[14]],['high holistic'],['right'],['inverted'],['U0228.bmp'],['male'],[[6]],['male'],[[1]],[[0.14823889]],LM
723,[[15]],[[724]],[[11]],['low holistic'],['left'],['inverted'],['U0164.bmp'],['female'],[[10]],['female'],[[1]],[[0.38198894]],LM
724,[[15]],[[725]],[[9]],['low holistic'],['left'],['inverted'],['U0155.bmp'],['male'],[[12]],['male'],[[1]],[[0.18999911]],LM
725,[[15]],[[726]],[[13]],['high holistic'],['right'],['upright'],['U0181.bmp'],['female'],[[4]],['female'],[[1]],[[0.34222281]],LM
726,[[15]],[[727]],[[5]],['high holistic'],['right'],['inverted'],['U0076.bmp'],['female'],[[4]],['male'],[[0]],[[0.99882278]],LM
727,[[15]],[[728]],[[7]],['high holistic'],['right'],['upright'],['U0107.bmp'],['female'],[[10]],['male'],[[0]],[[0.66242795]],LM
728,[[15]],[[729]],[[2]],['low holistic'],['right'],['upright'],['U0014.bmp'],['male'],[[12]],['male'],[[1]],[[0.00031888]],LM
729,[[15]],[[730]],[[9]],['low holistic'],['right'],['upright'],['U0155.bmp'],['male'],[[10]],['male'],[[1]],[[0.00013868]],LM
730,[[15]],[[731]],[[15]],['low holistic'],['left'],['upright'],['U0312.bmp'],['male'],[[6]],['male'],[[1]],[[0.30802686]],LM
731,[[15]],[[732]],[[7]],['low holistic'],['right'],['upright'],['U0107.bmp'],['female'],[[4]],['female'],[[1]],[[0.14275921]],LM
732,[[15]],[[733]],[[4]],['high holistic'],['left'],['upright'],['U0061.bmp'],['female'],[[2]],['female'],[[1]],[[0.21601203]],LM
733,[[15]],[[734]],[[17]],['low holistic'],['left'],['upright'],['U0346.bmp'],['female'],[[2]],['female'],[[1]],[[0.31080477]],LM
734,[[15]],[[735]],[[2]],['low holistic'],['left'],['upright'],['U0014.bmp'],['male'],[[12]],['male'],[[1]],[[0.36307559]],LM
735,[[15]],[[736]],[[12]],['low holistic'],['right'],['inverted'],['U0178.bmp'],['female'],[[8]],['female'],[[1]],[[1.02810766]],LM
736,[[15]],[[737]],[[14]],['high holistic'],['left'],['inverted'],['U0228.bmp'],['male'],[[8]],['male'],[[1]],[[0.24987473]],LM
737,[[15]],[[738]],[[5]],['high holistic'],['left'],['upright'],['U0076.bmp'],['female'],[[8]],['female'],[[1]],[[0.21501196]],LM
738,[[15]],[[739]],[[3]],['low holistic'],['left'],['upright'],['U0020.bmp'],['female'],[[6]],['female'],[[1]],[[0.05438794]],LM
739,[[15]],[[740]],[[11]],['high holistic'],['left'],['inverted'],['U0164.bmp'],['female'],[[10]],['female'],[[1]],[[0.45056672]],LM
740,[[15]],[[741]],[[19]],['high holistic'],['left'],['inverted'],['U0361.bmp'],['female'],[[8]],['female'],[[1]],[[1.0805823]],LM
741,[[15]],[[742]],[[2]],['high holistic'],['left'],['inverted'],['U0014.bmp'],['male'],[[6]],['male'],[[1]],[[0.27610472]],LM
742,[[15]],[[743]],[[14]],['high holistic'],['left'],['inverted'],['U0228.bmp'],['male'],[[12]],['male'],[[1]],[[0.31976619]],LM
743,[[15]],[[744]],[[14]],['low holistic'],['fovea'],['upright'],['U0228.bmp'],['male'],[[0]],['male'],[[1]],[[0.41908638]],LM
744,[[15]],[[745]],[[16]],['high holistic'],['right'],['upright'],['U0335.bmp'],['female'],[[6]],['male'],[[0]],[[0.69656935]],LM
745,[[15]],[[746]],[[1]],['high holistic'],['right'],['inverted'],['U0006.bmp'],['female'],[[2]],['male'],[[0]],[[0.10931271]],LM
746,[[15]],[[747]],[[10]],['low holistic'],['left'],['inverted'],['U0159.bmp'],['female'],[[4]],['male'],[[0]],[[0.98278891]],LM
747,[[15]],[[748]],[[11]],['low holistic'],['left'],['upright'],['U0164.bmp'],['female'],[[2]],['female'],[[1]],[[9.94903967e-05]],LM
748,[[15]],[[749]],[[7]],['low holistic'],['right'],['upright'],['U0107.bmp'],['female'],[[2]],['female'],[[1]],[[0.00013579]],LM
749,[[15]],[[750]],[[13]],['high holistic'],['right'],['inverted'],['U0181.bmp'],['female'],[[10]],['female'],[[1]],[[1.96719311]],LM
750,[[15]],[[751]],[[6]],['high holistic'],['left'],['upright'],['U0106.bmp'],['female'],[[12]],['female'],[[1]],[[0.07210064]],LM
751,[[15]],[[752]],[[15]],['high holistic'],['right'],['inverted'],['U0312.bmp'],['male'],[[12]],['male'],[[1]],[[0.50887516]],LM
752,[[15]],[[753]],[[12]],['low holistic'],['right'],['upright'],['U0178.bmp'],['female'],[[6]],['male'],[[0]],[[0.37423418]],LM
753,[[15]],[[754]],[[9]],['low holistic'],['fovea'],['upright'],['U0155.bmp'],['male'],[[0]],['male'],[[1]],[[0.14276157]],LM
754,[[15]],[[755]],[[2]],['high holistic'],['left'],['upright'],['U0014.bmp'],['male'],[[4]],['male'],[[1]],[[0.99207049]],LM
755,[[15]],[[756]],[[20]],['high holistic'],['right'],['inverted'],['U0362.bmp'],['female'],[[4]],['female'],[[1]],[[0.16987798]],LM
756,[[15]],[[757]],[[17]],['low holistic'],['right'],['inverted'],['U0346.bmp'],['female'],[[4]],['female'],[[1]],[[0.00033188]],LM
757,[[15]],[[758]],[[3]],['low holistic'],['right'],['inverted'],['U0020.bmp'],['female'],[[8]],['female'],[[1]],[[0.00043808]],LM
758,[[15]],[[759]],[[14]],['high holistic'],['left'],['upright'],['U0228.bmp'],['male'],[[12]],['male'],[[1]],[[0.09790993]],LM
759,[[15]],[[760]],[[7]],['high holistic'],['left'],['upright'],['U0107.bmp'],['female'],[[8]],['male'],[[0]],[[0.31589125]],LM
760,[[15]],[[761]],[[2]],['high holistic'],['right'],['inverted'],['U0014.bmp'],['male'],[[6]],['male'],[[1]],[[0.0803352]],LM
761,[[15]],[[762]],[[16]],['low holistic'],['left'],['upright'],['U0335.bmp'],['female'],[[6]],['female'],[[1]],[[0.06891451]],LM
762,[[15]],[[763]],[[16]],['low holistic'],['right'],['upright'],['U0335.bmp'],['female'],[[4]],['female'],[[1]],[[0.02982114]],LM
763,[[15]],[[764]],[[1]],['low holistic'],['right'],['inverted'],['U0006.bmp'],['female'],[[4]],['female'],[[1]],[[0.26336721]],LM
764,[[15]],[[765]],[[9]],['high holistic'],['right'],['upright'],['U0155.bmp'],['female'],[[8]],['female'],[[1]],[[0.10601374]],LM
765,[[15]],[[766]],[[5]],['high holistic'],['right'],['upright'],['U0076.bmp'],['female'],[[4]],['male'],[[0]],[[0.25609829]],LM
766,[[15]],[[767]],[[16]],['low holistic'],['right'],['inverted'],['U0335.bmp'],['female'],[[2]],['male'],[[0]],[[2.00370898]],LM
767,[[15]],[[768]],[[17]],['high holistic'],['fovea'],['upright'],['U0346.bmp'],['male'],[[0]],['female'],[[0]],[[0.89186007]],LM
768,[[15]],[[769]],[[6]],['low holistic'],['left'],['upright'],['U0106.bmp'],['male'],[[2]],['male'],[[1]],[[0.0396828]],LM
769,[[15]],[[770]],[[10]],['high holistic'],['right'],['upright'],['U0159.bmp'],['male'],[[12]],['male'],[[1]],[[0.07716292]],LM
770,[[15]],[[771]],[[16]],['low holistic'],['left'],['upright'],['U0335.bmp'],['female'],[[12]],['female'],[[1]],[[0.32253986]],LM
771,[[15]],[[772]],[[3]],['low holistic'],['left'],['inverted'],['U0020.bmp'],['female'],[[6]],['male'],[[0]],[[0.19625162]],LM
772,[[15]],[[773]],[[1]],['high holistic'],['right'],['inverted'],['U0006.bmp'],['female'],[[12]],['female'],[[1]],[[0.2663633]],LM
