,SUBID,TRIAL,MOONEYID,MOONEYCATEGORY,LOC,COND,MOONEY_NAME,MOONEY_GENDER,ECCENTRICITY,RESPONSE,ACCURACY,RT,SUBINIT
0,[[4]],[[1]],[[6]],['high holistic'],['right'],['inverted'],['U0106.bmp'],['female'],[],['female'],[[1]],[[0.0659931]],MI
1,[[4]],[[2]],[[5]],['low holistic'],['right'],['upright'],['U0076.bmp'],['male'],[],['male'],[[1]],[[1.70465819]],MI
2,[[4]],[[3]],[[20]],['high holistic'],['right'],['upright'],['U0362.bmp'],['female'],[],['female'],[[1]],[[0.11648765]],MI
3,[[4]],[[4]],[[8]],['low holistic'],['left'],['inverted'],['U0137.bmp'],['male'],[],['male'],[[1]],[[0.00017216]],MI
4,[[4]],[[5]],[[3]],['low holistic'],['right'],['inverted'],['U0020.bmp'],['female'],[],['female'],[[1]],[[0.09453552]],MI
5,[[4]],[[6]],[[1]],['low holistic'],['right'],['inverted'],['U0006.bmp'],['female'],[],['female'],[[1]],[[0.08415587]],MI
6,[[4]],[[7]],[[1]],['high holistic'],['right'],['inverted'],['U0006.bmp'],['female'],[],['male'],[[0]],[[0.00014535]],MI
7,[[4]],[[8]],[[18]],['high holistic'],['left'],['inverted'],['U0359.bmp'],['male'],[],['male'],[[1]],[[0.00010111]],MI
8,[[4]],[[9]],[[17]],['high holistic'],['left'],['inverted'],['U0346.bmp'],['male'],[],['female'],[[0]],[[0.04862771]],MI
9,[[4]],[[10]],[[5]],['high holistic'],['left'],['inverted'],['U0076.bmp'],['female'],[],['male'],[[0]],[[0.00021753]],MI
10,[[4]],[[11]],[[4]],['high holistic'],['right'],['upright'],['U0061.bmp'],['female'],[],['male'],[[0]],[[0.00036266]],MI
11,[[4]],[[12]],[[6]],['high holistic'],['right'],['inverted'],['U0106.bmp'],['female'],[],['male'],[[0]],[[0.00011856]],MI
12,[[4]],[[13]],[[1]],['low holistic'],['left'],['inverted'],['U0006.bmp'],['female'],[],['female'],[[1]],[[0.00029157]],MI
13,[[4]],[[14]],[[5]],['high holistic'],['left'],['inverted'],['U0076.bmp'],['female'],[],['male'],[[0]],[[0.05716412]],MI
14,[[4]],[[15]],[[20]],['high holistic'],['right'],['upright'],['U0362.bmp'],['female'],[],['female'],[[1]],[[0.00020167]],MI
15,[[4]],[[16]],[[14]],['high holistic'],['right'],['inverted'],['U0228.bmp'],['male'],[],['male'],[[1]],[[0.0002983]],MI
16,[[4]],[[17]],[[13]],['high holistic'],['right'],['upright'],['U0181.bmp'],['female'],[],['male'],[[0]],[[0.00013578]],MI
17,[[4]],[[18]],[[15]],['high holistic'],['left'],['inverted'],['U0312.bmp'],['male'],[],['female'],[[0]],[[0.00014201]],MI
18,[[4]],[[19]],[[8]],['high holistic'],['right'],['upright'],['U0137.bmp'],['female'],[],['male'],[[0]],[[0.00012256]],MI
19,[[4]],[[20]],[[4]],['low holistic'],['left'],['inverted'],['U0061.bmp'],['female'],[],['female'],[[1]],[[3.31204419]],MI
20,[[4]],[[21]],[[20]],['high holistic'],['right'],['upright'],['U0362.bmp'],['female'],[],['female'],[[1]],[[0.00915849]],MI
21,[[4]],[[22]],[[2]],['high holistic'],['left'],['inverted'],['U0014.bmp'],['male'],[],['male'],[[1]],[[0.00016079]],MI
22,[[4]],[[23]],[[3]],['low holistic'],['left'],['upright'],['U0020.bmp'],['female'],[],['male'],[[0]],[[2.39497928]],MI
23,[[4]],[[24]],[[15]],['low holistic'],['right'],['upright'],['U0312.bmp'],['male'],[],['female'],[[0]],[[0.10878159]],MI
24,[[4]],[[25]],[[10]],['low holistic'],['right'],['upright'],['U0159.bmp'],['female'],[],['female'],[[1]],[[0.007773]],MI
25,[[4]],[[26]],[[20]],['high holistic'],['left'],['inverted'],['U0362.bmp'],['female'],[],['male'],[[0]],[[0.00010806]],MI
26,[[4]],[[27]],[[15]],['low holistic'],['fovea'],['inverted'],['U0312.bmp'],['male'],[],['female'],[[0]],[[0.00014925]],MI
27,[[4]],[[28]],[[8]],['low holistic'],['left'],['inverted'],['U0137.bmp'],['male'],[],['female'],[[0]],[[0.00041834]],MI
28,[[4]],[[29]],[[13]],['low holistic'],['left'],['inverted'],['U0181.bmp'],['male'],[],['female'],[[0]],[[9.95276496e-05]],MI
29,[[4]],[[30]],[[20]],['high holistic'],['left'],['inverted'],['U0362.bmp'],['female'],[],['female'],[[1]],[[0.00038783]],MI
30,[[4]],[[31]],[[14]],['high holistic'],['left'],['inverted'],['U0228.bmp'],['male'],[],['female'],[[0]],[[0.00010061]],MI
31,[[4]],[[32]],[[3]],['high holistic'],['left'],['inverted'],['U0020.bmp'],['male'],[],['female'],[[0]],[[0.00010772]],MI
32,[[4]],[[33]],[[2]],['high holistic'],['right'],['inverted'],['U0014.bmp'],['male'],[],['male'],[[1]],[[0.0001084]],MI
33,[[4]],[[34]],[[9]],['high holistic'],['left'],['upright'],['U0155.bmp'],['female'],[],['male'],[[0]],[[0.00037802]],MI
34,[[4]],[[35]],[[7]],['high holistic'],['right'],['inverted'],['U0107.bmp'],['female'],[],['female'],[[1]],[[0.16095687]],MI
35,[[4]],[[36]],[[1]],['high holistic'],['left'],['inverted'],['U0006.bmp'],['female'],[],['female'],[[1]],[[0.00010108]],MI
36,[[4]],[[37]],[[4]],['low holistic'],['right'],['inverted'],['U0061.bmp'],['female'],[],['male'],[[0]],[[2.54730413]],MI
37,[[4]],[[38]],[[16]],['high holistic'],['right'],['inverted'],['U0335.bmp'],['female'],[],['female'],[[1]],[[0.00010016]],MI
38,[[4]],[[39]],[[20]],['low holistic'],['left'],['upright'],['U0362.bmp'],['male'],[],['female'],[[0]],[[0.08353863]],MI
39,[[4]],[[40]],[[15]],['low holistic'],['right'],['upright'],['U0312.bmp'],['male'],[],['female'],[[0]],[[0.00020673]],MI
40,[[4]],[[41]],[[8]],['low holistic'],['right'],['upright'],['U0137.bmp'],['male'],[],['male'],[[1]],[[0.04893038]],MI
41,[[4]],[[42]],[[8]],['high holistic'],['left'],['inverted'],['U0137.bmp'],['female'],[],['male'],[[0]],[[0.00010176]],MI
42,[[4]],[[43]],[[4]],['low holistic'],['fovea'],['upright'],['U0061.bmp'],['female'],[],['female'],[[1]],[[0.00016117]],MI
43,[[4]],[[44]],[[15]],['high holistic'],['left'],['inverted'],['U0312.bmp'],['male'],[],['male'],[[1]],[[0.00010745]],MI
44,[[4]],[[45]],[[11]],['high holistic'],['right'],['upright'],['U0164.bmp'],['female'],[],['male'],[[0]],[[0.00010989]],MI
45,[[4]],[[46]],[[2]],['low holistic'],['right'],['upright'],['U0014.bmp'],['male'],[],['male'],[[1]],[[9.93087888e-05]],MI
46,[[4]],[[47]],[[7]],['low holistic'],['right'],['inverted'],['U0107.bmp'],['female'],[],['female'],[[1]],[[0.00010093]],MI
47,[[4]],[[48]],[[9]],['low holistic'],['right'],['inverted'],['U0155.bmp'],['male'],[],['male'],[[1]],[[0.00017043]],MI
48,[[4]],[[49]],[[9]],['high holistic'],['right'],['inverted'],['U0155.bmp'],['female'],[],['male'],[[0]],[[1.80829713]],MI
49,[[4]],[[50]],[[12]],['low holistic'],['left'],['inverted'],['U0178.bmp'],['female'],[],['female'],[[1]],[[0.00011178]],MI
50,[[4]],[[51]],[[11]],['low holistic'],['right'],['inverted'],['U0164.bmp'],['female'],[],['female'],[[1]],[[9.99420881e-05]],MI
51,[[4]],[[52]],[[9]],['high holistic'],['left'],['upright'],['U0155.bmp'],['female'],[],['female'],[[1]],[[0.00039285]],MI
52,[[4]],[[53]],[[15]],['low holistic'],['right'],['upright'],['U0312.bmp'],['male'],[],['male'],[[1]],[[0.00010758]],MI
53,[[4]],[[54]],[[9]],['high holistic'],['right'],['upright'],['U0155.bmp'],['female'],[],['female'],[[1]],[[0.00010702]],MI
54,[[4]],[[55]],[[8]],['low holistic'],['left'],['upright'],['U0137.bmp'],['male'],[],['female'],[[0]],[[0.00668435]],MI
55,[[4]],[[56]],[[18]],['low holistic'],['right'],['upright'],['U0359.bmp'],['male'],[],['male'],[[1]],[[0.00010115]],MI
56,[[4]],[[57]],[[4]],['low holistic'],['left'],['inverted'],['U0061.bmp'],['female'],[],['male'],[[0]],[[0.000108]],MI
57,[[4]],[[58]],[[10]],['high holistic'],['right'],['inverted'],['U0159.bmp'],['male'],[],['female'],[[0]],[[9.97949392e-05]],MI
58,[[4]],[[59]],[[9]],['low holistic'],['right'],['upright'],['U0155.bmp'],['male'],[],['female'],[[0]],[[0.00017644]],MI
59,[[4]],[[60]],[[20]],['low holistic'],['fovea'],['upright'],['U0362.bmp'],['male'],[],['male'],[[1]],[[2.26177177]],MI
60,[[4]],[[61]],[[19]],['low holistic'],['right'],['inverted'],['U0361.bmp'],['female'],[],['male'],[[0]],[[0.19006204]],MI
61,[[4]],[[62]],[[17]],['low holistic'],['left'],['inverted'],['U0346.bmp'],['female'],[],['female'],[[1]],[[0.06974877]],MI
62,[[4]],[[63]],[[16]],['low holistic'],['left'],['upright'],['U0335.bmp'],['female'],[],['female'],[[1]],[[0.64966495]],MI
63,[[4]],[[64]],[[10]],['low holistic'],['right'],['inverted'],['U0159.bmp'],['female'],[],['male'],[[0]],[[0.00013564]],MI
64,[[4]],[[65]],[[5]],['low holistic'],['fovea'],['inverted'],['U0076.bmp'],['male'],[],['male'],[[1]],[[0.00016459]],MI
65,[[4]],[[66]],[[14]],['high holistic'],['left'],['inverted'],['U0228.bmp'],['male'],[],['female'],[[0]],[[0.13638737]],MI
66,[[4]],[[67]],[[8]],['low holistic'],['left'],['inverted'],['U0137.bmp'],['male'],[],['female'],[[0]],[[0.0435142]],MI
67,[[4]],[[68]],[[9]],['high holistic'],['right'],['upright'],['U0155.bmp'],['female'],[],['male'],[[0]],[[3.60276324]],MI
68,[[4]],[[69]],[[9]],['high holistic'],['right'],['inverted'],['U0155.bmp'],['female'],[],['male'],[[0]],[[0.00010971]],MI
69,[[4]],[[70]],[[19]],['low holistic'],['fovea'],['upright'],['U0361.bmp'],['female'],[],['female'],[[1]],[[0.00021781]],MI
70,[[4]],[[71]],[[17]],['high holistic'],['fovea'],['upright'],['U0346.bmp'],['male'],[],['male'],[[1]],[[0.00029212]],MI
71,[[4]],[[72]],[[16]],['high holistic'],['left'],['upright'],['U0335.bmp'],['female'],[],['male'],[[0]],[[0.00010007]],MI
72,[[4]],[[73]],[[2]],['high holistic'],['left'],['upright'],['U0014.bmp'],['male'],[],['male'],[[1]],[[0.08043968]],MI
73,[[4]],[[74]],[[12]],['low holistic'],['right'],['inverted'],['U0178.bmp'],['female'],[],['female'],[[1]],[[2.39102012]],MI
74,[[4]],[[75]],[[16]],['high holistic'],['right'],['inverted'],['U0335.bmp'],['female'],[],['male'],[[0]],[[0.00010099]],MI
75,[[4]],[[76]],[[4]],['high holistic'],['right'],['inverted'],['U0061.bmp'],['female'],[],['female'],[[1]],[[0.00010179]],MI
76,[[4]],[[77]],[[20]],['high holistic'],['left'],['inverted'],['U0362.bmp'],['female'],[],['female'],[[1]],[[0.63883748]],MI
77,[[4]],[[78]],[[2]],['low holistic'],['left'],['upright'],['U0014.bmp'],['male'],[],['male'],[[1]],[[0.02136738]],MI
78,[[4]],[[79]],[[16]],['low holistic'],['right'],['upright'],['U0335.bmp'],['female'],[],['female'],[[1]],[[0.00011226]],MI
79,[[4]],[[80]],[[13]],['low holistic'],['right'],['upright'],['U0181.bmp'],['male'],[],['male'],[[1]],[[0.00010111]],MI
80,[[4]],[[81]],[[10]],['low holistic'],['right'],['upright'],['U0159.bmp'],['female'],[],['male'],[[0]],[[0.00010919]],MI
81,[[4]],[[82]],[[20]],['high holistic'],['right'],['upright'],['U0362.bmp'],['female'],[],['female'],[[1]],[[0.0001077]],MI
82,[[4]],[[83]],[[6]],['low holistic'],['right'],['inverted'],['U0106.bmp'],['male'],[],['female'],[[0]],[[0.00010843]],MI
83,[[4]],[[84]],[[7]],['high holistic'],['left'],['upright'],['U0107.bmp'],['female'],[],['male'],[[0]],[[1.53289548]],MI
84,[[4]],[[85]],[[10]],['high holistic'],['right'],['upright'],['U0159.bmp'],['male'],[],['female'],[[0]],[[0.03194995]],MI
85,[[4]],[[86]],[[17]],['high holistic'],['right'],['inverted'],['U0346.bmp'],['male'],[],['female'],[[0]],[[1.19712206]],MI
86,[[4]],[[87]],[[3]],['low holistic'],['left'],['upright'],['U0020.bmp'],['female'],[],['male'],[[0]],[[0.00010643]],MI
87,[[4]],[[88]],[[3]],['low holistic'],['left'],['inverted'],['U0020.bmp'],['female'],[],['male'],[[0]],[[0.07784636]],MI
88,[[4]],[[89]],[[10]],['high holistic'],['right'],['upright'],['U0159.bmp'],['male'],[],['male'],[[1]],[[0.03446317]],MI
89,[[4]],[[90]],[[12]],['high holistic'],['left'],['inverted'],['U0178.bmp'],['male'],[],['female'],[[0]],[[0.60276448]],MI
90,[[4]],[[91]],[[16]],['low holistic'],['left'],['inverted'],['U0335.bmp'],['female'],[],['female'],[[1]],[[0.01048808]],MI
91,[[4]],[[92]],[[9]],['high holistic'],['left'],['inverted'],['U0155.bmp'],['female'],[],['male'],[[0]],[[0.16144444]],MI
92,[[4]],[[93]],[[12]],['low holistic'],['right'],['upright'],['U0178.bmp'],['female'],[],['female'],[[1]],[[0.03556432]],MI
93,[[4]],[[94]],[[19]],['low holistic'],['right'],['inverted'],['U0361.bmp'],['female'],[],['male'],[[0]],[[0.0001001]],MI
94,[[4]],[[95]],[[11]],['low holistic'],['left'],['upright'],['U0164.bmp'],['female'],[],['male'],[[0]],[[0.01049853]],MI
95,[[4]],[[96]],[[10]],['high holistic'],['right'],['upright'],['U0159.bmp'],['male'],[],['male'],[[1]],[[0.02638351]],MI
96,[[4]],[[97]],[[5]],['low holistic'],['left'],['inverted'],['U0076.bmp'],['male'],[],['female'],[[0]],[[9.95546579e-05]],MI
97,[[4]],[[98]],[[16]],['low holistic'],['right'],['upright'],['U0335.bmp'],['female'],[],['female'],[[1]],[[0.00028021]],MI
98,[[4]],[[99]],[[15]],['high holistic'],['left'],['inverted'],['U0312.bmp'],['male'],[],['male'],[[1]],[[0.00010152]],MI
99,[[4]],[[100]],[[2]],['high holistic'],['left'],['upright'],['U0014.bmp'],['male'],[],['male'],[[1]],[[0.00010711]],MI
100,[[4]],[[101]],[[10]],['low holistic'],['left'],['upright'],['U0159.bmp'],['female'],[],['female'],[[1]],[[0.06633195]],MI
101,[[4]],[[102]],[[3]],['low holistic'],['fovea'],['inverted'],['U0020.bmp'],['female'],[],['female'],[[1]],[[0.1523828]],MI
102,[[4]],[[103]],[[4]],['low holistic'],['left'],['upright'],['U0061.bmp'],['female'],[],['female'],[[1]],[[0.15418978]],MI
103,[[4]],[[104]],[[16]],['high holistic'],['right'],['inverted'],['U0335.bmp'],['female'],[],['male'],[[0]],[[0.1566707]],MI
104,[[4]],[[105]],[[17]],['high holistic'],['left'],['upright'],['U0346.bmp'],['male'],[],['male'],[[1]],[[0.00010081]],MI
105,[[4]],[[106]],[[13]],['high holistic'],['left'],['inverted'],['U0181.bmp'],['female'],[],['male'],[[0]],[[0.00011002]],MI
106,[[4]],[[107]],[[11]],['high holistic'],['left'],['upright'],['U0164.bmp'],['female'],[],['female'],[[1]],[[0.11753883]],MI
107,[[4]],[[108]],[[14]],['low holistic'],['left'],['inverted'],['U0228.bmp'],['male'],[],['male'],[[1]],[[0.00010707]],MI
108,[[4]],[[109]],[[20]],['high holistic'],['left'],['upright'],['U0362.bmp'],['female'],[],['female'],[[1]],[[0.0001315]],MI
109,[[4]],[[110]],[[3]],['high holistic'],['right'],['inverted'],['U0020.bmp'],['male'],[],['female'],[[0]],[[0.0400813]],MI
110,[[4]],[[111]],[[14]],['low holistic'],['right'],['upright'],['U0228.bmp'],['male'],[],['male'],[[1]],[[1.71815294]],MI
111,[[4]],[[112]],[[8]],['high holistic'],['right'],['inverted'],['U0137.bmp'],['female'],[],['male'],[[0]],[[0.00010765]],MI
112,[[4]],[[113]],[[18]],['low holistic'],['left'],['upright'],['U0359.bmp'],['male'],[],['female'],[[0]],[[0.21842512]],MI
113,[[4]],[[114]],[[8]],['low holistic'],['left'],['inverted'],['U0137.bmp'],['male'],[],['male'],[[1]],[[0.19244268]],MI
114,[[4]],[[115]],[[14]],['high holistic'],['left'],['upright'],['U0228.bmp'],['male'],[],['male'],[[1]],[[0.1218032]],MI
115,[[4]],[[116]],[[18]],['low holistic'],['right'],['inverted'],['U0359.bmp'],['male'],[],['male'],[[1]],[[0.00011427]],MI
116,[[4]],[[117]],[[7]],['high holistic'],['left'],['upright'],['U0107.bmp'],['female'],[],['female'],[[1]],[[0.00014063]],MI
117,[[4]],[[118]],[[12]],['low holistic'],['left'],['inverted'],['U0178.bmp'],['female'],[],['male'],[[0]],[[0.0439054]],MI
118,[[4]],[[119]],[[18]],['high holistic'],['left'],['inverted'],['U0359.bmp'],['male'],[],['male'],[[1]],[[0.00010047]],MI
119,[[4]],[[120]],[[4]],['low holistic'],['right'],['upright'],['U0061.bmp'],['female'],[],['male'],[[0]],[[0.00010307]],MI
120,[[4]],[[121]],[[9]],['low holistic'],['right'],['inverted'],['U0155.bmp'],['male'],[],['female'],[[0]],[[0.04349508]],MI
121,[[4]],[[122]],[[6]],['high holistic'],['left'],['inverted'],['U0106.bmp'],['female'],[],['male'],[[0]],[[0.12992735]],MI
122,[[4]],[[123]],[[1]],['high holistic'],['left'],['upright'],['U0006.bmp'],['female'],[],['female'],[[1]],[[0.16448243]],MI
123,[[4]],[[124]],[[16]],['low holistic'],['left'],['inverted'],['U0335.bmp'],['female'],[],['female'],[[1]],[[0.18181236]],MI
124,[[4]],[[125]],[[1]],['low holistic'],['right'],['upright'],['U0006.bmp'],['female'],[],['female'],[[1]],[[0.30102087]],MI
125,[[4]],[[126]],[[17]],['high holistic'],['right'],['upright'],['U0346.bmp'],['male'],[],['male'],[[1]],[[0.15445373]],MI
126,[[4]],[[127]],[[4]],['high holistic'],['right'],['upright'],['U0061.bmp'],['female'],[],['male'],[[0]],[[0.44452642]],MI
127,[[4]],[[128]],[[3]],['low holistic'],['left'],['inverted'],['U0020.bmp'],['female'],[],['female'],[[1]],[[0.43475555]],MI
128,[[4]],[[129]],[[2]],['high holistic'],['right'],['upright'],['U0014.bmp'],['male'],[],['male'],[[1]],[[0.14363695]],MI
129,[[4]],[[130]],[[4]],['low holistic'],['right'],['upright'],['U0061.bmp'],['female'],[],['female'],[[1]],[[0.37899647]],MI
130,[[4]],[[131]],[[20]],['high holistic'],['left'],['upright'],['U0362.bmp'],['female'],[],['female'],[[1]],[[0.00010113]],MI
131,[[4]],[[132]],[[11]],['high holistic'],['fovea'],['inverted'],['U0164.bmp'],['female'],[],['female'],[[1]],[[0.65676378]],MI
132,[[4]],[[133]],[[20]],['low holistic'],['right'],['inverted'],['U0362.bmp'],['male'],[],['male'],[[1]],[[0.0003498]],MI
133,[[4]],[[134]],[[14]],['high holistic'],['left'],['upright'],['U0228.bmp'],['male'],[],['male'],[[1]],[[0.08535836]],MI
134,[[4]],[[135]],[[3]],['low holistic'],['right'],['inverted'],['U0020.bmp'],['female'],[],['male'],[[0]],[[0.00010143]],MI
135,[[4]],[[136]],[[7]],['low holistic'],['left'],['inverted'],['U0107.bmp'],['female'],[],['female'],[[1]],[[0.00010898]],MI
136,[[4]],[[137]],[[2]],['low holistic'],['left'],['upright'],['U0014.bmp'],['male'],[],['female'],[[0]],[[1.52138992]],MI
137,[[4]],[[138]],[[5]],['high holistic'],['right'],['inverted'],['U0076.bmp'],['female'],[],['female'],[[1]],[[0.62248787]],MI
138,[[4]],[[139]],[[1]],['low holistic'],['right'],['upright'],['U0006.bmp'],['female'],[],['female'],[[1]],[[0.08453825]],MI
139,[[4]],[[140]],[[5]],['low holistic'],['left'],['upright'],['U0076.bmp'],['male'],[],['male'],[[1]],[[0.02405412]],MI
140,[[4]],[[141]],[[19]],['high holistic'],['left'],['inverted'],['U0361.bmp'],['female'],[],['male'],[[0]],[[0.02383317]],MI
141,[[4]],[[142]],[[5]],['high holistic'],['right'],['inverted'],['U0076.bmp'],['female'],[],['male'],[[0]],[[0.08568249]],MI
142,[[4]],[[143]],[[6]],['low holistic'],['left'],['upright'],['U0106.bmp'],['male'],[],['female'],[[0]],[[0.51634711]],MI
143,[[4]],[[144]],[[2]],['low holistic'],['right'],['upright'],['U0014.bmp'],['male'],[],['male'],[[1]],[[0.00010908]],MI
144,[[4]],[[145]],[[6]],['high holistic'],['left'],['upright'],['U0106.bmp'],['female'],[],['female'],[[1]],[[0.18158958]],MI
145,[[4]],[[146]],[[20]],['high holistic'],['right'],['upright'],['U0362.bmp'],['female'],[],['female'],[[1]],[[0.11897161]],MI
146,[[4]],[[147]],[[18]],['low holistic'],['left'],['inverted'],['U0359.bmp'],['male'],[],['male'],[[1]],[[0.049823]],MI
147,[[4]],[[148]],[[11]],['high holistic'],['right'],['upright'],['U0164.bmp'],['female'],[],['female'],[[1]],[[0.0720157]],MI
148,[[4]],[[149]],[[12]],['low holistic'],['left'],['upright'],['U0178.bmp'],['female'],[],['female'],[[1]],[[0.14905222]],MI
149,[[4]],[[150]],[[16]],['high holistic'],['left'],['inverted'],['U0335.bmp'],['female'],[],['male'],[[0]],[[0.07102228]],MI
150,[[4]],[[151]],[[6]],['low holistic'],['left'],['upright'],['U0106.bmp'],['male'],[],['male'],[[1]],[[0.21395563]],MI
151,[[4]],[[152]],[[6]],['low holistic'],['left'],['upright'],['U0106.bmp'],['male'],[],['male'],[[1]],[[0.00010027]],MI
152,[[4]],[[153]],[[19]],['high holistic'],['right'],['inverted'],['U0361.bmp'],['female'],[],['male'],[[0]],[[0.42052638]],MI
153,[[4]],[[154]],[[2]],['low holistic'],['left'],['inverted'],['U0014.bmp'],['male'],[],['male'],[[1]],[[0.00011912]],MI
154,[[4]],[[155]],[[9]],['low holistic'],['left'],['upright'],['U0155.bmp'],['male'],[],['male'],[[1]],[[0.00010117]],MI
155,[[4]],[[156]],[[18]],['low holistic'],['right'],['upright'],['U0359.bmp'],['male'],[],['male'],[[1]],[[0.05869177]],MI
156,[[4]],[[157]],[[12]],['high holistic'],['left'],['inverted'],['U0178.bmp'],['male'],[],['male'],[[1]],[[0.00010018]],MI
157,[[4]],[[158]],[[20]],['high holistic'],['left'],['upright'],['U0362.bmp'],['female'],[],['female'],[[1]],[[0.15971993]],MI
158,[[4]],[[159]],[[10]],['high holistic'],['right'],['inverted'],['U0159.bmp'],['male'],[],['female'],[[0]],[[0.25156255]],MI
159,[[4]],[[160]],[[6]],['high holistic'],['right'],['upright'],['U0106.bmp'],['female'],[],['male'],[[0]],[[9.88598913e-05]],MI
160,[[4]],[[161]],[[9]],['high holistic'],['right'],['upright'],['U0155.bmp'],['female'],[],['female'],[[1]],[[0.63429594]],MI
161,[[4]],[[162]],[[2]],['low holistic'],['left'],['inverted'],['U0014.bmp'],['male'],[],['male'],[[1]],[[0.24805445]],MI
162,[[4]],[[163]],[[1]],['low holistic'],['right'],['upright'],['U0006.bmp'],['female'],[],['female'],[[1]],[[0.04620055]],MI
163,[[4]],[[164]],[[17]],['high holistic'],['left'],['inverted'],['U0346.bmp'],['male'],[],['male'],[[1]],[[0.18023625]],MI
164,[[4]],[[165]],[[2]],['high holistic'],['left'],['inverted'],['U0014.bmp'],['male'],[],['male'],[[1]],[[0.10097899]],MI
165,[[4]],[[166]],[[3]],['low holistic'],['right'],['inverted'],['U0020.bmp'],['female'],[],['male'],[[0]],[[0.16100017]],MI
166,[[4]],[[167]],[[11]],['low holistic'],['right'],['inverted'],['U0164.bmp'],['female'],[],['female'],[[1]],[[0.10682663]],MI
167,[[4]],[[168]],[[18]],['high holistic'],['left'],['upright'],['U0359.bmp'],['male'],[],['male'],[[1]],[[0.20475964]],MI
168,[[4]],[[169]],[[11]],['high holistic'],['left'],['upright'],['U0164.bmp'],['female'],[],['female'],[[1]],[[0.41231074]],MI
169,[[4]],[[170]],[[16]],['low holistic'],['right'],['inverted'],['U0335.bmp'],['female'],[],['female'],[[1]],[[0.61366302]],MI
170,[[4]],[[171]],[[18]],['low holistic'],['right'],['inverted'],['U0359.bmp'],['male'],[],['female'],[[0]],[[0.1249111]],MI
171,[[4]],[[172]],[[1]],['high holistic'],['right'],['inverted'],['U0006.bmp'],['female'],[],['male'],[[0]],[[0.12041733]],MI
172,[[4]],[[173]],[[5]],['low holistic'],['right'],['inverted'],['U0076.bmp'],['male'],[],['male'],[[1]],[[0.000109]],MI
173,[[4]],[[174]],[[4]],['low holistic'],['left'],['upright'],['U0061.bmp'],['female'],[],['male'],[[0]],[[0.28303611]],MI
174,[[4]],[[175]],[[13]],['high holistic'],['right'],['upright'],['U0181.bmp'],['female'],[],['female'],[[1]],[[0.52694672]],MI
175,[[4]],[[176]],[[13]],['high holistic'],['right'],['inverted'],['U0181.bmp'],['female'],[],['female'],[[1]],[[0.22550116]],MI
176,[[4]],[[177]],[[18]],['high holistic'],['right'],['upright'],['U0359.bmp'],['male'],[],['male'],[[1]],[[0.18544224]],MI
177,[[4]],[[178]],[[10]],['low holistic'],['left'],['upright'],['U0159.bmp'],['female'],[],['female'],[[1]],[[0.20222041]],MI
178,[[4]],[[179]],[[9]],['low holistic'],['right'],['inverted'],['U0155.bmp'],['male'],[],['male'],[[1]],[[0.49016943]],MI
179,[[4]],[[180]],[[12]],['high holistic'],['right'],['upright'],['U0178.bmp'],['male'],[],['male'],[[1]],[[0.1989896]],MI
180,[[4]],[[181]],[[20]],['high holistic'],['right'],['upright'],['U0362.bmp'],['female'],[],['female'],[[1]],[[0.05406281]],MI
181,[[4]],[[182]],[[6]],['high holistic'],['right'],['inverted'],['U0106.bmp'],['female'],[],['male'],[[0]],[[0.25278605]],MI
182,[[4]],[[183]],[[13]],['low holistic'],['right'],['upright'],['U0181.bmp'],['male'],[],['male'],[[1]],[[0.38699253]],MI
183,[[4]],[[184]],[[17]],['low holistic'],['right'],['upright'],['U0346.bmp'],['female'],[],['female'],[[1]],[[0.18664592]],MI
184,[[4]],[[185]],[[20]],['high holistic'],['right'],['inverted'],['U0362.bmp'],['female'],[],['male'],[[0]],[[0.84322761]],MI
185,[[4]],[[186]],[[3]],['low holistic'],['left'],['upright'],['U0020.bmp'],['female'],[],['female'],[[1]],[[0.60849072]],MI
186,[[4]],[[187]],[[2]],['low holistic'],['left'],['upright'],['U0014.bmp'],['male'],[],['male'],[[1]],[[0.16006725]],MI
187,[[4]],[[188]],[[13]],['high holistic'],['right'],['upright'],['U0181.bmp'],['female'],[],['female'],[[1]],[[0.88210931]],MI
188,[[4]],[[189]],[[19]],['high holistic'],['left'],['inverted'],['U0361.bmp'],['female'],[],['male'],[[0]],[[0.31211418]],MI
189,[[4]],[[190]],[[3]],['low holistic'],['left'],['upright'],['U0020.bmp'],['female'],[],['female'],[[1]],[[0.35433749]],MI
190,[[4]],[[191]],[[10]],['low holistic'],['right'],['inverted'],['U0159.bmp'],['female'],[],['female'],[[1]],[[0.38078043]],MI
191,[[4]],[[192]],[[14]],['high holistic'],['right'],['inverted'],['U0228.bmp'],['male'],[],['male'],[[1]],[[0.17291811]],MI
192,[[4]],[[193]],[[10]],['high holistic'],['right'],['inverted'],['U0159.bmp'],['male'],[],['female'],[[0]],[[0.49335732]],MI
193,[[4]],[[194]],[[19]],['low holistic'],['left'],['upright'],['U0361.bmp'],['female'],[],['female'],[[1]],[[0.419603]],MI
194,[[4]],[[195]],[[19]],['high holistic'],['left'],['inverted'],['U0361.bmp'],['female'],[],['male'],[[0]],[[0.23500094]],MI
195,[[4]],[[196]],[[14]],['high holistic'],['fovea'],['inverted'],['U0228.bmp'],['male'],[],['male'],[[1]],[[0.26347673]],MI
196,[[4]],[[197]],[[15]],['high holistic'],['left'],['inverted'],['U0312.bmp'],['male'],[],['female'],[[0]],[[0.27773444]],MI
197,[[4]],[[198]],[[1]],['high holistic'],['left'],['upright'],['U0006.bmp'],['female'],[],['female'],[[1]],[[0.19382783]],MI
198,[[4]],[[199]],[[4]],['low holistic'],['fovea'],['inverted'],['U0061.bmp'],['female'],[],['female'],[[1]],[[0.24276449]],MI
199,[[4]],[[200]],[[13]],['low holistic'],['left'],['upright'],['U0181.bmp'],['male'],[],['male'],[[1]],[[0.40106783]],MI
200,[[4]],[[201]],[[19]],['high holistic'],['left'],['upright'],['U0361.bmp'],['female'],[],['male'],[[0]],[[0.00024558]],MI
201,[[4]],[[202]],[[18]],['high holistic'],['right'],['upright'],['U0359.bmp'],['male'],[],['male'],[[1]],[[0.07638219]],MI
202,[[4]],[[203]],[[2]],['low holistic'],['right'],['inverted'],['U0014.bmp'],['male'],[],['male'],[[1]],[[0.08671721]],MI
203,[[4]],[[204]],[[20]],['low holistic'],['right'],['inverted'],['U0362.bmp'],['male'],[],['male'],[[1]],[[0.05969308]],MI
204,[[4]],[[205]],[[9]],['low holistic'],['right'],['inverted'],['U0155.bmp'],['male'],[],['male'],[[1]],[[0.06514986]],MI
205,[[4]],[[206]],[[6]],['low holistic'],['left'],['upright'],['U0106.bmp'],['male'],[],['male'],[[1]],[[0.25357949]],MI
206,[[4]],[[207]],[[13]],['high holistic'],['left'],['inverted'],['U0181.bmp'],['female'],[],['male'],[[0]],[[0.10757156]],MI
207,[[4]],[[208]],[[10]],['low holistic'],['left'],['upright'],['U0159.bmp'],['female'],[],['female'],[[1]],[[1.30306573]],MI
208,[[4]],[[209]],[[2]],['low holistic'],['fovea'],['inverted'],['U0014.bmp'],['male'],[],['male'],[[1]],[[1.16211615]],MI
209,[[4]],[[210]],[[16]],['high holistic'],['left'],['upright'],['U0335.bmp'],['female'],[],['female'],[[1]],[[0.53892127]],MI
210,[[4]],[[211]],[[15]],['high holistic'],['left'],['inverted'],['U0312.bmp'],['male'],[],['male'],[[1]],[[0.43080814]],MI
211,[[4]],[[212]],[[19]],['low holistic'],['right'],['upright'],['U0361.bmp'],['female'],[],['male'],[[0]],[[0.15707991]],MI
212,[[4]],[[213]],[[16]],['low holistic'],['left'],['inverted'],['U0335.bmp'],['female'],[],['female'],[[1]],[[0.80752636]],MI
213,[[4]],[[214]],[[6]],['high holistic'],['left'],['upright'],['U0106.bmp'],['female'],[],['male'],[[0]],[[0.23135468]],MI
214,[[4]],[[215]],[[20]],['low holistic'],['right'],['inverted'],['U0362.bmp'],['male'],[],['female'],[[0]],[[0.00033254]],MI
215,[[4]],[[216]],[[13]],['low holistic'],['left'],['upright'],['U0181.bmp'],['male'],[],['male'],[[1]],[[0.02777219]],MI
216,[[4]],[[217]],[[14]],['high holistic'],['left'],['upright'],['U0228.bmp'],['male'],[],['male'],[[1]],[[0.24444418]],MI
217,[[4]],[[218]],[[11]],['high holistic'],['right'],['upright'],['U0164.bmp'],['female'],[],['female'],[[1]],[[0.26732935]],MI
218,[[4]],[[219]],[[19]],['low holistic'],['left'],['upright'],['U0361.bmp'],['female'],[],['female'],[[1]],[[0.33537942]],MI
219,[[4]],[[220]],[[4]],['high holistic'],['right'],['upright'],['U0061.bmp'],['female'],[],['male'],[[0]],[[0.29959153]],MI
220,[[4]],[[221]],[[13]],['high holistic'],['right'],['inverted'],['U0181.bmp'],['female'],[],['male'],[[0]],[[1.02327557]],MI
221,[[4]],[[222]],[[14]],['high holistic'],['left'],['inverted'],['U0228.bmp'],['male'],[],['male'],[[1]],[[0.53423059]],MI
222,[[4]],[[223]],[[5]],['high holistic'],['fovea'],['upright'],['U0076.bmp'],['female'],[],['female'],[[1]],[[0.04898585]],MI
223,[[4]],[[224]],[[6]],['high holistic'],['right'],['upright'],['U0106.bmp'],['female'],[],['male'],[[0]],[[0.25380119]],MI
224,[[4]],[[225]],[[20]],['high holistic'],['right'],['inverted'],['U0362.bmp'],['female'],[],['male'],[[0]],[[0.42872107]],MI
225,[[4]],[[226]],[[6]],['high holistic'],['fovea'],['inverted'],['U0106.bmp'],['female'],[],['male'],[[0]],[[0.13183671]],MI
226,[[4]],[[227]],[[12]],['low holistic'],['right'],['upright'],['U0178.bmp'],['female'],[],['female'],[[1]],[[0.07749229]],MI
227,[[4]],[[228]],[[5]],['low holistic'],['right'],['inverted'],['U0076.bmp'],['male'],[],['male'],[[1]],[[0.37021443]],MI
228,[[4]],[[229]],[[1]],['high holistic'],['left'],['upright'],['U0006.bmp'],['female'],[],['female'],[[1]],[[0.13910846]],MI
229,[[4]],[[230]],[[13]],['low holistic'],['right'],['inverted'],['U0181.bmp'],['male'],[],['male'],[[1]],[[1.33336246]],MI
230,[[4]],[[231]],[[4]],['high holistic'],['right'],['upright'],['U0061.bmp'],['female'],[],['male'],[[0]],[[0.17601388]],MI
231,[[4]],[[232]],[[11]],['high holistic'],['right'],['inverted'],['U0164.bmp'],['female'],[],['male'],[[0]],[[0.02623719]],MI
232,[[4]],[[233]],[[7]],['low holistic'],['right'],['inverted'],['U0107.bmp'],['female'],[],['female'],[[1]],[[0.16086211]],MI
233,[[4]],[[234]],[[12]],['low holistic'],['left'],['inverted'],['U0178.bmp'],['female'],[],['female'],[[1]],[[0.44948237]],MI
234,[[4]],[[235]],[[19]],['low holistic'],['left'],['upright'],['U0361.bmp'],['female'],[],['female'],[[1]],[[0.00011208]],MI
235,[[4]],[[236]],[[13]],['low holistic'],['right'],['upright'],['U0181.bmp'],['male'],[],['male'],[[1]],[[0.19919361]],MI
236,[[4]],[[237]],[[16]],['high holistic'],['right'],['upright'],['U0335.bmp'],['female'],[],['male'],[[0]],[[0.00010042]],MI
237,[[4]],[[238]],[[4]],['high holistic'],['right'],['upright'],['U0061.bmp'],['female'],[],['female'],[[1]],[[0.28814675]],MI
238,[[4]],[[239]],[[19]],['low holistic'],['right'],['upright'],['U0361.bmp'],['female'],[],['male'],[[0]],[[0.14127753]],MI
239,[[4]],[[240]],[[5]],['high holistic'],['right'],['inverted'],['U0076.bmp'],['female'],[],['male'],[[0]],[[0.07942254]],MI
240,[[4]],[[241]],[[11]],['high holistic'],['left'],['upright'],['U0164.bmp'],['female'],[],['female'],[[1]],[[2.02763541]],MI
241,[[4]],[[242]],[[7]],['high holistic'],['right'],['upright'],['U0107.bmp'],['female'],[],['female'],[[1]],[[0.3061959]],MI
242,[[4]],[[243]],[[17]],['low holistic'],['left'],['upright'],['U0346.bmp'],['female'],[],['female'],[[1]],[[0.0068345]],MI
243,[[4]],[[244]],[[5]],['low holistic'],['right'],['upright'],['U0076.bmp'],['male'],[],['male'],[[1]],[[0.27014461]],MI
244,[[4]],[[245]],[[16]],['low holistic'],['right'],['inverted'],['U0335.bmp'],['female'],[],['male'],[[0]],[[0.69057927]],MI
245,[[4]],[[246]],[[5]],['high holistic'],['right'],['upright'],['U0076.bmp'],['female'],[],['female'],[[1]],[[0.32769083]],MI
246,[[4]],[[247]],[[10]],['low holistic'],['fovea'],['upright'],['U0159.bmp'],['female'],[],['female'],[[1]],[[0.07337213]],MI
247,[[4]],[[248]],[[17]],['high holistic'],['right'],['upright'],['U0346.bmp'],['male'],[],['male'],[[1]],[[0.19898827]],MI
248,[[4]],[[249]],[[7]],['high holistic'],['right'],['inverted'],['U0107.bmp'],['female'],[],['female'],[[1]],[[0.27985535]],MI
249,[[4]],[[250]],[[9]],['low holistic'],['left'],['inverted'],['U0155.bmp'],['male'],[],['male'],[[1]],[[0.31743801]],MI
250,[[4]],[[251]],[[20]],['low holistic'],['left'],['upright'],['U0362.bmp'],['male'],[],['male'],[[1]],[[0.20764801]],MI
251,[[4]],[[252]],[[10]],['high holistic'],['left'],['inverted'],['U0159.bmp'],['male'],[],['female'],[[0]],[[0.43104745]],MI
252,[[4]],[[253]],[[10]],['high holistic'],['right'],['inverted'],['U0159.bmp'],['male'],[],['male'],[[1]],[[0.47777055]],MI
253,[[4]],[[254]],[[1]],['low holistic'],['left'],['inverted'],['U0006.bmp'],['female'],[],['female'],[[1]],[[0.41110018]],MI
254,[[4]],[[255]],[[18]],['low holistic'],['right'],['inverted'],['U0359.bmp'],['male'],[],['female'],[[0]],[[0.44236619]],MI
255,[[4]],[[256]],[[5]],['high holistic'],['left'],['inverted'],['U0076.bmp'],['female'],[],['female'],[[1]],[[0.0001043]],MI
256,[[4]],[[257]],[[11]],['low holistic'],['right'],['upright'],['U0164.bmp'],['female'],[],['female'],[[1]],[[1.01599846]],MI
257,[[4]],[[258]],[[8]],['high holistic'],['left'],['upright'],['U0137.bmp'],['female'],[],['female'],[[1]],[[0.0726077]],MI
258,[[4]],[[259]],[[19]],['high holistic'],['left'],['inverted'],['U0361.bmp'],['female'],[],['female'],[[1]],[[0.54086397]],MI
259,[[4]],[[260]],[[1]],['low holistic'],['right'],['inverted'],['U0006.bmp'],['female'],[],['female'],[[1]],[[0.28748891]],MI
260,[[4]],[[261]],[[2]],['high holistic'],['fovea'],['inverted'],['U0014.bmp'],['male'],[],['female'],[[0]],[[1.66914719]],MI
261,[[4]],[[262]],[[10]],['high holistic'],['left'],['inverted'],['U0159.bmp'],['male'],[],['female'],[[0]],[[0.24940113]],MI
262,[[4]],[[263]],[[13]],['high holistic'],['right'],['inverted'],['U0181.bmp'],['female'],[],['female'],[[1]],[[0.02582755]],MI
263,[[4]],[[264]],[[7]],['high holistic'],['left'],['upright'],['U0107.bmp'],['female'],[],['female'],[[1]],[[0.85445775]],MI
264,[[4]],[[265]],[[17]],['low holistic'],['left'],['upright'],['U0346.bmp'],['female'],[],['female'],[[1]],[[0.00010303]],MI
265,[[4]],[[266]],[[17]],['low holistic'],['right'],['inverted'],['U0346.bmp'],['female'],[],['female'],[[1]],[[0.00010076]],MI
266,[[4]],[[267]],[[6]],['high holistic'],['right'],['upright'],['U0106.bmp'],['female'],[],['female'],[[1]],[[0.09330844]],MI
267,[[4]],[[268]],[[6]],['low holistic'],['right'],['upright'],['U0106.bmp'],['male'],[],['female'],[[0]],[[0.00094428]],MI
268,[[4]],[[269]],[[4]],['low holistic'],['fovea'],['inverted'],['U0061.bmp'],['female'],[],['female'],[[1]],[[0.02576239]],MI
269,[[4]],[[270]],[[4]],['high holistic'],['right'],['inverted'],['U0061.bmp'],['female'],[],['male'],[[0]],[[0.00010077]],MI
270,[[4]],[[271]],[[14]],['high holistic'],['left'],['inverted'],['U0228.bmp'],['male'],[],['female'],[[0]],[[0.00024546]],MI
271,[[4]],[[272]],[[3]],['high holistic'],['left'],['upright'],['U0020.bmp'],['male'],[],['male'],[[1]],[[0.00050077]],MI
272,[[4]],[[273]],[[6]],['high holistic'],['left'],['upright'],['U0106.bmp'],['female'],[],['female'],[[1]],[[0.18407592]],MI
273,[[4]],[[274]],[[2]],['high holistic'],['right'],['inverted'],['U0014.bmp'],['male'],[],['male'],[[1]],[[0.20043526]],MI
274,[[4]],[[275]],[[19]],['high holistic'],['right'],['inverted'],['U0361.bmp'],['female'],[],['female'],[[1]],[[0.33716719]],MI
275,[[4]],[[276]],[[7]],['high holistic'],['right'],['inverted'],['U0107.bmp'],['female'],[],['male'],[[0]],[[0.33029185]],MI
276,[[4]],[[277]],[[9]],['high holistic'],['right'],['upright'],['U0155.bmp'],['female'],[],['male'],[[0]],[[0.27928627]],MI
277,[[4]],[[278]],[[7]],['low holistic'],['left'],['upright'],['U0107.bmp'],['female'],[],['female'],[[1]],[[0.09220728]],MI
278,[[4]],[[279]],[[20]],['low holistic'],['left'],['inverted'],['U0362.bmp'],['male'],[],['male'],[[1]],[[0.11145924]],MI
279,[[4]],[[280]],[[2]],['low holistic'],['right'],['upright'],['U0014.bmp'],['male'],[],['female'],[[0]],[[0.18018348]],MI
280,[[4]],[[281]],[[18]],['high holistic'],['left'],['upright'],['U0359.bmp'],['male'],[],['male'],[[1]],[[1.66000573]],MI
281,[[4]],[[282]],[[14]],['low holistic'],['right'],['upright'],['U0228.bmp'],['male'],[],['male'],[[1]],[[0.13110456]],MI
282,[[4]],[[283]],[[5]],['low holistic'],['right'],['upright'],['U0076.bmp'],['male'],[],['male'],[[1]],[[0.12346799]],MI
283,[[4]],[[284]],[[7]],['low holistic'],['right'],['upright'],['U0107.bmp'],['female'],[],['female'],[[1]],[[0.23184383]],MI
284,[[4]],[[285]],[[8]],['high holistic'],['right'],['upright'],['U0137.bmp'],['female'],[],['male'],[[0]],[[0.53272056]],MI
285,[[4]],[[286]],[[20]],['high holistic'],['right'],['upright'],['U0362.bmp'],['female'],[],['female'],[[1]],[[0.16203602]],MI
286,[[4]],[[287]],[[15]],['low holistic'],['left'],['inverted'],['U0312.bmp'],['male'],[],['male'],[[1]],[[0.16255977]],MI
287,[[4]],[[288]],[[14]],['high holistic'],['right'],['upright'],['U0228.bmp'],['male'],[],['male'],[[1]],[[0.19517641]],MI
288,[[4]],[[289]],[[14]],['high holistic'],['right'],['inverted'],['U0228.bmp'],['male'],[],['male'],[[1]],[[0.58904352]],MI
289,[[4]],[[290]],[[8]],['low holistic'],['right'],['upright'],['U0137.bmp'],['male'],[],['male'],[[1]],[[0.12331448]],MI
290,[[4]],[[291]],[[19]],['low holistic'],['right'],['inverted'],['U0361.bmp'],['female'],[],['male'],[[0]],[[0.31825415]],MI
291,[[4]],[[292]],[[20]],['high holistic'],['left'],['upright'],['U0362.bmp'],['female'],[],['female'],[[1]],[[0.23514058]],MI
292,[[4]],[[293]],[[13]],['high holistic'],['right'],['inverted'],['U0181.bmp'],['female'],[],['female'],[[1]],[[0.25723992]],MI
293,[[4]],[[294]],[[19]],['low holistic'],['left'],['inverted'],['U0361.bmp'],['female'],[],['female'],[[1]],[[0.16637424]],MI
294,[[4]],[[295]],[[3]],['high holistic'],['right'],['inverted'],['U0020.bmp'],['male'],[],['female'],[[0]],[[0.16776373]],MI
295,[[4]],[[296]],[[10]],['low holistic'],['left'],['inverted'],['U0159.bmp'],['female'],[],['female'],[[1]],[[0.07451378]],MI
296,[[4]],[[297]],[[8]],['low holistic'],['left'],['upright'],['U0137.bmp'],['male'],[],['male'],[[1]],[[1.2073401]],MI
297,[[4]],[[298]],[[8]],['low holistic'],['right'],['inverted'],['U0137.bmp'],['male'],[],['male'],[[1]],[[0.31667392]],MI
298,[[4]],[[299]],[[4]],['high holistic'],['right'],['inverted'],['U0061.bmp'],['female'],[],['male'],[[0]],[[0.20939203]],MI
299,[[4]],[[300]],[[6]],['low holistic'],['left'],['upright'],['U0106.bmp'],['male'],[],['male'],[[1]],[[0.22500162]],MI
300,[[4]],[[301]],[[1]],['low holistic'],['left'],['inverted'],['U0006.bmp'],['female'],[],['female'],[[1]],[[0.07945537]],MI
301,[[4]],[[302]],[[7]],['low holistic'],['left'],['inverted'],['U0107.bmp'],['female'],[],['female'],[[1]],[[0.22142723]],MI
302,[[4]],[[303]],[[5]],['high holistic'],['right'],['upright'],['U0076.bmp'],['female'],[],['female'],[[1]],[[0.11551638]],MI
303,[[4]],[[304]],[[1]],['high holistic'],['right'],['upright'],['U0006.bmp'],['female'],[],['male'],[[0]],[[0.62237524]],MI
304,[[4]],[[305]],[[19]],['low holistic'],['right'],['inverted'],['U0361.bmp'],['female'],[],['male'],[[0]],[[0.19140975]],MI
305,[[4]],[[306]],[[18]],['low holistic'],['left'],['upright'],['U0359.bmp'],['male'],[],['male'],[[1]],[[0.22348664]],MI
306,[[4]],[[307]],[[11]],['low holistic'],['left'],['inverted'],['U0164.bmp'],['female'],[],['female'],[[1]],[[0.32690103]],MI
307,[[4]],[[308]],[[6]],['low holistic'],['left'],['inverted'],['U0106.bmp'],['male'],[],['female'],[[0]],[[0.00010857]],MI
308,[[4]],[[309]],[[20]],['high holistic'],['left'],['upright'],['U0362.bmp'],['female'],[],['female'],[[1]],[[0.19182552]],MI
309,[[4]],[[310]],[[9]],['high holistic'],['right'],['upright'],['U0155.bmp'],['female'],[],['male'],[[0]],[[0.3520457]],MI
310,[[4]],[[311]],[[19]],['low holistic'],['right'],['inverted'],['U0361.bmp'],['female'],[],['male'],[[0]],[[0.11527603]],MI
311,[[4]],[[312]],[[13]],['high holistic'],['left'],['inverted'],['U0181.bmp'],['female'],[],['female'],[[1]],[[0.32607029]],MI
312,[[4]],[[313]],[[8]],['low holistic'],['left'],['inverted'],['U0137.bmp'],['male'],[],['male'],[[1]],[[0.03364406]],MI
313,[[4]],[[314]],[[5]],['low holistic'],['left'],['upright'],['U0076.bmp'],['male'],[],['male'],[[1]],[[0.06374502]],MI
314,[[4]],[[315]],[[19]],['low holistic'],['right'],['upright'],['U0361.bmp'],['female'],[],['female'],[[1]],[[0.0618725]],MI
315,[[4]],[[316]],[[3]],['high holistic'],['fovea'],['inverted'],['U0020.bmp'],['male'],[],['male'],[[1]],[[0.11577744]],MI
316,[[4]],[[317]],[[17]],['low holistic'],['right'],['inverted'],['U0346.bmp'],['female'],[],['male'],[[0]],[[0.11028023]],MI
317,[[4]],[[318]],[[14]],['high holistic'],['right'],['inverted'],['U0228.bmp'],['male'],[],['male'],[[1]],[[0.13762407]],MI
318,[[4]],[[319]],[[1]],['high holistic'],['left'],['upright'],['U0006.bmp'],['female'],[],['female'],[[1]],[[0.00013516]],MI
319,[[4]],[[320]],[[4]],['low holistic'],['left'],['upright'],['U0061.bmp'],['female'],[],['female'],[[1]],[[2.17151626]],MI
320,[[4]],[[321]],[[5]],['high holistic'],['right'],['inverted'],['U0076.bmp'],['female'],[],['male'],[[0]],[[1.22023057]],MI
321,[[4]],[[322]],[[20]],['high holistic'],['right'],['upright'],['U0362.bmp'],['female'],[],['female'],[[1]],[[0.20472191]],MI
322,[[4]],[[323]],[[17]],['high holistic'],['right'],['inverted'],['U0346.bmp'],['male'],[],['female'],[[0]],[[1.64247097]],MI
323,[[4]],[[324]],[[7]],['high holistic'],['right'],['upright'],['U0107.bmp'],['female'],[],['male'],[[0]],[[0.11461178]],MI
324,[[4]],[[325]],[[3]],['low holistic'],['right'],['upright'],['U0020.bmp'],['female'],[],['female'],[[1]],[[0.10078398]],MI
325,[[4]],[[326]],[[5]],['high holistic'],['right'],['inverted'],['U0076.bmp'],['female'],[],['male'],[[0]],[[0.33747129]],MI
326,[[4]],[[327]],[[8]],['low holistic'],['right'],['upright'],['U0137.bmp'],['male'],[],['female'],[[0]],[[0.00014798]],MI
327,[[4]],[[328]],[[12]],['high holistic'],['fovea'],['inverted'],['U0178.bmp'],['male'],[],['male'],[[1]],[[0.37067828]],MI
328,[[4]],[[329]],[[4]],['high holistic'],['right'],['inverted'],['U0061.bmp'],['female'],[],['male'],[[0]],[[0.19557256]],MI
329,[[4]],[[330]],[[3]],['high holistic'],['right'],['upright'],['U0020.bmp'],['male'],[],['male'],[[1]],[[0.11662268]],MI
330,[[4]],[[331]],[[10]],['low holistic'],['left'],['upright'],['U0159.bmp'],['female'],[],['female'],[[1]],[[0.41676325]],MI
331,[[4]],[[332]],[[20]],['high holistic'],['right'],['inverted'],['U0362.bmp'],['female'],[],['male'],[[0]],[[0.70400954]],MI
332,[[4]],[[333]],[[19]],['low holistic'],['left'],['inverted'],['U0361.bmp'],['female'],[],['male'],[[0]],[[0.27408684]],MI
333,[[4]],[[334]],[[6]],['high holistic'],['left'],['inverted'],['U0106.bmp'],['female'],[],['female'],[[1]],[[0.87958788]],MI
334,[[4]],[[335]],[[10]],['low holistic'],['right'],['inverted'],['U0159.bmp'],['female'],[],['male'],[[0]],[[0.42851744]],MI
335,[[4]],[[336]],[[3]],['low holistic'],['left'],['inverted'],['U0020.bmp'],['female'],[],['female'],[[1]],[[0.30753555]],MI
336,[[4]],[[337]],[[5]],['low holistic'],['left'],['inverted'],['U0076.bmp'],['male'],[],['male'],[[1]],[[0.07127109]],MI
337,[[4]],[[338]],[[12]],['high holistic'],['left'],['upright'],['U0178.bmp'],['male'],[],['male'],[[1]],[[2.04500261]],MI
338,[[4]],[[339]],[[12]],['high holistic'],['left'],['inverted'],['U0178.bmp'],['male'],[],['male'],[[1]],[[0.05880349]],MI
339,[[4]],[[340]],[[11]],['high holistic'],['right'],['inverted'],['U0164.bmp'],['female'],[],['male'],[[0]],[[0.14355042]],MI
340,[[4]],[[341]],[[8]],['high holistic'],['left'],['upright'],['U0137.bmp'],['female'],[],['female'],[[1]],[[0.19348183]],MI
341,[[4]],[[342]],[[14]],['high holistic'],['right'],['upright'],['U0228.bmp'],['male'],[],['male'],[[1]],[[0.21950054]],MI
342,[[4]],[[343]],[[10]],['high holistic'],['right'],['upright'],['U0159.bmp'],['male'],[],['male'],[[1]],[[0.19360201]],MI
343,[[4]],[[344]],[[14]],['low holistic'],['left'],['inverted'],['U0228.bmp'],['male'],[],['male'],[[1]],[[0.20261647]],MI
344,[[4]],[[345]],[[11]],['high holistic'],['right'],['upright'],['U0164.bmp'],['female'],[],['female'],[[1]],[[0.297903]],MI
345,[[4]],[[346]],[[14]],['low holistic'],['left'],['inverted'],['U0228.bmp'],['male'],[],['male'],[[1]],[[0.31185065]],MI
346,[[4]],[[347]],[[2]],['high holistic'],['right'],['inverted'],['U0014.bmp'],['male'],[],['male'],[[1]],[[0.67473128]],MI
347,[[4]],[[348]],[[11]],['high holistic'],['fovea'],['upright'],['U0164.bmp'],['female'],[],['male'],[[0]],[[0.15891511]],MI
348,[[4]],[[349]],[[18]],['low holistic'],['right'],['upright'],['U0359.bmp'],['male'],[],['female'],[[0]],[[2.14493588]],MI
349,[[4]],[[350]],[[11]],['low holistic'],['right'],['inverted'],['U0164.bmp'],['female'],[],['female'],[[1]],[[1.08215468]],MI
350,[[4]],[[351]],[[6]],['high holistic'],['right'],['inverted'],['U0106.bmp'],['female'],[],['male'],[[0]],[[0.55166566]],MI
351,[[4]],[[352]],[[10]],['low holistic'],['right'],['inverted'],['U0159.bmp'],['female'],[],['female'],[[1]],[[0.1541933]],MI
352,[[4]],[[353]],[[17]],['low holistic'],['left'],['inverted'],['U0346.bmp'],['female'],[],['female'],[[1]],[[0.08190423]],MI
353,[[4]],[[354]],[[13]],['low holistic'],['fovea'],['upright'],['U0181.bmp'],['male'],[],['male'],[[1]],[[0.04113063]],MI
354,[[4]],[[355]],[[19]],['low holistic'],['right'],['inverted'],['U0361.bmp'],['female'],[],['male'],[[0]],[[0.21561993]],MI
355,[[4]],[[356]],[[2]],['low holistic'],['fovea'],['inverted'],['U0014.bmp'],['male'],[],['female'],[[0]],[[0.51685385]],MI
356,[[4]],[[357]],[[14]],['low holistic'],['right'],['inverted'],['U0228.bmp'],['male'],[],['male'],[[1]],[[0.43968179]],MI
357,[[4]],[[358]],[[16]],['low holistic'],['left'],['inverted'],['U0335.bmp'],['female'],[],['female'],[[1]],[[0.6465125]],MI
358,[[4]],[[359]],[[9]],['high holistic'],['fovea'],['upright'],['U0155.bmp'],['female'],[],['female'],[[1]],[[0.32651347]],MI
359,[[4]],[[360]],[[15]],['high holistic'],['left'],['inverted'],['U0312.bmp'],['male'],[],['female'],[[0]],[[0.32754726]],MI
360,[[4]],[[361]],[[15]],['low holistic'],['right'],['inverted'],['U0312.bmp'],['male'],[],['male'],[[1]],[[0.67613278]],MI
361,[[4]],[[362]],[[9]],['low holistic'],['right'],['inverted'],['U0155.bmp'],['male'],[],['male'],[[1]],[[0.4168653]],MI
362,[[4]],[[363]],[[19]],['high holistic'],['left'],['upright'],['U0361.bmp'],['female'],[],['male'],[[0]],[[0.222972]],MI
363,[[4]],[[364]],[[1]],['high holistic'],['right'],['inverted'],['U0006.bmp'],['female'],[],['male'],[[0]],[[6.54089957]],MI
364,[[4]],[[365]],[[1]],['low holistic'],['left'],['inverted'],['U0006.bmp'],['female'],[],['female'],[[1]],[[0.16804907]],MI
365,[[4]],[[366]],[[20]],['low holistic'],['left'],['inverted'],['U0362.bmp'],['male'],[],['male'],[[1]],[[0.06524433]],MI
366,[[4]],[[367]],[[17]],['high holistic'],['left'],['inverted'],['U0346.bmp'],['male'],[],['male'],[[1]],[[1.88681076]],MI
367,[[4]],[[368]],[[12]],['high holistic'],['right'],['upright'],['U0178.bmp'],['male'],[],['male'],[[1]],[[0.00010014]],MI
368,[[4]],[[369]],[[18]],['high holistic'],['left'],['upright'],['U0359.bmp'],['male'],[],['male'],[[1]],[[9.99774784e-05]],MI
369,[[4]],[[370]],[[8]],['high holistic'],['right'],['upright'],['U0137.bmp'],['female'],[],['male'],[[0]],[[0.00010806]],MI
370,[[4]],[[371]],[[20]],['high holistic'],['left'],['upright'],['U0362.bmp'],['female'],[],['female'],[[1]],[[0.13015615]],MI
371,[[4]],[[372]],[[10]],['low holistic'],['fovea'],['upright'],['U0159.bmp'],['female'],[],['female'],[[1]],[[0.00010768]],MI
372,[[4]],[[373]],[[19]],['low holistic'],['left'],['upright'],['U0361.bmp'],['female'],[],['female'],[[1]],[[0.05238871]],MI
373,[[4]],[[374]],[[12]],['high holistic'],['left'],['inverted'],['U0178.bmp'],['male'],[],['female'],[[0]],[[0.18734044]],MI
374,[[4]],[[375]],[[2]],['high holistic'],['right'],['upright'],['U0014.bmp'],['male'],[],['male'],[[1]],[[0.1233001]],MI
375,[[4]],[[376]],[[9]],['high holistic'],['left'],['inverted'],['U0155.bmp'],['female'],[],['male'],[[0]],[[0.33473441]],MI
376,[[4]],[[377]],[[11]],['high holistic'],['fovea'],['upright'],['U0164.bmp'],['female'],[],['female'],[[1]],[[0.22430002]],MI
377,[[4]],[[378]],[[11]],['low holistic'],['left'],['upright'],['U0164.bmp'],['female'],[],['female'],[[1]],[[0.11153693]],MI
378,[[4]],[[379]],[[20]],['low holistic'],['right'],['upright'],['U0362.bmp'],['male'],[],['male'],[[1]],[[0.08518478]],MI
379,[[4]],[[380]],[[7]],['low holistic'],['right'],['upright'],['U0107.bmp'],['female'],[],['male'],[[0]],[[0.36089038]],MI
380,[[4]],[[381]],[[16]],['high holistic'],['left'],['upright'],['U0335.bmp'],['female'],[],['male'],[[0]],[[0.44273158]],MI
381,[[4]],[[382]],[[14]],['high holistic'],['fovea'],['inverted'],['U0228.bmp'],['male'],[],['male'],[[1]],[[0.44800405]],MI
382,[[4]],[[383]],[[9]],['low holistic'],['left'],['inverted'],['U0155.bmp'],['male'],[],['male'],[[1]],[[0.54177858]],MI
383,[[4]],[[384]],[[14]],['low holistic'],['fovea'],['upright'],['U0228.bmp'],['male'],[],['female'],[[0]],[[6.24951313]],MI
384,[[4]],[[385]],[[15]],['low holistic'],['right'],['upright'],['U0312.bmp'],['male'],[],['male'],[[1]],[[0.05548698]],MI
385,[[4]],[[386]],[[2]],['high holistic'],['left'],['upright'],['U0014.bmp'],['male'],[],['male'],[[1]],[[0.83546864]],MI
386,[[4]],[[387]],[[8]],['low holistic'],['right'],['upright'],['U0137.bmp'],['male'],[],['male'],[[1]],[[2.09166724]],MI
387,[[4]],[[388]],[[12]],['high holistic'],['right'],['inverted'],['U0178.bmp'],['male'],[],['male'],[[1]],[[0.19246641]],MI
388,[[4]],[[389]],[[10]],['high holistic'],['left'],['upright'],['U0159.bmp'],['male'],[],['male'],[[1]],[[0.02377038]],MI
389,[[4]],[[390]],[[12]],['high holistic'],['fovea'],['inverted'],['U0178.bmp'],['male'],[],['male'],[[1]],[[0.03922247]],MI
390,[[4]],[[391]],[[5]],['high holistic'],['fovea'],['upright'],['U0076.bmp'],['female'],[],['female'],[[1]],[[1.07706445]],MI
391,[[4]],[[392]],[[18]],['high holistic'],['left'],['inverted'],['U0359.bmp'],['male'],[],['male'],[[1]],[[0.00417828]],MI
392,[[4]],[[393]],[[8]],['high holistic'],['right'],['inverted'],['U0137.bmp'],['female'],[],['female'],[[1]],[[0.29845715]],MI
393,[[4]],[[394]],[[13]],['low holistic'],['left'],['inverted'],['U0181.bmp'],['male'],[],['female'],[[0]],[[2.39027168]],MI
394,[[4]],[[395]],[[6]],['low holistic'],['left'],['upright'],['U0106.bmp'],['male'],[],['male'],[[1]],[[0.04578846]],MI
395,[[4]],[[396]],[[15]],['low holistic'],['right'],['upright'],['U0312.bmp'],['male'],[],['male'],[[1]],[[0.00010644]],MI
396,[[4]],[[397]],[[15]],['low holistic'],['fovea'],['inverted'],['U0312.bmp'],['male'],[],['male'],[[1]],[[9.97912139e-05]],MI
397,[[4]],[[398]],[[1]],['high holistic'],['left'],['upright'],['U0006.bmp'],['female'],[],['male'],[[0]],[[0.00010777]],MI
398,[[4]],[[399]],[[13]],['high holistic'],['right'],['upright'],['U0181.bmp'],['female'],[],['female'],[[1]],[[0.09295273]],MI
399,[[4]],[[400]],[[11]],['high holistic'],['left'],['upright'],['U0164.bmp'],['female'],[],['female'],[[1]],[[0.20087165]],MI
400,[[4]],[[401]],[[15]],['high holistic'],['left'],['inverted'],['U0312.bmp'],['male'],[],['female'],[[0]],[[0.24818994]],MI
401,[[4]],[[402]],[[11]],['low holistic'],['right'],['inverted'],['U0164.bmp'],['female'],[],['male'],[[0]],[[0.21545179]],MI
402,[[4]],[[403]],[[14]],['low holistic'],['left'],['upright'],['U0228.bmp'],['male'],[],['male'],[[1]],[[0.2064832]],MI
403,[[4]],[[404]],[[11]],['low holistic'],['left'],['inverted'],['U0164.bmp'],['female'],[],['female'],[[1]],[[0.10396022]],MI
404,[[4]],[[405]],[[14]],['low holistic'],['right'],['upright'],['U0228.bmp'],['male'],[],['male'],[[1]],[[0.00010788]],MI
405,[[4]],[[406]],[[7]],['low holistic'],['right'],['inverted'],['U0107.bmp'],['female'],[],['female'],[[1]],[[0.1138899]],MI
406,[[4]],[[407]],[[2]],['low holistic'],['right'],['upright'],['U0014.bmp'],['male'],[],['male'],[[1]],[[0.07629864]],MI
407,[[4]],[[408]],[[18]],['low holistic'],['left'],['upright'],['U0359.bmp'],['male'],[],['male'],[[1]],[[0.01042424]],MI
408,[[4]],[[409]],[[19]],['low holistic'],['fovea'],['upright'],['U0361.bmp'],['female'],[],['female'],[[1]],[[0.24287727]],MI
409,[[4]],[[410]],[[1]],['high holistic'],['left'],['upright'],['U0006.bmp'],['female'],[],['female'],[[1]],[[0.60079852]],MI
410,[[4]],[[411]],[[10]],['high holistic'],['right'],['upright'],['U0159.bmp'],['male'],[],['male'],[[1]],[[0.23201827]],MI
411,[[4]],[[412]],[[10]],['low holistic'],['right'],['upright'],['U0159.bmp'],['female'],[],['female'],[[1]],[[0.29685402]],MI
412,[[4]],[[413]],[[3]],['low holistic'],['left'],['inverted'],['U0020.bmp'],['female'],[],['male'],[[0]],[[0.42817291]],MI
413,[[4]],[[414]],[[15]],['high holistic'],['left'],['upright'],['U0312.bmp'],['male'],[],['female'],[[0]],[[0.45797893]],MI
414,[[4]],[[415]],[[11]],['low holistic'],['right'],['upright'],['U0164.bmp'],['female'],[],['female'],[[1]],[[0.18561392]],MI
415,[[4]],[[416]],[[7]],['high holistic'],['right'],['inverted'],['U0107.bmp'],['female'],[],['female'],[[1]],[[0.52932167]],MI
416,[[4]],[[417]],[[4]],['low holistic'],['right'],['upright'],['U0061.bmp'],['female'],[],['female'],[[1]],[[0.36354505]],MI
417,[[4]],[[418]],[[16]],['high holistic'],['left'],['upright'],['U0335.bmp'],['female'],[],['female'],[[1]],[[0.40582255]],MI
418,[[4]],[[419]],[[7]],['high holistic'],['right'],['inverted'],['U0107.bmp'],['female'],[],['female'],[[1]],[[0.16418687]],MI
419,[[4]],[[420]],[[12]],['low holistic'],['left'],['inverted'],['U0178.bmp'],['female'],[],['male'],[[0]],[[0.17346943]],MI
420,[[4]],[[421]],[[15]],['high holistic'],['left'],['inverted'],['U0312.bmp'],['male'],[],['male'],[[1]],[[0.12641109]],MI
421,[[4]],[[422]],[[7]],['high holistic'],['left'],['upright'],['U0107.bmp'],['female'],[],['male'],[[0]],[[0.49782257]],MI
422,[[4]],[[423]],[[7]],['high holistic'],['right'],['inverted'],['U0107.bmp'],['female'],[],['female'],[[1]],[[1.42275249]],MI
423,[[4]],[[424]],[[8]],['low holistic'],['left'],['inverted'],['U0137.bmp'],['male'],[],['male'],[[1]],[[0.18086973]],MI
424,[[4]],[[425]],[[12]],['low holistic'],['right'],['inverted'],['U0178.bmp'],['female'],[],['male'],[[0]],[[0.15902167]],MI
425,[[4]],[[426]],[[18]],['high holistic'],['left'],['inverted'],['U0359.bmp'],['male'],[],['female'],[[0]],[[0.66312428]],MI
426,[[4]],[[427]],[[11]],['high holistic'],['right'],['inverted'],['U0164.bmp'],['female'],[],['male'],[[0]],[[0.00011792]],MI
427,[[4]],[[428]],[[13]],['high holistic'],['left'],['upright'],['U0181.bmp'],['female'],[],['female'],[[1]],[[0.62184607]],MI
428,[[4]],[[429]],[[6]],['low holistic'],['left'],['inverted'],['U0106.bmp'],['male'],[],['male'],[[1]],[[9.98498872e-05]],MI
429,[[4]],[[430]],[[16]],['low holistic'],['left'],['inverted'],['U0335.bmp'],['female'],[],['female'],[[1]],[[0.62864403]],MI
430,[[4]],[[431]],[[9]],['low holistic'],['left'],['upright'],['U0155.bmp'],['male'],[],['male'],[[1]],[[0.53071075]],MI
431,[[4]],[[432]],[[1]],['low holistic'],['left'],['inverted'],['U0006.bmp'],['female'],[],['female'],[[1]],[[0.10172681]],MI
432,[[4]],[[433]],[[2]],['low holistic'],['left'],['upright'],['U0014.bmp'],['male'],[],['male'],[[1]],[[0.17000156]],MI
433,[[4]],[[434]],[[1]],['low holistic'],['right'],['inverted'],['U0006.bmp'],['female'],[],['female'],[[1]],[[0.26734763]],MI
434,[[4]],[[435]],[[11]],['low holistic'],['left'],['upright'],['U0164.bmp'],['female'],[],['male'],[[0]],[[0.58487684]],MI
435,[[4]],[[436]],[[2]],['high holistic'],['right'],['upright'],['U0014.bmp'],['male'],[],['female'],[[0]],[[1.04939397]],MI
436,[[4]],[[437]],[[20]],['low holistic'],['right'],['upright'],['U0362.bmp'],['male'],[],['male'],[[1]],[[0.06300607]],MI
437,[[4]],[[438]],[[19]],['low holistic'],['left'],['upright'],['U0361.bmp'],['female'],[],['female'],[[1]],[[0.35561215]],MI
438,[[4]],[[439]],[[9]],['low holistic'],['right'],['upright'],['U0155.bmp'],['male'],[],['male'],[[1]],[[0.55702219]],MI
439,[[4]],[[440]],[[12]],['low holistic'],['left'],['inverted'],['U0178.bmp'],['female'],[],['male'],[[0]],[[0.17423676]],MI
440,[[4]],[[441]],[[1]],['low holistic'],['left'],['upright'],['U0006.bmp'],['female'],[],['female'],[[1]],[[0.56758962]],MI
441,[[4]],[[442]],[[7]],['high holistic'],['right'],['upright'],['U0107.bmp'],['female'],[],['female'],[[1]],[[0.21670939]],MI
442,[[4]],[[443]],[[14]],['high holistic'],['left'],['inverted'],['U0228.bmp'],['male'],[],['male'],[[1]],[[0.12814514]],MI
443,[[4]],[[444]],[[9]],['high holistic'],['fovea'],['inverted'],['U0155.bmp'],['female'],[],['male'],[[0]],[[0.00033609]],MI
444,[[4]],[[445]],[[12]],['low holistic'],['left'],['inverted'],['U0178.bmp'],['female'],[],['female'],[[1]],[[0.00045431]],MI
445,[[4]],[[446]],[[3]],['low holistic'],['left'],['upright'],['U0020.bmp'],['female'],[],['female'],[[1]],[[0.01976604]],MI
446,[[4]],[[447]],[[12]],['high holistic'],['right'],['inverted'],['U0178.bmp'],['male'],[],['female'],[[0]],[[0.33074381]],MI
447,[[4]],[[448]],[[15]],['high holistic'],['left'],['upright'],['U0312.bmp'],['male'],[],['female'],[[0]],[[0.00479195]],MI
448,[[4]],[[449]],[[4]],['high holistic'],['right'],['inverted'],['U0061.bmp'],['female'],[],['male'],[[0]],[[0.09419497]],MI
449,[[4]],[[450]],[[2]],['high holistic'],['right'],['upright'],['U0014.bmp'],['male'],[],['male'],[[1]],[[0.04168096]],MI
450,[[4]],[[451]],[[12]],['high holistic'],['left'],['inverted'],['U0178.bmp'],['male'],[],['male'],[[1]],[[0.00023911]],MI
451,[[4]],[[452]],[[13]],['low holistic'],['left'],['upright'],['U0181.bmp'],['male'],[],['male'],[[1]],[[0.023811]],MI
452,[[4]],[[453]],[[9]],['low holistic'],['right'],['upright'],['U0155.bmp'],['male'],[],['male'],[[1]],[[0.00010961]],MI
453,[[4]],[[454]],[[20]],['low holistic'],['right'],['upright'],['U0362.bmp'],['male'],[],['male'],[[1]],[[0.08741147]],MI
454,[[4]],[[455]],[[4]],['high holistic'],['right'],['inverted'],['U0061.bmp'],['female'],[],['male'],[[0]],[[0.339332]],MI
455,[[4]],[[456]],[[11]],['low holistic'],['left'],['inverted'],['U0164.bmp'],['female'],[],['male'],[[0]],[[0.00028799]],MI
456,[[4]],[[457]],[[1]],['low holistic'],['right'],['upright'],['U0006.bmp'],['female'],[],['female'],[[1]],[[0.333235]],MI
457,[[4]],[[458]],[[20]],['high holistic'],['left'],['inverted'],['U0362.bmp'],['female'],[],['male'],[[0]],[[0.35938502]],MI
458,[[4]],[[459]],[[10]],['high holistic'],['left'],['upright'],['U0159.bmp'],['male'],[],['male'],[[1]],[[0.21872553]],MI
459,[[4]],[[460]],[[18]],['low holistic'],['right'],['upright'],['U0359.bmp'],['male'],[],['male'],[[1]],[[0.21598084]],MI
460,[[4]],[[461]],[[18]],['low holistic'],['right'],['upright'],['U0359.bmp'],['male'],[],['male'],[[1]],[[0.28775781]],MI
461,[[4]],[[462]],[[9]],['low holistic'],['right'],['upright'],['U0155.bmp'],['male'],[],['male'],[[1]],[[0.34141032]],MI
462,[[4]],[[463]],[[10]],['high holistic'],['left'],['inverted'],['U0159.bmp'],['male'],[],['male'],[[1]],[[0.16760238]],MI
463,[[4]],[[464]],[[1]],['high holistic'],['left'],['inverted'],['U0006.bmp'],['female'],[],['female'],[[1]],[[0.41711369]],MI
464,[[4]],[[465]],[[11]],['low holistic'],['right'],['inverted'],['U0164.bmp'],['female'],[],['female'],[[1]],[[0.2322773]],MI
465,[[4]],[[466]],[[1]],['high holistic'],['left'],['inverted'],['U0006.bmp'],['female'],[],['female'],[[1]],[[0.2389245]],MI
466,[[4]],[[467]],[[16]],['high holistic'],['right'],['upright'],['U0335.bmp'],['female'],[],['female'],[[1]],[[0.67699824]],MI
467,[[4]],[[468]],[[3]],['high holistic'],['right'],['upright'],['U0020.bmp'],['male'],[],['male'],[[1]],[[0.37780599]],MI
468,[[4]],[[469]],[[3]],['low holistic'],['right'],['upright'],['U0020.bmp'],['female'],[],['male'],[[0]],[[2.5954657]],MI
469,[[4]],[[470]],[[20]],['low holistic'],['left'],['inverted'],['U0362.bmp'],['male'],[],['male'],[[1]],[[0.50548402]],MI
470,[[4]],[[471]],[[13]],['low holistic'],['left'],['inverted'],['U0181.bmp'],['male'],[],['male'],[[1]],[[0.1268846]],MI
471,[[4]],[[472]],[[6]],['low holistic'],['left'],['upright'],['U0106.bmp'],['male'],[],['male'],[[1]],[[0.08127793]],MI
472,[[4]],[[473]],[[4]],['high holistic'],['left'],['upright'],['U0061.bmp'],['female'],[],['female'],[[1]],[[0.5004425]],MI
473,[[4]],[[474]],[[12]],['low holistic'],['left'],['upright'],['U0178.bmp'],['female'],[],['male'],[[0]],[[0.16194797]],MI
474,[[4]],[[475]],[[6]],['low holistic'],['right'],['inverted'],['U0106.bmp'],['male'],[],['female'],[[0]],[[0.39495087]],MI
475,[[4]],[[476]],[[5]],['low holistic'],['left'],['upright'],['U0076.bmp'],['male'],[],['male'],[[1]],[[0.49122028]],MI
476,[[4]],[[477]],[[1]],['low holistic'],['left'],['inverted'],['U0006.bmp'],['female'],[],['female'],[[1]],[[0.24539639]],MI
477,[[4]],[[478]],[[8]],['low holistic'],['left'],['upright'],['U0137.bmp'],['male'],[],['male'],[[1]],[[0.18083136]],MI
478,[[4]],[[479]],[[19]],['low holistic'],['right'],['upright'],['U0361.bmp'],['female'],[],['male'],[[0]],[[0.84436523]],MI
479,[[4]],[[480]],[[8]],['low holistic'],['right'],['inverted'],['U0137.bmp'],['male'],[],['male'],[[1]],[[1.3075819]],MI
480,[[4]],[[481]],[[17]],['low holistic'],['left'],['inverted'],['U0346.bmp'],['female'],[],['female'],[[1]],[[0.32621042]],MI
481,[[4]],[[482]],[[6]],['high holistic'],['left'],['upright'],['U0106.bmp'],['female'],[],['female'],[[1]],[[0.41664229]],MI
482,[[4]],[[483]],[[1]],['low holistic'],['right'],['upright'],['U0006.bmp'],['female'],[],['male'],[[0]],[[0.62492376]],MI
483,[[4]],[[484]],[[16]],['low holistic'],['right'],['inverted'],['U0335.bmp'],['female'],[],['female'],[[1]],[[0.31148457]],MI
484,[[4]],[[485]],[[6]],['low holistic'],['right'],['upright'],['U0106.bmp'],['male'],[],['male'],[[1]],[[0.72285952]],MI
485,[[4]],[[486]],[[14]],['low holistic'],['left'],['upright'],['U0228.bmp'],['male'],[],['male'],[[1]],[[0.30793259]],MI
486,[[4]],[[487]],[[3]],['high holistic'],['left'],['inverted'],['U0020.bmp'],['male'],[],['female'],[[0]],[[0.37730221]],MI
487,[[4]],[[488]],[[17]],['high holistic'],['right'],['upright'],['U0346.bmp'],['male'],[],['male'],[[1]],[[0.46412584]],MI
488,[[4]],[[489]],[[4]],['high holistic'],['left'],['inverted'],['U0061.bmp'],['female'],[],['female'],[[1]],[[0.95109915]],MI
489,[[4]],[[490]],[[18]],['low holistic'],['fovea'],['inverted'],['U0359.bmp'],['male'],[],['male'],[[1]],[[0.24054465]],MI
490,[[4]],[[491]],[[17]],['low holistic'],['left'],['upright'],['U0346.bmp'],['female'],[],['female'],[[1]],[[9.98545438e-05]],MI
491,[[4]],[[492]],[[9]],['high holistic'],['left'],['inverted'],['U0155.bmp'],['female'],[],['female'],[[1]],[[0.86338954]],MI
492,[[4]],[[493]],[[4]],['low holistic'],['right'],['upright'],['U0061.bmp'],['female'],[],['male'],[[0]],[[0.00010906]],MI
493,[[4]],[[494]],[[12]],['low holistic'],['fovea'],['inverted'],['U0178.bmp'],['female'],[],['male'],[[0]],[[0.86854255]],MI
494,[[4]],[[495]],[[7]],['high holistic'],['right'],['upright'],['U0107.bmp'],['female'],[],['female'],[[1]],[[0.00010595]],MI
495,[[4]],[[496]],[[3]],['low holistic'],['left'],['inverted'],['U0020.bmp'],['female'],[],['female'],[[1]],[[0.00010066]],MI
496,[[4]],[[497]],[[14]],['high holistic'],['right'],['inverted'],['U0228.bmp'],['male'],[],['female'],[[0]],[[0.08014442]],MI
497,[[4]],[[498]],[[14]],['low holistic'],['right'],['upright'],['U0228.bmp'],['male'],[],['male'],[[1]],[[0.10099659]],MI
498,[[4]],[[499]],[[18]],['low holistic'],['right'],['inverted'],['U0359.bmp'],['male'],[],['male'],[[1]],[[0.0235118]],MI
499,[[4]],[[500]],[[4]],['low holistic'],['left'],['upright'],['U0061.bmp'],['female'],[],['female'],[[1]],[[0.46350528]],MI
500,[[4]],[[501]],[[15]],['high holistic'],['right'],['inverted'],['U0312.bmp'],['male'],[],['male'],[[1]],[[0.13223614]],MI
501,[[4]],[[502]],[[11]],['low holistic'],['left'],['upright'],['U0164.bmp'],['female'],[],['female'],[[1]],[[0.00040878]],MI
502,[[4]],[[503]],[[19]],['low holistic'],['right'],['upright'],['U0361.bmp'],['female'],[],['female'],[[1]],[[0.16511776]],MI
503,[[4]],[[504]],[[1]],['high holistic'],['right'],['upright'],['U0006.bmp'],['female'],[],['female'],[[1]],[[0.08566921]],MI
504,[[4]],[[505]],[[18]],['low holistic'],['left'],['upright'],['U0359.bmp'],['male'],[],['male'],[[1]],[[0.57051972]],MI
505,[[4]],[[506]],[[19]],['high holistic'],['left'],['upright'],['U0361.bmp'],['female'],[],['male'],[[0]],[[0.4450271]],MI
506,[[4]],[[507]],[[5]],['low holistic'],['right'],['upright'],['U0076.bmp'],['male'],[],['male'],[[1]],[[0.47541944]],MI
507,[[4]],[[508]],[[15]],['high holistic'],['left'],['inverted'],['U0312.bmp'],['male'],[],['female'],[[0]],[[0.42396472]],MI
508,[[4]],[[509]],[[14]],['high holistic'],['left'],['upright'],['U0228.bmp'],['male'],[],['male'],[[1]],[[0.46120832]],MI
509,[[4]],[[510]],[[6]],['high holistic'],['left'],['inverted'],['U0106.bmp'],['female'],[],['male'],[[0]],[[0.83558761]],MI
510,[[4]],[[511]],[[17]],['low holistic'],['left'],['inverted'],['U0346.bmp'],['female'],[],['female'],[[1]],[[0.44765359]],MI
511,[[4]],[[512]],[[11]],['low holistic'],['left'],['inverted'],['U0164.bmp'],['female'],[],['female'],[[1]],[[0.63817025]],MI
512,[[4]],[[513]],[[4]],['low holistic'],['fovea'],['upright'],['U0061.bmp'],['female'],[],['female'],[[1]],[[0.2933107]],MI
513,[[4]],[[514]],[[6]],['low holistic'],['fovea'],['inverted'],['U0106.bmp'],['male'],[],['male'],[[1]],[[0.11971368]],MI
514,[[4]],[[515]],[[18]],['low holistic'],['left'],['inverted'],['U0359.bmp'],['male'],[],['male'],[[1]],[[0.2988117]],MI
515,[[4]],[[516]],[[9]],['low holistic'],['left'],['upright'],['U0155.bmp'],['male'],[],['male'],[[1]],[[0.28787404]],MI
516,[[4]],[[517]],[[15]],['high holistic'],['right'],['inverted'],['U0312.bmp'],['male'],[],['male'],[[1]],[[2.49297689]],MI
517,[[4]],[[518]],[[7]],['low holistic'],['right'],['upright'],['U0107.bmp'],['female'],[],['female'],[[1]],[[0.43078608]],MI
518,[[4]],[[519]],[[13]],['high holistic'],['right'],['upright'],['U0181.bmp'],['female'],[],['female'],[[1]],[[0.45302695]],MI
519,[[4]],[[520]],[[9]],['high holistic'],['right'],['inverted'],['U0155.bmp'],['female'],[],['male'],[[0]],[[0.31658941]],MI
520,[[4]],[[521]],[[1]],['high holistic'],['left'],['upright'],['U0006.bmp'],['female'],[],['female'],[[1]],[[0.61021927]],MI
521,[[4]],[[522]],[[10]],['high holistic'],['left'],['upright'],['U0159.bmp'],['male'],[],['male'],[[1]],[[0.17701105]],MI
522,[[4]],[[523]],[[6]],['high holistic'],['left'],['upright'],['U0106.bmp'],['female'],[],['female'],[[1]],[[0.00094865]],MI
523,[[4]],[[524]],[[7]],['low holistic'],['right'],['inverted'],['U0107.bmp'],['female'],[],['female'],[[1]],[[0.08175535]],MI
524,[[4]],[[525]],[[16]],['high holistic'],['right'],['inverted'],['U0335.bmp'],['female'],[],['male'],[[0]],[[0.00046727]],MI
525,[[4]],[[526]],[[13]],['low holistic'],['right'],['upright'],['U0181.bmp'],['male'],[],['male'],[[1]],[[0.03783582]],MI
526,[[4]],[[527]],[[14]],['high holistic'],['right'],['inverted'],['U0228.bmp'],['male'],[],['female'],[[0]],[[0.00012658]],MI
527,[[4]],[[528]],[[1]],['low holistic'],['left'],['upright'],['U0006.bmp'],['female'],[],['female'],[[1]],[[9.97968018e-05]],MI
528,[[4]],[[529]],[[15]],['high holistic'],['right'],['upright'],['U0312.bmp'],['male'],[],['female'],[[0]],[[0.00010004]],MI
529,[[4]],[[530]],[[20]],['high holistic'],['right'],['upright'],['U0362.bmp'],['female'],[],['female'],[[1]],[[0.00030419]],MI
530,[[4]],[[531]],[[4]],['high holistic'],['right'],['upright'],['U0061.bmp'],['female'],[],['male'],[[0]],[[0.00015898]],MI
531,[[4]],[[532]],[[14]],['high holistic'],['left'],['upright'],['U0228.bmp'],['male'],[],['male'],[[1]],[[0.00010842]],MI
532,[[4]],[[533]],[[15]],['low holistic'],['fovea'],['inverted'],['U0312.bmp'],['male'],[],['male'],[[1]],[[0.00010099]],MI
533,[[4]],[[534]],[[6]],['low holistic'],['left'],['inverted'],['U0106.bmp'],['male'],[],['male'],[[1]],[[1.35201911]],MI
534,[[4]],[[535]],[[1]],['high holistic'],['right'],['inverted'],['U0006.bmp'],['female'],[],['male'],[[0]],[[0.00011425]],MI
535,[[4]],[[536]],[[20]],['high holistic'],['right'],['inverted'],['U0362.bmp'],['female'],[],['male'],[[0]],[[0.05005399]],MI
536,[[4]],[[537]],[[14]],['high holistic'],['left'],['upright'],['U0228.bmp'],['male'],[],['female'],[[0]],[[0.0001016]],MI
537,[[4]],[[538]],[[15]],['low holistic'],['left'],['inverted'],['U0312.bmp'],['male'],[],['male'],[[1]],[[0.00010582]],MI
538,[[4]],[[539]],[[4]],['high holistic'],['right'],['upright'],['U0061.bmp'],['female'],[],['female'],[[1]],[[0.0090029]],MI
539,[[4]],[[540]],[[5]],['high holistic'],['left'],['upright'],['U0076.bmp'],['female'],[],['female'],[[1]],[[0.07924091]],MI
540,[[4]],[[541]],[[9]],['low holistic'],['right'],['inverted'],['U0155.bmp'],['male'],[],['male'],[[1]],[[0.02853055]],MI
541,[[4]],[[542]],[[9]],['low holistic'],['fovea'],['upright'],['U0155.bmp'],['male'],[],['male'],[[1]],[[9.99476761e-05]],MI
542,[[4]],[[543]],[[3]],['high holistic'],['left'],['inverted'],['U0020.bmp'],['male'],[],['female'],[[0]],[[0.08232027]],MI
543,[[4]],[[544]],[[4]],['low holistic'],['left'],['upright'],['U0061.bmp'],['female'],[],['female'],[[1]],[[0.02909227]],MI
544,[[4]],[[545]],[[10]],['high holistic'],['right'],['inverted'],['U0159.bmp'],['male'],[],['female'],[[0]],[[0.16397148]],MI
545,[[4]],[[546]],[[20]],['high holistic'],['left'],['upright'],['U0362.bmp'],['female'],[],['female'],[[1]],[[0.02085756]],MI
546,[[4]],[[547]],[[7]],['high holistic'],['right'],['upright'],['U0107.bmp'],['female'],[],['male'],[[0]],[[0.07516329]],MI
547,[[4]],[[548]],[[9]],['low holistic'],['left'],['upright'],['U0155.bmp'],['male'],[],['male'],[[1]],[[0.00799521]],MI
548,[[4]],[[549]],[[10]],['high holistic'],['right'],['inverted'],['U0159.bmp'],['male'],[],['male'],[[1]],[[0.19190653]],MI
549,[[4]],[[550]],[[4]],['low holistic'],['right'],['inverted'],['U0061.bmp'],['female'],[],['female'],[[1]],[[0.18555706]],MI
550,[[4]],[[551]],[[3]],['high holistic'],['left'],['inverted'],['U0020.bmp'],['male'],[],['male'],[[1]],[[0.15356743]],MI
551,[[4]],[[552]],[[9]],['low holistic'],['right'],['upright'],['U0155.bmp'],['male'],[],['male'],[[1]],[[0.00010096]],MI
552,[[4]],[[553]],[[15]],['high holistic'],['right'],['inverted'],['U0312.bmp'],['male'],[],['male'],[[1]],[[0.09816194]],MI
553,[[4]],[[554]],[[17]],['low holistic'],['left'],['inverted'],['U0346.bmp'],['female'],[],['female'],[[1]],[[0.13452535]],MI
554,[[4]],[[555]],[[9]],['low holistic'],['right'],['inverted'],['U0155.bmp'],['male'],[],['male'],[[1]],[[0.24111054]],MI
555,[[4]],[[556]],[[14]],['low holistic'],['right'],['upright'],['U0228.bmp'],['male'],[],['male'],[[1]],[[0.00010684]],MI
556,[[4]],[[557]],[[15]],['high holistic'],['fovea'],['upright'],['U0312.bmp'],['male'],[],['female'],[[0]],[[0.19068047]],MI
557,[[4]],[[558]],[[3]],['low holistic'],['left'],['inverted'],['U0020.bmp'],['female'],[],['female'],[[1]],[[0.1329609]],MI
558,[[4]],[[559]],[[7]],['low holistic'],['right'],['inverted'],['U0107.bmp'],['female'],[],['female'],[[1]],[[0.15960639]],MI
559,[[4]],[[560]],[[18]],['low holistic'],['fovea'],['upright'],['U0359.bmp'],['male'],[],['male'],[[1]],[[1.10634105]],MI
560,[[4]],[[561]],[[18]],['high holistic'],['right'],['upright'],['U0359.bmp'],['male'],[],['female'],[[0]],[[5.75576674]],MI
561,[[4]],[[562]],[[17]],['high holistic'],['left'],['inverted'],['U0346.bmp'],['male'],[],['male'],[[1]],[[0.09473214]],MI
562,[[4]],[[563]],[[16]],['low holistic'],['fovea'],['inverted'],['U0335.bmp'],['female'],[],['male'],[[0]],[[0.80198008]],MI
563,[[4]],[[564]],[[1]],['low holistic'],['left'],['inverted'],['U0006.bmp'],['female'],[],['male'],[[0]],[[0.16304043]],MI
564,[[4]],[[565]],[[12]],['low holistic'],['left'],['inverted'],['U0178.bmp'],['female'],[],['male'],[[0]],[[0.00010059]],MI
565,[[4]],[[566]],[[6]],['high holistic'],['left'],['inverted'],['U0106.bmp'],['female'],[],['female'],[[1]],[[1.20977819]],MI
566,[[4]],[[567]],[[6]],['high holistic'],['fovea'],['upright'],['U0106.bmp'],['female'],[],['female'],[[1]],[[0.04934402]],MI
567,[[4]],[[568]],[[19]],['high holistic'],['left'],['upright'],['U0361.bmp'],['female'],[],['male'],[[0]],[[0.3426234]],MI
568,[[4]],[[569]],[[10]],['high holistic'],['left'],['inverted'],['U0159.bmp'],['male'],[],['male'],[[1]],[[0.33818965]],MI
569,[[4]],[[570]],[[5]],['low holistic'],['fovea'],['inverted'],['U0076.bmp'],['male'],[],['male'],[[1]],[[0.00010761]],MI
570,[[4]],[[571]],[[13]],['low holistic'],['left'],['inverted'],['U0181.bmp'],['male'],[],['male'],[[1]],[[0.00010741]],MI
571,[[4]],[[572]],[[7]],['low holistic'],['left'],['upright'],['U0107.bmp'],['female'],[],['female'],[[1]],[[0.59554507]],MI
572,[[4]],[[573]],[[7]],['low holistic'],['right'],['inverted'],['U0107.bmp'],['female'],[],['female'],[[1]],[[0.46747352]],MI
573,[[4]],[[574]],[[12]],['low holistic'],['right'],['upright'],['U0178.bmp'],['female'],[],['female'],[[1]],[[0.18447942]],MI
574,[[4]],[[575]],[[15]],['low holistic'],['right'],['upright'],['U0312.bmp'],['male'],[],['male'],[[1]],[[0.71950992]],MI
575,[[4]],[[576]],[[7]],['low holistic'],['fovea'],['upright'],['U0107.bmp'],['female'],[],['male'],[[0]],[[0.33889911]],MI
576,[[4]],[[577]],[[6]],['high holistic'],['left'],['upright'],['U0106.bmp'],['female'],[],['female'],[[1]],[[0.08434915]],MI
577,[[4]],[[578]],[[20]],['high holistic'],['left'],['upright'],['U0362.bmp'],['female'],[],['male'],[[0]],[[0.32842987]],MI
578,[[4]],[[579]],[[18]],['low holistic'],['fovea'],['upright'],['U0359.bmp'],['male'],[],['female'],[[0]],[[0.00010724]],MI
579,[[4]],[[580]],[[10]],['high holistic'],['left'],['upright'],['U0159.bmp'],['male'],[],['female'],[[0]],[[0.16330609]],MI
580,[[4]],[[581]],[[11]],['low holistic'],['left'],['upright'],['U0164.bmp'],['female'],[],['female'],[[1]],[[0.55648833]],MI
581,[[4]],[[582]],[[1]],['low holistic'],['right'],['upright'],['U0006.bmp'],['female'],[],['female'],[[1]],[[0.12639218]],MI
582,[[4]],[[583]],[[2]],['low holistic'],['left'],['inverted'],['U0014.bmp'],['male'],[],['male'],[[1]],[[0.03307845]],MI
583,[[4]],[[584]],[[9]],['low holistic'],['right'],['upright'],['U0155.bmp'],['male'],[],['male'],[[1]],[[0.8297108]],MI
584,[[4]],[[585]],[[15]],['high holistic'],['right'],['inverted'],['U0312.bmp'],['male'],[],['male'],[[1]],[[0.23715365]],MI
585,[[4]],[[586]],[[19]],['high holistic'],['right'],['inverted'],['U0361.bmp'],['female'],[],['male'],[[0]],[[0.13062262]],MI
586,[[4]],[[587]],[[2]],['low holistic'],['left'],['upright'],['U0014.bmp'],['male'],[],['male'],[[1]],[[0.47056442]],MI
587,[[4]],[[588]],[[1]],['low holistic'],['right'],['upright'],['U0006.bmp'],['female'],[],['male'],[[0]],[[1.32369437]],MI
588,[[4]],[[589]],[[14]],['low holistic'],['right'],['upright'],['U0228.bmp'],['male'],[],['female'],[[0]],[[3.82833434]],MI
589,[[4]],[[590]],[[18]],['high holistic'],['right'],['upright'],['U0359.bmp'],['male'],[],['male'],[[1]],[[1.09829118]],MI
590,[[4]],[[591]],[[6]],['low holistic'],['right'],['inverted'],['U0106.bmp'],['male'],[],['male'],[[1]],[[0.11179964]],MI
591,[[4]],[[592]],[[16]],['high holistic'],['left'],['upright'],['U0335.bmp'],['female'],[],['male'],[[0]],[[0.20224753]],MI
592,[[4]],[[593]],[[19]],['low holistic'],['right'],['inverted'],['U0361.bmp'],['female'],[],['male'],[[0]],[[0.00024538]],MI
593,[[4]],[[594]],[[6]],['high holistic'],['right'],['inverted'],['U0106.bmp'],['female'],[],['female'],[[1]],[[0.00799784]],MI
594,[[4]],[[595]],[[19]],['high holistic'],['right'],['inverted'],['U0361.bmp'],['female'],[],['male'],[[0]],[[0.00034174]],MI
595,[[4]],[[596]],[[14]],['low holistic'],['right'],['upright'],['U0228.bmp'],['male'],[],['male'],[[1]],[[0.00011265]],MI
596,[[4]],[[597]],[[4]],['low holistic'],['right'],['upright'],['U0061.bmp'],['female'],[],['female'],[[1]],[[0.07764107]],MI
597,[[4]],[[598]],[[13]],['high holistic'],['left'],['inverted'],['U0181.bmp'],['female'],[],['male'],[[0]],[[0.85783086]],MI
598,[[4]],[[599]],[[14]],['high holistic'],['right'],['upright'],['U0228.bmp'],['male'],[],['male'],[[1]],[[0.00010025]],MI
599,[[4]],[[600]],[[8]],['high holistic'],['left'],['inverted'],['U0137.bmp'],['female'],[],['male'],[[0]],[[9.94140282e-05]],MI
600,[[4]],[[601]],[[15]],['low holistic'],['right'],['inverted'],['U0312.bmp'],['male'],[],['male'],[[1]],[[0.00669402]],MI
601,[[4]],[[602]],[[10]],['high holistic'],['left'],['inverted'],['U0159.bmp'],['male'],[],['male'],[[1]],[[0.15775997]],MI
602,[[4]],[[603]],[[6]],['low holistic'],['right'],['inverted'],['U0106.bmp'],['male'],[],['male'],[[1]],[[0.15282723]],MI
603,[[4]],[[604]],[[5]],['high holistic'],['right'],['upright'],['U0076.bmp'],['female'],[],['male'],[[0]],[[0.03268446]],MI
604,[[4]],[[605]],[[18]],['high holistic'],['fovea'],['upright'],['U0359.bmp'],['male'],[],['male'],[[1]],[[0.19890374]],MI
605,[[4]],[[606]],[[13]],['low holistic'],['left'],['inverted'],['U0181.bmp'],['male'],[],['female'],[[0]],[[1.32689523]],MI
606,[[4]],[[607]],[[10]],['high holistic'],['left'],['upright'],['U0159.bmp'],['male'],[],['male'],[[1]],[[1.07523479]],MI
607,[[4]],[[608]],[[20]],['high holistic'],['left'],['upright'],['U0362.bmp'],['female'],[],['male'],[[0]],[[0.39091565]],MI
608,[[4]],[[609]],[[3]],['high holistic'],['left'],['upright'],['U0020.bmp'],['male'],[],['male'],[[1]],[[0.10306862]],MI
609,[[4]],[[610]],[[8]],['high holistic'],['right'],['inverted'],['U0137.bmp'],['female'],[],['male'],[[0]],[[0.24385836]],MI
610,[[4]],[[611]],[[4]],['low holistic'],['right'],['upright'],['U0061.bmp'],['female'],[],['male'],[[0]],[[0.03205481]],MI
611,[[4]],[[612]],[[6]],['high holistic'],['right'],['upright'],['U0106.bmp'],['female'],[],['female'],[[1]],[[0.2536276]],MI
612,[[4]],[[613]],[[6]],['low holistic'],['right'],['upright'],['U0106.bmp'],['male'],[],['male'],[[1]],[[0.70906261]],MI
613,[[4]],[[614]],[[1]],['low holistic'],['fovea'],['upright'],['U0006.bmp'],['female'],[],['female'],[[1]],[[0.03051801]],MI
614,[[4]],[[615]],[[13]],['low holistic'],['fovea'],['inverted'],['U0181.bmp'],['male'],[],['male'],[[1]],[[0.18964775]],MI
615,[[4]],[[616]],[[4]],['low holistic'],['left'],['inverted'],['U0061.bmp'],['female'],[],['male'],[[0]],[[0.06049483]],MI
616,[[4]],[[617]],[[17]],['high holistic'],['right'],['upright'],['U0346.bmp'],['male'],[],['male'],[[1]],[[0.60329063]],MI
617,[[4]],[[618]],[[5]],['low holistic'],['right'],['upright'],['U0076.bmp'],['male'],[],['male'],[[1]],[[0.15409515]],MI
618,[[4]],[[619]],[[1]],['low holistic'],['right'],['upright'],['U0006.bmp'],['female'],[],['female'],[[1]],[[0.19486616]],MI
619,[[4]],[[620]],[[8]],['low holistic'],['left'],['upright'],['U0137.bmp'],['male'],[],['male'],[[1]],[[0.00055347]],MI
620,[[4]],[[621]],[[17]],['high holistic'],['left'],['inverted'],['U0346.bmp'],['male'],[],['male'],[[1]],[[0.00010077]],MI
621,[[4]],[[622]],[[9]],['high holistic'],['fovea'],['inverted'],['U0155.bmp'],['female'],[],['male'],[[0]],[[0.69060296]],MI
622,[[4]],[[623]],[[19]],['low holistic'],['left'],['inverted'],['U0361.bmp'],['female'],[],['female'],[[1]],[[0.05397363]],MI
623,[[4]],[[624]],[[18]],['high holistic'],['left'],['inverted'],['U0359.bmp'],['male'],[],['female'],[[0]],[[2.38755633]],MI
624,[[4]],[[625]],[[14]],['low holistic'],['left'],['inverted'],['U0228.bmp'],['male'],[],['male'],[[1]],[[0.02781925]],MI
625,[[4]],[[626]],[[18]],['low holistic'],['left'],['upright'],['U0359.bmp'],['male'],[],['male'],[[1]],[[0.21045311]],MI
626,[[4]],[[627]],[[12]],['low holistic'],['right'],['upright'],['U0178.bmp'],['female'],[],['male'],[[0]],[[0.88939482]],MI
627,[[4]],[[628]],[[12]],['high holistic'],['right'],['upright'],['U0178.bmp'],['male'],[],['male'],[[1]],[[0.30351776]],MI
628,[[4]],[[629]],[[16]],['high holistic'],['right'],['upright'],['U0335.bmp'],['female'],[],['female'],[[1]],[[13.52166348]],MI
629,[[4]],[[630]],[[11]],['low holistic'],['left'],['upright'],['U0164.bmp'],['female'],[],['female'],[[1]],[[0.13333111]],MI
630,[[4]],[[631]],[[2]],['low holistic'],['right'],['inverted'],['U0014.bmp'],['male'],[],['male'],[[1]],[[0.06899481]],MI
631,[[4]],[[632]],[[7]],['low holistic'],['left'],['inverted'],['U0107.bmp'],['female'],[],['female'],[[1]],[[0.03560298]],MI
632,[[4]],[[633]],[[19]],['high holistic'],['right'],['upright'],['U0361.bmp'],['female'],[],['male'],[[0]],[[0.00287924]],MI
633,[[4]],[[634]],[[19]],['low holistic'],['right'],['upright'],['U0361.bmp'],['female'],[],['female'],[[1]],[[0.15265925]],MI
634,[[4]],[[635]],[[6]],['low holistic'],['right'],['upright'],['U0106.bmp'],['male'],[],['female'],[[0]],[[0.01925206]],MI
635,[[4]],[[636]],[[10]],['high holistic'],['left'],['upright'],['U0159.bmp'],['male'],[],['male'],[[1]],[[0.21080322]],MI
636,[[4]],[[637]],[[13]],['high holistic'],['right'],['inverted'],['U0181.bmp'],['female'],[],['male'],[[0]],[[0.00010682]],MI
637,[[4]],[[638]],[[8]],['low holistic'],['right'],['inverted'],['U0137.bmp'],['male'],[],['female'],[[0]],[[0.31410564]],MI
638,[[4]],[[639]],[[1]],['high holistic'],['left'],['inverted'],['U0006.bmp'],['female'],[],['male'],[[0]],[[0.18110426]],MI
639,[[4]],[[640]],[[6]],['low holistic'],['right'],['inverted'],['U0106.bmp'],['male'],[],['female'],[[0]],[[0.22945615]],MI
640,[[4]],[[641]],[[5]],['high holistic'],['left'],['inverted'],['U0076.bmp'],['female'],[],['female'],[[1]],[[0.18006279]],MI
641,[[4]],[[642]],[[17]],['high holistic'],['right'],['inverted'],['U0346.bmp'],['male'],[],['female'],[[0]],[[0.00010055]],MI
642,[[4]],[[643]],[[20]],['low holistic'],['right'],['upright'],['U0362.bmp'],['male'],[],['female'],[[0]],[[0.52359298]],MI
643,[[4]],[[644]],[[3]],['high holistic'],['right'],['inverted'],['U0020.bmp'],['male'],[],['female'],[[0]],[[2.19802336]],MI
644,[[4]],[[645]],[[20]],['low holistic'],['right'],['inverted'],['U0362.bmp'],['male'],[],['male'],[[1]],[[3.07740341]],MI
645,[[4]],[[646]],[[9]],['high holistic'],['left'],['upright'],['U0155.bmp'],['female'],[],['male'],[[0]],[[1.69013849]],MI
646,[[4]],[[647]],[[18]],['high holistic'],['right'],['inverted'],['U0359.bmp'],['male'],[],['male'],[[1]],[[0.35108845]],MI
647,[[4]],[[648]],[[1]],['high holistic'],['right'],['inverted'],['U0006.bmp'],['female'],[],['male'],[[0]],[[0.57614328]],MI
648,[[4]],[[649]],[[17]],['high holistic'],['left'],['inverted'],['U0346.bmp'],['male'],[],['male'],[[1]],[[0.91899553]],MI
649,[[4]],[[650]],[[15]],['low holistic'],['right'],['inverted'],['U0312.bmp'],['male'],[],['male'],[[1]],[[0.13006347]],MI
650,[[4]],[[651]],[[4]],['low holistic'],['left'],['upright'],['U0061.bmp'],['female'],[],['female'],[[1]],[[0.60448253]],MI
651,[[4]],[[652]],[[20]],['high holistic'],['left'],['upright'],['U0362.bmp'],['female'],[],['female'],[[1]],[[0.02774312]],MI
652,[[4]],[[653]],[[13]],['low holistic'],['right'],['inverted'],['U0181.bmp'],['male'],[],['male'],[[1]],[[0.00038621]],MI
653,[[4]],[[654]],[[19]],['low holistic'],['left'],['upright'],['U0361.bmp'],['female'],[],['female'],[[1]],[[0.0001003]],MI
654,[[4]],[[655]],[[10]],['low holistic'],['left'],['inverted'],['U0159.bmp'],['female'],[],['female'],[[1]],[[0.23472911]],MI
655,[[4]],[[656]],[[14]],['low holistic'],['right'],['inverted'],['U0228.bmp'],['male'],[],['female'],[[0]],[[0.00010017]],MI
656,[[4]],[[657]],[[11]],['low holistic'],['right'],['upright'],['U0164.bmp'],['female'],[],['female'],[[1]],[[0.00010102]],MI
657,[[4]],[[658]],[[14]],['low holistic'],['right'],['inverted'],['U0228.bmp'],['male'],[],['male'],[[1]],[[0.01681896]],MI
658,[[4]],[[659]],[[4]],['high holistic'],['right'],['upright'],['U0061.bmp'],['female'],[],['male'],[[0]],[[0.16757584]],MI
659,[[4]],[[660]],[[7]],['low holistic'],['right'],['upright'],['U0107.bmp'],['female'],[],['female'],[[1]],[[0.11230064]],MI
660,[[4]],[[661]],[[17]],['low holistic'],['left'],['upright'],['U0346.bmp'],['female'],[],['female'],[[1]],[[0.02868443]],MI
661,[[4]],[[662]],[[7]],['high holistic'],['right'],['upright'],['U0107.bmp'],['female'],[],['female'],[[1]],[[1.30717611]],MI
662,[[4]],[[663]],[[10]],['low holistic'],['left'],['inverted'],['U0159.bmp'],['female'],[],['female'],[[1]],[[0.11836425]],MI
663,[[4]],[[664]],[[5]],['high holistic'],['left'],['upright'],['U0076.bmp'],['female'],[],['female'],[[1]],[[0.02308819]],MI
664,[[4]],[[665]],[[7]],['low holistic'],['right'],['inverted'],['U0107.bmp'],['female'],[],['male'],[[0]],[[0.18308385]],MI
665,[[4]],[[666]],[[9]],['high holistic'],['right'],['inverted'],['U0155.bmp'],['female'],[],['male'],[[0]],[[0.00555781]],MI
666,[[4]],[[667]],[[5]],['low holistic'],['left'],['inverted'],['U0076.bmp'],['male'],[],['female'],[[0]],[[0.00015869]],MI
667,[[4]],[[668]],[[1]],['low holistic'],['right'],['inverted'],['U0006.bmp'],['female'],[],['female'],[[1]],[[0.13294144]],MI
668,[[4]],[[669]],[[5]],['high holistic'],['left'],['upright'],['U0076.bmp'],['female'],[],['female'],[[1]],[[0.00010046]],MI
669,[[4]],[[670]],[[16]],['low holistic'],['left'],['inverted'],['U0335.bmp'],['female'],[],['female'],[[1]],[[0.00010775]],MI
670,[[4]],[[671]],[[18]],['high holistic'],['left'],['inverted'],['U0359.bmp'],['male'],[],['female'],[[0]],[[0.00010188]],MI
671,[[4]],[[672]],[[17]],['high holistic'],['left'],['inverted'],['U0346.bmp'],['male'],[],['female'],[[0]],[[0.13560384]],MI
672,[[4]],[[673]],[[18]],['low holistic'],['left'],['inverted'],['U0359.bmp'],['male'],[],['female'],[[0]],[[0.26703512]],MI
673,[[4]],[[674]],[[16]],['low holistic'],['right'],['inverted'],['U0335.bmp'],['female'],[],['female'],[[1]],[[0.05550648]],MI
674,[[4]],[[675]],[[12]],['high holistic'],['right'],['inverted'],['U0178.bmp'],['male'],[],['male'],[[1]],[[0.11584664]],MI
675,[[4]],[[676]],[[18]],['high holistic'],['left'],['upright'],['U0359.bmp'],['male'],[],['male'],[[1]],[[0.00779798]],MI
676,[[4]],[[677]],[[14]],['low holistic'],['right'],['upright'],['U0228.bmp'],['male'],[],['male'],[[1]],[[0.14331438]],MI
677,[[4]],[[678]],[[17]],['high holistic'],['right'],['upright'],['U0346.bmp'],['male'],[],['male'],[[1]],[[0.14386806]],MI
678,[[4]],[[679]],[[15]],['high holistic'],['right'],['upright'],['U0312.bmp'],['male'],[],['male'],[[1]],[[0.00010791]],MI
679,[[4]],[[680]],[[11]],['low holistic'],['right'],['inverted'],['U0164.bmp'],['female'],[],['female'],[[1]],[[0.26787679]],MI
680,[[4]],[[681]],[[3]],['low holistic'],['right'],['inverted'],['U0020.bmp'],['female'],[],['female'],[[1]],[[0.24768043]],MI
681,[[4]],[[682]],[[14]],['high holistic'],['right'],['upright'],['U0228.bmp'],['male'],[],['male'],[[1]],[[0.14878117]],MI
682,[[4]],[[683]],[[16]],['high holistic'],['left'],['inverted'],['U0335.bmp'],['female'],[],['male'],[[0]],[[0.08713937]],MI
683,[[4]],[[684]],[[11]],['low holistic'],['right'],['inverted'],['U0164.bmp'],['female'],[],['female'],[[1]],[[0.08267291]],MI
684,[[4]],[[685]],[[8]],['high holistic'],['left'],['upright'],['U0137.bmp'],['female'],[],['female'],[[1]],[[0.48757945]],MI
685,[[4]],[[686]],[[17]],['low holistic'],['right'],['inverted'],['U0346.bmp'],['female'],[],['female'],[[1]],[[0.21187949]],MI
686,[[4]],[[687]],[[10]],['high holistic'],['right'],['upright'],['U0159.bmp'],['male'],[],['male'],[[1]],[[0.1792843]],MI
687,[[4]],[[688]],[[10]],['high holistic'],['left'],['inverted'],['U0159.bmp'],['male'],[],['female'],[[0]],[[0.17863726]],MI
688,[[4]],[[689]],[[16]],['low holistic'],['left'],['upright'],['U0335.bmp'],['female'],[],['female'],[[1]],[[9.84016806e-05]],MI
689,[[4]],[[690]],[[17]],['low holistic'],['right'],['inverted'],['U0346.bmp'],['female'],[],['female'],[[1]],[[0.00010723]],MI
690,[[4]],[[691]],[[15]],['high holistic'],['right'],['inverted'],['U0312.bmp'],['male'],[],['female'],[[0]],[[0.00010954]],MI
691,[[4]],[[692]],[[14]],['low holistic'],['right'],['inverted'],['U0228.bmp'],['male'],[],['female'],[[0]],[[0.00010934]],MI
692,[[4]],[[693]],[[14]],['low holistic'],['right'],['inverted'],['U0228.bmp'],['male'],[],['male'],[[1]],[[1.51432364]],MI
693,[[4]],[[694]],[[4]],['low holistic'],['right'],['upright'],['U0061.bmp'],['female'],[],['female'],[[1]],[[0.16583928]],MI
694,[[4]],[[695]],[[3]],['high holistic'],['right'],['upright'],['U0020.bmp'],['male'],[],['male'],[[1]],[[0.00010053]],MI
695,[[4]],[[696]],[[15]],['low holistic'],['right'],['inverted'],['U0312.bmp'],['male'],[],['male'],[[1]],[[0.00010834]],MI
696,[[4]],[[697]],[[15]],['low holistic'],['left'],['inverted'],['U0312.bmp'],['male'],[],['male'],[[1]],[[0.00010776]],MI
697,[[4]],[[698]],[[15]],['low holistic'],['fovea'],['inverted'],['U0312.bmp'],['male'],[],['male'],[[1]],[[0.00010845]],MI
698,[[4]],[[699]],[[19]],['high holistic'],['right'],['upright'],['U0361.bmp'],['female'],[],['male'],[[0]],[[0.00010082]],MI
699,[[4]],[[700]],[[11]],['high holistic'],['left'],['inverted'],['U0164.bmp'],['female'],[],['female'],[[1]],[[0.05266089]],MI
700,[[4]],[[701]],[[15]],['high holistic'],['right'],['upright'],['U0312.bmp'],['male'],[],['female'],[[0]],[[0.06692061]],MI
701,[[4]],[[702]],[[14]],['low holistic'],['right'],['inverted'],['U0228.bmp'],['male'],[],['male'],[[1]],[[0.0063516]],MI
702,[[4]],[[703]],[[5]],['low holistic'],['left'],['upright'],['U0076.bmp'],['male'],[],['male'],[[1]],[[1.35122048]],MI
703,[[4]],[[704]],[[3]],['low holistic'],['right'],['inverted'],['U0020.bmp'],['female'],[],['male'],[[0]],[[0.00010158]],MI
704,[[4]],[[705]],[[15]],['low holistic'],['right'],['inverted'],['U0312.bmp'],['male'],[],['male'],[[1]],[[0.00010731]],MI
705,[[4]],[[706]],[[11]],['low holistic'],['right'],['inverted'],['U0164.bmp'],['female'],[],['female'],[[1]],[[0.05518616]],MI
706,[[4]],[[707]],[[13]],['high holistic'],['left'],['upright'],['U0181.bmp'],['female'],[],['female'],[[1]],[[0.25212312]],MI
707,[[4]],[[708]],[[3]],['high holistic'],['right'],['inverted'],['U0020.bmp'],['male'],[],['male'],[[1]],[[0.12255481]],MI
708,[[4]],[[709]],[[2]],['high holistic'],['right'],['inverted'],['U0014.bmp'],['male'],[],['male'],[[1]],[[0.03809389]],MI
709,[[4]],[[710]],[[6]],['high holistic'],['right'],['inverted'],['U0106.bmp'],['female'],[],['female'],[[1]],[[0.01889045]],MI
710,[[4]],[[711]],[[10]],['high holistic'],['right'],['inverted'],['U0159.bmp'],['male'],[],['male'],[[1]],[[0.17070684]],MI
711,[[4]],[[712]],[[8]],['low holistic'],['left'],['upright'],['U0137.bmp'],['male'],[],['male'],[[1]],[[0.13285437]],MI
712,[[4]],[[713]],[[5]],['high holistic'],['left'],['inverted'],['U0076.bmp'],['female'],[],['male'],[[0]],[[0.17261841]],MI
713,[[4]],[[714]],[[10]],['high holistic'],['left'],['upright'],['U0159.bmp'],['male'],[],['male'],[[1]],[[0.15909246]],MI
714,[[4]],[[715]],[[13]],['high holistic'],['left'],['inverted'],['U0181.bmp'],['female'],[],['male'],[[0]],[[0.14314646]],MI
715,[[4]],[[716]],[[11]],['high holistic'],['right'],['inverted'],['U0164.bmp'],['female'],[],['male'],[[0]],[[0.08296569]],MI
716,[[4]],[[717]],[[10]],['high holistic'],['right'],['inverted'],['U0159.bmp'],['male'],[],['male'],[[1]],[[0.00016715]],MI
717,[[4]],[[718]],[[12]],['high holistic'],['fovea'],['upright'],['U0178.bmp'],['male'],[],['male'],[[1]],[[0.11854793]],MI
718,[[4]],[[719]],[[18]],['high holistic'],['left'],['inverted'],['U0359.bmp'],['male'],[],['male'],[[1]],[[0.12903422]],MI
719,[[4]],[[720]],[[9]],['low holistic'],['right'],['upright'],['U0155.bmp'],['male'],[],['female'],[[0]],[[0.02865504]],MI
720,[[4]],[[721]],[[13]],['high holistic'],['right'],['inverted'],['U0181.bmp'],['female'],[],['male'],[[0]],[[1.88300909]],MI
721,[[4]],[[722]],[[19]],['high holistic'],['right'],['inverted'],['U0361.bmp'],['female'],[],['male'],[[0]],[[0.2061691]],MI
722,[[4]],[[723]],[[9]],['high holistic'],['left'],['inverted'],['U0155.bmp'],['female'],[],['male'],[[0]],[[0.00555095]],MI
723,[[4]],[[724]],[[18]],['low holistic'],['left'],['upright'],['U0359.bmp'],['male'],[],['male'],[[1]],[[0.01238651]],MI
724,[[4]],[[725]],[[7]],['low holistic'],['right'],['inverted'],['U0107.bmp'],['female'],[],['female'],[[1]],[[0.63764247]],MI
725,[[4]],[[726]],[[4]],['high holistic'],['right'],['upright'],['U0061.bmp'],['female'],[],['female'],[[1]],[[0.31444718]],MI
726,[[4]],[[727]],[[4]],['low holistic'],['right'],['inverted'],['U0061.bmp'],['female'],[],['female'],[[1]],[[0.23795931]],MI
727,[[4]],[[728]],[[17]],['high holistic'],['fovea'],['upright'],['U0346.bmp'],['male'],[],['male'],[[1]],[[9.95472074e-05]],MI
728,[[4]],[[729]],[[16]],['low holistic'],['left'],['upright'],['U0335.bmp'],['female'],[],['female'],[[1]],[[0.07623582]],MI
729,[[4]],[[730]],[[17]],['low holistic'],['right'],['upright'],['U0346.bmp'],['female'],[],['female'],[[1]],[[0.00018706]],MI
730,[[4]],[[731]],[[1]],['high holistic'],['left'],['inverted'],['U0006.bmp'],['female'],[],['male'],[[0]],[[9.99690965e-05]],MI
731,[[4]],[[732]],[[7]],['low holistic'],['left'],['upright'],['U0107.bmp'],['female'],[],['female'],[[1]],[[0.05636636]],MI
732,[[4]],[[733]],[[20]],['high holistic'],['right'],['upright'],['U0362.bmp'],['female'],[],['female'],[[1]],[[0.0358188]],MI
733,[[4]],[[734]],[[5]],['low holistic'],['left'],['inverted'],['U0076.bmp'],['male'],[],['male'],[[1]],[[0.01131764]],MI
734,[[4]],[[735]],[[5]],['low holistic'],['right'],['upright'],['U0076.bmp'],['male'],[],['male'],[[1]],[[0.05737519]],MI
735,[[4]],[[736]],[[20]],['high holistic'],['left'],['upright'],['U0362.bmp'],['female'],[],['female'],[[1]],[[1.17676239]],MI
736,[[4]],[[737]],[[2]],['low holistic'],['left'],['upright'],['U0014.bmp'],['male'],[],['female'],[[0]],[[0.00010084]],MI
737,[[4]],[[738]],[[15]],['high holistic'],['left'],['inverted'],['U0312.bmp'],['male'],[],['male'],[[1]],[[0.16044739]],MI
738,[[4]],[[739]],[[18]],['low holistic'],['left'],['upright'],['U0359.bmp'],['male'],[],['male'],[[1]],[[0.06497323]],MI
739,[[4]],[[740]],[[12]],['low holistic'],['fovea'],['upright'],['U0178.bmp'],['female'],[],['female'],[[1]],[[0.32572304]],MI
740,[[4]],[[741]],[[4]],['low holistic'],['right'],['upright'],['U0061.bmp'],['female'],[],['female'],[[1]],[[0.3600393]],MI
741,[[4]],[[742]],[[3]],['high holistic'],['left'],['upright'],['U0020.bmp'],['male'],[],['male'],[[1]],[[0.17758223]],MI
742,[[4]],[[743]],[[18]],['high holistic'],['left'],['inverted'],['U0359.bmp'],['male'],[],['male'],[[1]],[[0.00012574]],MI
743,[[4]],[[744]],[[14]],['high holistic'],['left'],['upright'],['U0228.bmp'],['male'],[],['male'],[[1]],[[1.09722092]],MI
744,[[4]],[[745]],[[9]],['low holistic'],['left'],['inverted'],['U0155.bmp'],['male'],[],['male'],[[1]],[[0.00014443]],MI
745,[[4]],[[746]],[[6]],['high holistic'],['left'],['upright'],['U0106.bmp'],['female'],[],['male'],[[0]],[[0.00010721]],MI
746,[[4]],[[747]],[[11]],['high holistic'],['right'],['inverted'],['U0164.bmp'],['female'],[],['male'],[[0]],[[0.05443728]],MI
747,[[4]],[[748]],[[15]],['low holistic'],['left'],['inverted'],['U0312.bmp'],['male'],[],['female'],[[0]],[[0.02796538]],MI
748,[[4]],[[749]],[[16]],['low holistic'],['right'],['inverted'],['U0335.bmp'],['female'],[],['female'],[[1]],[[0.00010155]],MI
749,[[4]],[[750]],[[9]],['low holistic'],['left'],['upright'],['U0155.bmp'],['male'],[],['male'],[[1]],[[0.00032553]],MI
750,[[4]],[[751]],[[7]],['low holistic'],['left'],['upright'],['U0107.bmp'],['female'],[],['female'],[[1]],[[0.00010855]],MI
751,[[4]],[[752]],[[19]],['low holistic'],['left'],['inverted'],['U0361.bmp'],['female'],[],['female'],[[1]],[[0.12029877]],MI
752,[[4]],[[753]],[[6]],['high holistic'],['left'],['inverted'],['U0106.bmp'],['female'],[],['male'],[[0]],[[0.1879506]],MI
753,[[4]],[[754]],[[19]],['low holistic'],['left'],['inverted'],['U0361.bmp'],['female'],[],['male'],[[0]],[[0.27527661]],MI
754,[[4]],[[755]],[[2]],['high holistic'],['left'],['inverted'],['U0014.bmp'],['male'],[],['female'],[[0]],[[0.17682138]],MI
755,[[4]],[[756]],[[19]],['low holistic'],['right'],['upright'],['U0361.bmp'],['female'],[],['female'],[[1]],[[0.58497736]],MI
756,[[4]],[[757]],[[17]],['high holistic'],['right'],['inverted'],['U0346.bmp'],['male'],[],['female'],[[0]],[[0.00010119]],MI
757,[[4]],[[758]],[[8]],['low holistic'],['left'],['upright'],['U0137.bmp'],['male'],[],['male'],[[1]],[[0.00010051]],MI
758,[[4]],[[759]],[[17]],['low holistic'],['right'],['upright'],['U0346.bmp'],['female'],[],['female'],[[1]],[[1.2408962]],MI
759,[[4]],[[760]],[[13]],['high holistic'],['left'],['upright'],['U0181.bmp'],['female'],[],['male'],[[0]],[[0.78208122]],MI
760,[[4]],[[761]],[[18]],['low holistic'],['left'],['upright'],['U0359.bmp'],['male'],[],['male'],[[1]],[[2.62189585]],MI
761,[[4]],[[762]],[[10]],['low holistic'],['right'],['upright'],['U0159.bmp'],['female'],[],['female'],[[1]],[[2.06125675]],MI
762,[[4]],[[763]],[[14]],['high holistic'],['right'],['upright'],['U0228.bmp'],['male'],[],['male'],[[1]],[[0.17170298]],MI
763,[[4]],[[764]],[[6]],['high holistic'],['right'],['upright'],['U0106.bmp'],['female'],[],['female'],[[1]],[[0.00010002]],MI
764,[[4]],[[765]],[[17]],['high holistic'],['left'],['upright'],['U0346.bmp'],['male'],[],['male'],[[1]],[[0.05066089]],MI
765,[[4]],[[766]],[[14]],['low holistic'],['right'],['inverted'],['U0228.bmp'],['male'],[],['male'],[[1]],[[0.17607028]],MI
766,[[4]],[[767]],[[14]],['high holistic'],['left'],['upright'],['U0228.bmp'],['male'],[],['female'],[[0]],[[0.35333982]],MI
767,[[4]],[[768]],[[7]],['low holistic'],['left'],['inverted'],['U0107.bmp'],['female'],[],['male'],[[0]],[[0.48212337]],MI
768,[[4]],[[769]],[[6]],['high holistic'],['right'],['upright'],['U0106.bmp'],['female'],[],['male'],[[0]],[[0.20738368]],MI
769,[[4]],[[770]],[[11]],['high holistic'],['left'],['upright'],['U0164.bmp'],['female'],[],['male'],[[0]],[[0.34186583]],MI
770,[[4]],[[771]],[[18]],['high holistic'],['right'],['inverted'],['U0359.bmp'],['male'],[],['female'],[[0]],[[0.45598226]],MI
771,[[4]],[[772]],[[3]],['high holistic'],['left'],['upright'],['U0020.bmp'],['male'],[],['female'],[[0]],[[0.31910794]],MI
772,[[4]],[[773]],[[19]],['low holistic'],['fovea'],['upright'],['U0361.bmp'],['female'],[],['female'],[[1]],[[0.01617865]],MI
773,[[4]],[[774]],[[19]],['high holistic'],['left'],['inverted'],['U0361.bmp'],['female'],[],['female'],[[1]],[[0.42393995]],MI
774,[[4]],[[775]],[[6]],['low holistic'],['right'],['upright'],['U0106.bmp'],['male'],[],['female'],[[0]],[[0.84851648]],MI
775,[[4]],[[776]],[[2]],['high holistic'],['left'],['upright'],['U0014.bmp'],['male'],[],['female'],[[0]],[[0.40506046]],MI
776,[[4]],[[777]],[[12]],['low holistic'],['left'],['upright'],['U0178.bmp'],['female'],[],['female'],[[1]],[[0.08454409]],MI
777,[[4]],[[778]],[[6]],['low holistic'],['left'],['upright'],['U0106.bmp'],['male'],[],['male'],[[1]],[[0.22376446]],MI
778,[[4]],[[779]],[[17]],['low holistic'],['right'],['upright'],['U0346.bmp'],['female'],[],['male'],[[0]],[[0.9344443]],MI
779,[[4]],[[780]],[[7]],['low holistic'],['left'],['inverted'],['U0107.bmp'],['female'],[],['female'],[[1]],[[0.16161364]],MI
780,[[4]],[[781]],[[7]],['high holistic'],['right'],['inverted'],['U0107.bmp'],['female'],[],['male'],[[0]],[[0.59587945]],MI
781,[[4]],[[782]],[[19]],['high holistic'],['left'],['upright'],['U0361.bmp'],['female'],[],['male'],[[0]],[[0.14798742]],MI
782,[[4]],[[783]],[[9]],['low holistic'],['right'],['upright'],['U0155.bmp'],['male'],[],['male'],[[1]],[[0.00010076]],MI
783,[[4]],[[784]],[[4]],['low holistic'],['right'],['upright'],['U0061.bmp'],['female'],[],['male'],[[0]],[[0.05947406]],MI
784,[[4]],[[785]],[[14]],['high holistic'],['left'],['inverted'],['U0228.bmp'],['male'],[],['female'],[[0]],[[0.00844249]],MI
785,[[4]],[[786]],[[3]],['high holistic'],['left'],['inverted'],['U0020.bmp'],['male'],[],['female'],[[0]],[[0.00010798]],MI
786,[[4]],[[787]],[[18]],['low holistic'],['left'],['upright'],['U0359.bmp'],['male'],[],['male'],[[1]],[[0.24692714]],MI
787,[[4]],[[788]],[[14]],['low holistic'],['right'],['inverted'],['U0228.bmp'],['male'],[],['male'],[[1]],[[0.1667062]],MI
788,[[4]],[[789]],[[4]],['high holistic'],['right'],['inverted'],['U0061.bmp'],['female'],[],['male'],[[0]],[[0.00010084]],MI
789,[[4]],[[790]],[[10]],['high holistic'],['right'],['inverted'],['U0159.bmp'],['male'],[],['male'],[[1]],[[9.99663025e-05]],MI
790,[[4]],[[791]],[[6]],['low holistic'],['right'],['inverted'],['U0106.bmp'],['male'],[],['male'],[[1]],[[0.00021332]],MI
791,[[4]],[[792]],[[17]],['low holistic'],['left'],['upright'],['U0346.bmp'],['female'],[],['female'],[[1]],[[0.19881819]],MI
792,[[4]],[[793]],[[2]],['low holistic'],['right'],['upright'],['U0014.bmp'],['male'],[],['male'],[[1]],[[0.00010922]],MI
793,[[4]],[[794]],[[12]],['high holistic'],['fovea'],['inverted'],['U0178.bmp'],['male'],[],['female'],[[0]],[[0.02764179]],MI
794,[[4]],[[795]],[[12]],['low holistic'],['right'],['upright'],['U0178.bmp'],['female'],[],['male'],[[0]],[[0.00287776]],MI
795,[[4]],[[796]],[[12]],['low holistic'],['right'],['inverted'],['U0178.bmp'],['female'],[],['female'],[[1]],[[0.14001243]],MI
796,[[4]],[[797]],[[6]],['low holistic'],['right'],['upright'],['U0106.bmp'],['male'],[],['male'],[[1]],[[0.06011526]],MI
797,[[4]],[[798]],[[11]],['low holistic'],['left'],['upright'],['U0164.bmp'],['female'],[],['female'],[[1]],[[0.03563283]],MI
798,[[4]],[[799]],[[11]],['high holistic'],['left'],['inverted'],['U0164.bmp'],['female'],[],['male'],[[0]],[[0.00010121]],MI
799,[[4]],[[800]],[[11]],['high holistic'],['left'],['upright'],['U0164.bmp'],['female'],[],['male'],[[0]],[[0.03263622]],MI
