,SUBID,TRIAL,MOONEYID,MOONEYCATEGORY,LOC,COND,MOONEY_NAME,MOONEY_GENDER,ECCENTRICITY,RESPONSE,ACCURACY,RT,SUBINIT
0,[[4]],[[1]],[[6]],['high holistic'],['right'],['inverted'],['U0106.bmp'],['female'],[[6]],['female'],[[1]],[[0.62935407]],MP
1,[[4]],[[2]],[[5]],['low holistic'],['right'],['upright'],['U0076.bmp'],['male'],[[4]],['male'],[[1]],[[0.53294268]],MP
2,[[4]],[[3]],[[20]],['high holistic'],['right'],['upright'],['U0362.bmp'],['female'],[[8]],['female'],[[1]],[[0.50258959]],MP
3,[[4]],[[4]],[[8]],['low holistic'],['left'],['inverted'],['U0137.bmp'],['male'],[[10]],['male'],[[1]],[[0.9231824]],MP
4,[[4]],[[5]],[[3]],['low holistic'],['right'],['inverted'],['U0020.bmp'],['female'],[[10]],['female'],[[1]],[[1.05585155]],MP
5,[[4]],[[6]],[[1]],['low holistic'],['right'],['inverted'],['U0006.bmp'],['female'],[[4]],['female'],[[1]],[[0.33279935]],MP
6,[[4]],[[7]],[[1]],['high holistic'],['right'],['inverted'],['U0006.bmp'],['female'],[[2]],['female'],[[1]],[[0.2623633]],MP
7,[[4]],[[8]],[[18]],['high holistic'],['left'],['inverted'],['U0359.bmp'],['male'],[[2]],['female'],[[0]],[[0.22241193]],MP
8,[[4]],[[9]],[[17]],['high holistic'],['left'],['inverted'],['U0346.bmp'],['male'],[[8]],['female'],[[0]],[[0.18778843]],MP
9,[[4]],[[10]],[[5]],['high holistic'],['left'],['inverted'],['U0076.bmp'],['female'],[[10]],['male'],[[0]],[[0.17989198]],MP
10,[[4]],[[11]],[[4]],['high holistic'],['right'],['upright'],['U0061.bmp'],['female'],[[2]],['female'],[[1]],[[0.15718273]],MP
11,[[4]],[[12]],[[6]],['high holistic'],['right'],['inverted'],['U0106.bmp'],['female'],[[2]],['female'],[[1]],[[0.24052886]],MP
12,[[4]],[[13]],[[1]],['low holistic'],['left'],['inverted'],['U0006.bmp'],['female'],[[2]],['female'],[[1]],[[0.37365131]],MP
13,[[4]],[[14]],[[5]],['high holistic'],['left'],['inverted'],['U0076.bmp'],['female'],[[10]],['female'],[[1]],[[0.56573126]],MP
14,[[4]],[[15]],[[20]],['high holistic'],['right'],['upright'],['U0362.bmp'],['female'],[[6]],['female'],[[1]],[[0.06442813]],MP
15,[[4]],[[16]],[[14]],['high holistic'],['right'],['inverted'],['U0228.bmp'],['male'],[[12]],['male'],[[1]],[[0.2867301]],MP
16,[[4]],[[17]],[[13]],['high holistic'],['right'],['upright'],['U0181.bmp'],['female'],[[6]],['female'],[[1]],[[0.84231863]],MP
17,[[4]],[[18]],[[15]],['high holistic'],['left'],['inverted'],['U0312.bmp'],['male'],[[12]],['female'],[[0]],[[0.6085715]],MP
18,[[4]],[[19]],[[8]],['high holistic'],['right'],['upright'],['U0137.bmp'],['female'],[[8]],['female'],[[1]],[[0.88255005]],MP
19,[[4]],[[20]],[[4]],['low holistic'],['left'],['inverted'],['U0061.bmp'],['female'],[[10]],['male'],[[0]],[[0.52584233]],MP
20,[[4]],[[21]],[[20]],['high holistic'],['right'],['upright'],['U0362.bmp'],['female'],[[12]],['female'],[[1]],[[0.94534392]],MP
21,[[4]],[[22]],[[2]],['high holistic'],['left'],['inverted'],['U0014.bmp'],['male'],[[4]],['female'],[[0]],[[0.93052795]],MP
22,[[4]],[[23]],[[3]],['low holistic'],['left'],['upright'],['U0020.bmp'],['female'],[[4]],['male'],[[0]],[[0.18958644]],MP
23,[[4]],[[24]],[[15]],['low holistic'],['right'],['upright'],['U0312.bmp'],['male'],[[12]],['male'],[[1]],[[0.46306495]],MP
24,[[4]],[[25]],[[10]],['low holistic'],['right'],['upright'],['U0159.bmp'],['female'],[[10]],['female'],[[1]],[[0.19531878]],MP
25,[[4]],[[26]],[[20]],['high holistic'],['left'],['inverted'],['U0362.bmp'],['female'],[[8]],['male'],[[0]],[[0.5161621]],MP
26,[[4]],[[27]],[[15]],['low holistic'],['fovea'],['inverted'],['U0312.bmp'],['male'],[[0]],['male'],[[1]],[[0.9758017]],MP
27,[[4]],[[28]],[[8]],['low holistic'],['left'],['inverted'],['U0137.bmp'],['male'],[[2]],['male'],[[1]],[[0.30372641]],MP
28,[[4]],[[29]],[[13]],['low holistic'],['left'],['inverted'],['U0181.bmp'],['male'],[[6]],['male'],[[1]],[[0.3483738]],MP
29,[[4]],[[30]],[[20]],['high holistic'],['left'],['inverted'],['U0362.bmp'],['female'],[[2]],['female'],[[1]],[[0.6461823]],MP
30,[[4]],[[31]],[[14]],['high holistic'],['left'],['inverted'],['U0228.bmp'],['male'],[[2]],['female'],[[0]],[[1.10836033]],MP
31,[[4]],[[32]],[[3]],['high holistic'],['left'],['inverted'],['U0020.bmp'],['male'],[[10]],['female'],[[0]],[[0.31347009]],MP
32,[[4]],[[33]],[[2]],['high holistic'],['right'],['inverted'],['U0014.bmp'],['male'],[[8]],['female'],[[0]],[[1.10841979]],MP
33,[[4]],[[34]],[[9]],['high holistic'],['left'],['upright'],['U0155.bmp'],['female'],[[12]],['female'],[[1]],[[1.13602331]],MP
34,[[4]],[[35]],[[7]],['high holistic'],['right'],['inverted'],['U0107.bmp'],['female'],[[6]],['female'],[[1]],[[0.15368335]],MP
35,[[4]],[[36]],[[1]],['high holistic'],['left'],['inverted'],['U0006.bmp'],['female'],[[8]],['female'],[[1]],[[0.52346565]],MP
36,[[4]],[[37]],[[4]],['low holistic'],['right'],['inverted'],['U0061.bmp'],['female'],[[12]],['female'],[[1]],[[0.69463091]],MP
37,[[4]],[[38]],[[16]],['high holistic'],['right'],['inverted'],['U0335.bmp'],['female'],[[2]],['female'],[[1]],[[0.30773262]],MP
38,[[4]],[[39]],[[20]],['low holistic'],['left'],['upright'],['U0362.bmp'],['male'],[[8]],['male'],[[1]],[[0.33454223]],MP
39,[[4]],[[40]],[[15]],['low holistic'],['right'],['upright'],['U0312.bmp'],['male'],[[12]],['male'],[[1]],[[1.1928733]],MP
40,[[4]],[[41]],[[8]],['low holistic'],['right'],['upright'],['U0137.bmp'],['male'],[[8]],['male'],[[1]],[[1.28921536]],MP
41,[[4]],[[42]],[[8]],['high holistic'],['left'],['inverted'],['U0137.bmp'],['female'],[[10]],['female'],[[1]],[[0.40535992]],MP
42,[[4]],[[43]],[[4]],['low holistic'],['fovea'],['upright'],['U0061.bmp'],['female'],[[0]],['female'],[[1]],[[0.31064596]],MP
43,[[4]],[[44]],[[15]],['high holistic'],['left'],['inverted'],['U0312.bmp'],['male'],[[6]],['female'],[[0]],[[0.34535556]],MP
44,[[4]],[[45]],[[11]],['high holistic'],['right'],['upright'],['U0164.bmp'],['female'],[[12]],['female'],[[1]],[[0.4438344]],MP
45,[[4]],[[46]],[[2]],['low holistic'],['right'],['upright'],['U0014.bmp'],['male'],[[4]],['female'],[[0]],[[0.60230742]],MP
46,[[4]],[[47]],[[7]],['low holistic'],['right'],['inverted'],['U0107.bmp'],['female'],[[4]],['female'],[[1]],[[0.20226817]],MP
47,[[4]],[[48]],[[9]],['low holistic'],['right'],['inverted'],['U0155.bmp'],['male'],[[8]],['female'],[[0]],[[0.24435574]],MP
48,[[4]],[[49]],[[9]],['high holistic'],['right'],['inverted'],['U0155.bmp'],['female'],[[6]],['male'],[[0]],[[0.75264144]],MP
49,[[4]],[[50]],[[12]],['low holistic'],['left'],['inverted'],['U0178.bmp'],['female'],[[10]],['female'],[[1]],[[0.08353694]],MP
50,[[4]],[[51]],[[11]],['low holistic'],['right'],['inverted'],['U0164.bmp'],['female'],[[10]],['female'],[[1]],[[0.86438505]],MP
51,[[4]],[[52]],[[9]],['high holistic'],['left'],['upright'],['U0155.bmp'],['female'],[[2]],['female'],[[1]],[[0.34869995]],MP
52,[[4]],[[53]],[[15]],['low holistic'],['right'],['upright'],['U0312.bmp'],['male'],[[6]],['male'],[[1]],[[0.22416806]],MP
53,[[4]],[[54]],[[9]],['high holistic'],['right'],['upright'],['U0155.bmp'],['female'],[[2]],['female'],[[1]],[[0.38097971]],MP
54,[[4]],[[55]],[[8]],['low holistic'],['left'],['upright'],['U0137.bmp'],['male'],[[2]],['male'],[[1]],[[0.73516264]],MP
55,[[4]],[[56]],[[18]],['low holistic'],['right'],['upright'],['U0359.bmp'],['male'],[[8]],['male'],[[1]],[[0.75451014]],MP
56,[[4]],[[57]],[[4]],['low holistic'],['left'],['inverted'],['U0061.bmp'],['female'],[[10]],['female'],[[1]],[[0.38077835]],MP
57,[[4]],[[58]],[[10]],['high holistic'],['right'],['inverted'],['U0159.bmp'],['male'],[[6]],['male'],[[1]],[[0.19694623]],MP
58,[[4]],[[59]],[[9]],['low holistic'],['right'],['upright'],['U0155.bmp'],['male'],[[2]],['male'],[[1]],[[0.50861142]],MP
59,[[4]],[[60]],[[20]],['low holistic'],['fovea'],['upright'],['U0362.bmp'],['male'],[[0]],['male'],[[1]],[[0.32834463]],MP
60,[[4]],[[61]],[[19]],['low holistic'],['right'],['inverted'],['U0361.bmp'],['female'],[[6]],['female'],[[1]],[[0.56441466]],MP
61,[[4]],[[62]],[[17]],['low holistic'],['left'],['inverted'],['U0346.bmp'],['female'],[[10]],['female'],[[1]],[[0.29436256]],MP
62,[[4]],[[63]],[[16]],['low holistic'],['left'],['upright'],['U0335.bmp'],['female'],[[12]],['female'],[[1]],[[0.57818962]],MP
63,[[4]],[[64]],[[10]],['low holistic'],['right'],['inverted'],['U0159.bmp'],['female'],[[12]],['male'],[[0]],[[0.29839821]],MP
64,[[4]],[[65]],[[5]],['low holistic'],['fovea'],['inverted'],['U0076.bmp'],['male'],[[0]],['male'],[[1]],[[0.5731886]],MP
65,[[4]],[[66]],[[14]],['high holistic'],['left'],['inverted'],['U0228.bmp'],['male'],[[10]],['female'],[[0]],[[0.33612687]],MP
66,[[4]],[[67]],[[8]],['low holistic'],['left'],['inverted'],['U0137.bmp'],['male'],[[10]],['male'],[[1]],[[0.681177]],MP
67,[[4]],[[68]],[[9]],['high holistic'],['right'],['upright'],['U0155.bmp'],['female'],[[2]],['female'],[[1]],[[0.3594897]],MP
68,[[4]],[[69]],[[9]],['high holistic'],['right'],['inverted'],['U0155.bmp'],['female'],[[2]],['female'],[[1]],[[0.4095661]],MP
69,[[4]],[[70]],[[19]],['low holistic'],['fovea'],['upright'],['U0361.bmp'],['female'],[[0]],['female'],[[1]],[[0.30505334]],MP
70,[[4]],[[71]],[[17]],['high holistic'],['fovea'],['upright'],['U0346.bmp'],['male'],[[0]],['male'],[[1]],[[1.2021769]],MP
71,[[4]],[[72]],[[16]],['high holistic'],['left'],['upright'],['U0335.bmp'],['female'],[[6]],['female'],[[1]],[[0.33848029]],MP
72,[[4]],[[73]],[[2]],['high holistic'],['left'],['upright'],['U0014.bmp'],['male'],[[6]],['male'],[[1]],[[0.18854662]],MP
73,[[4]],[[74]],[[12]],['low holistic'],['right'],['inverted'],['U0178.bmp'],['female'],[[10]],['female'],[[1]],[[1.08505112]],MP
74,[[4]],[[75]],[[16]],['high holistic'],['right'],['inverted'],['U0335.bmp'],['female'],[[6]],['male'],[[0]],[[0.99534893]],MP
75,[[4]],[[76]],[[4]],['high holistic'],['right'],['inverted'],['U0061.bmp'],['female'],[[6]],['female'],[[1]],[[0.45903914]],MP
76,[[4]],[[77]],[[20]],['high holistic'],['left'],['inverted'],['U0362.bmp'],['female'],[[8]],['male'],[[0]],[[0.2646984]],MP
77,[[4]],[[78]],[[2]],['low holistic'],['left'],['upright'],['U0014.bmp'],['male'],[[8]],['male'],[[1]],[[0.33461111]],MP
78,[[4]],[[79]],[[16]],['low holistic'],['right'],['upright'],['U0335.bmp'],['female'],[[4]],['female'],[[1]],[[0.43350798]],MP
79,[[4]],[[80]],[[13]],['low holistic'],['right'],['upright'],['U0181.bmp'],['male'],[[4]],['male'],[[1]],[[0.60125666]],MP
80,[[4]],[[81]],[[10]],['low holistic'],['right'],['upright'],['U0159.bmp'],['female'],[[10]],['female'],[[1]],[[0.10572072]],MP
81,[[4]],[[82]],[[20]],['high holistic'],['right'],['upright'],['U0362.bmp'],['female'],[[4]],['female'],[[1]],[[1.70947032]],MP
82,[[4]],[[83]],[[6]],['low holistic'],['right'],['inverted'],['U0106.bmp'],['male'],[[12]],['male'],[[1]],[[0.44754498]],MP
83,[[4]],[[84]],[[7]],['high holistic'],['left'],['upright'],['U0107.bmp'],['female'],[[6]],['female'],[[1]],[[1.15094286]],MP
84,[[4]],[[85]],[[10]],['high holistic'],['right'],['upright'],['U0159.bmp'],['male'],[[8]],['male'],[[1]],[[0.38438924]],MP
85,[[4]],[[86]],[[17]],['high holistic'],['right'],['inverted'],['U0346.bmp'],['male'],[[4]],['female'],[[0]],[[0.5613063]],MP
86,[[4]],[[87]],[[3]],['low holistic'],['left'],['upright'],['U0020.bmp'],['female'],[[6]],['male'],[[0]],[[0.30734381]],MP
87,[[4]],[[88]],[[3]],['low holistic'],['left'],['inverted'],['U0020.bmp'],['female'],[[4]],['female'],[[1]],[[0.55008311]],MP
88,[[4]],[[89]],[[10]],['high holistic'],['right'],['upright'],['U0159.bmp'],['male'],[[6]],['male'],[[1]],[[0.60126368]],MP
89,[[4]],[[90]],[[12]],['high holistic'],['left'],['inverted'],['U0178.bmp'],['male'],[[4]],['female'],[[0]],[[0.39245714]],MP
90,[[4]],[[91]],[[16]],['low holistic'],['left'],['inverted'],['U0335.bmp'],['female'],[[2]],['male'],[[0]],[[0.65533236]],MP
91,[[4]],[[92]],[[9]],['high holistic'],['left'],['inverted'],['U0155.bmp'],['female'],[[6]],['female'],[[1]],[[0.38994239]],MP
92,[[4]],[[93]],[[12]],['low holistic'],['right'],['upright'],['U0178.bmp'],['female'],[[10]],['female'],[[1]],[[0.20760038]],MP
93,[[4]],[[94]],[[19]],['low holistic'],['right'],['inverted'],['U0361.bmp'],['female'],[[4]],['female'],[[1]],[[0.46916017]],MP
94,[[4]],[[95]],[[11]],['low holistic'],['left'],['upright'],['U0164.bmp'],['female'],[[6]],['male'],[[0]],[[0.6999384]],MP
95,[[4]],[[96]],[[10]],['high holistic'],['right'],['upright'],['U0159.bmp'],['male'],[[6]],['male'],[[1]],[[1.238173]],MP
96,[[4]],[[97]],[[5]],['low holistic'],['left'],['inverted'],['U0076.bmp'],['male'],[[8]],['male'],[[1]],[[0.42932173]],MP
97,[[4]],[[98]],[[16]],['low holistic'],['right'],['upright'],['U0335.bmp'],['female'],[[4]],['female'],[[1]],[[0.04450424]],MP
98,[[4]],[[99]],[[15]],['high holistic'],['left'],['inverted'],['U0312.bmp'],['male'],[[10]],['male'],[[1]],[[0.19656177]],MP
99,[[4]],[[100]],[[2]],['high holistic'],['left'],['upright'],['U0014.bmp'],['male'],[[10]],['male'],[[1]],[[2.44414312]],MP
100,[[4]],[[101]],[[10]],['low holistic'],['left'],['upright'],['U0159.bmp'],['female'],[[6]],['female'],[[1]],[[0.11306768]],MP
101,[[4]],[[102]],[[3]],['low holistic'],['fovea'],['inverted'],['U0020.bmp'],['female'],[[0]],['female'],[[1]],[[0.55588271]],MP
102,[[4]],[[103]],[[4]],['low holistic'],['left'],['upright'],['U0061.bmp'],['female'],[[12]],['male'],[[0]],[[0.23143395]],MP
103,[[4]],[[104]],[[16]],['high holistic'],['right'],['inverted'],['U0335.bmp'],['female'],[[10]],['female'],[[1]],[[0.96478062]],MP
104,[[4]],[[105]],[[17]],['high holistic'],['left'],['upright'],['U0346.bmp'],['male'],[[6]],['male'],[[1]],[[0.27871791]],MP
105,[[4]],[[106]],[[13]],['high holistic'],['left'],['inverted'],['U0181.bmp'],['female'],[[6]],['female'],[[1]],[[0.89924477]],MP
106,[[4]],[[107]],[[11]],['high holistic'],['left'],['upright'],['U0164.bmp'],['female'],[[2]],['male'],[[0]],[[0.359957]],MP
107,[[4]],[[108]],[[14]],['low holistic'],['left'],['inverted'],['U0228.bmp'],['male'],[[6]],['male'],[[1]],[[0.29877057]],MP
108,[[4]],[[109]],[[20]],['high holistic'],['left'],['upright'],['U0362.bmp'],['female'],[[6]],['female'],[[1]],[[0.05259655]],MP
109,[[4]],[[110]],[[3]],['high holistic'],['right'],['inverted'],['U0020.bmp'],['male'],[[4]],['female'],[[0]],[[0.48299649]],MP
110,[[4]],[[111]],[[14]],['low holistic'],['right'],['upright'],['U0228.bmp'],['male'],[[12]],['male'],[[1]],[[0.47158798]],MP
111,[[4]],[[112]],[[8]],['high holistic'],['right'],['inverted'],['U0137.bmp'],['female'],[[12]],['male'],[[0]],[[0.72536341]],MP
112,[[4]],[[113]],[[18]],['low holistic'],['left'],['upright'],['U0359.bmp'],['male'],[[12]],['male'],[[1]],[[0.48867755]],MP
113,[[4]],[[114]],[[8]],['low holistic'],['left'],['inverted'],['U0137.bmp'],['male'],[[4]],['male'],[[1]],[[1.80335506]],MP
114,[[4]],[[115]],[[14]],['high holistic'],['left'],['upright'],['U0228.bmp'],['male'],[[6]],['male'],[[1]],[[1.3640564]],MP
115,[[4]],[[116]],[[18]],['low holistic'],['right'],['inverted'],['U0359.bmp'],['male'],[[10]],['male'],[[1]],[[0.19725189]],MP
116,[[4]],[[117]],[[7]],['high holistic'],['left'],['upright'],['U0107.bmp'],['female'],[[4]],['female'],[[1]],[[0.60445917]],MP
117,[[4]],[[118]],[[12]],['low holistic'],['left'],['inverted'],['U0178.bmp'],['female'],[[12]],['female'],[[1]],[[1.30965526]],MP
118,[[4]],[[119]],[[18]],['high holistic'],['left'],['inverted'],['U0359.bmp'],['male'],[[4]],['female'],[[0]],[[0.44165004]],MP
119,[[4]],[[120]],[[4]],['low holistic'],['right'],['upright'],['U0061.bmp'],['female'],[[4]],['female'],[[1]],[[0.23926045]],MP
120,[[4]],[[121]],[[9]],['low holistic'],['right'],['inverted'],['U0155.bmp'],['male'],[[4]],['male'],[[1]],[[0.7740974]],MP
121,[[4]],[[122]],[[6]],['high holistic'],['left'],['inverted'],['U0106.bmp'],['female'],[[2]],['female'],[[1]],[[1.47007955]],MP
122,[[4]],[[123]],[[1]],['high holistic'],['left'],['upright'],['U0006.bmp'],['female'],[[4]],['female'],[[1]],[[2.07577933]],MP
123,[[4]],[[124]],[[16]],['low holistic'],['left'],['inverted'],['U0335.bmp'],['female'],[[2]],['female'],[[1]],[[0.32860579]],MP
124,[[4]],[[125]],[[1]],['low holistic'],['right'],['upright'],['U0006.bmp'],['female'],[[10]],['female'],[[1]],[[0.21096153]],MP
125,[[4]],[[126]],[[17]],['high holistic'],['right'],['upright'],['U0346.bmp'],['male'],[[10]],['male'],[[1]],[[0.45780146]],MP
126,[[4]],[[127]],[[4]],['high holistic'],['right'],['upright'],['U0061.bmp'],['female'],[[6]],['female'],[[1]],[[0.21413963]],MP
127,[[4]],[[128]],[[3]],['low holistic'],['left'],['inverted'],['U0020.bmp'],['female'],[[4]],['female'],[[1]],[[0.59131793]],MP
128,[[4]],[[129]],[[2]],['high holistic'],['right'],['upright'],['U0014.bmp'],['male'],[[2]],['male'],[[1]],[[0.11338755]],MP
129,[[4]],[[130]],[[4]],['low holistic'],['right'],['upright'],['U0061.bmp'],['female'],[[8]],['female'],[[1]],[[0.34765777]],MP
130,[[4]],[[131]],[[20]],['high holistic'],['left'],['upright'],['U0362.bmp'],['female'],[[4]],['female'],[[1]],[[0.30395374]],MP
131,[[4]],[[132]],[[11]],['high holistic'],['fovea'],['inverted'],['U0164.bmp'],['female'],[[0]],['female'],[[1]],[[0.13105769]],MP
132,[[4]],[[133]],[[20]],['low holistic'],['right'],['inverted'],['U0362.bmp'],['male'],[[10]],['male'],[[1]],[[0.06306141]],MP
133,[[4]],[[134]],[[14]],['high holistic'],['left'],['upright'],['U0228.bmp'],['male'],[[6]],['male'],[[1]],[[0.08503172]],MP
134,[[4]],[[135]],[[3]],['low holistic'],['right'],['inverted'],['U0020.bmp'],['female'],[[12]],['female'],[[1]],[[0.16895354]],MP
135,[[4]],[[136]],[[7]],['low holistic'],['left'],['inverted'],['U0107.bmp'],['female'],[[12]],['female'],[[1]],[[0.42613733]],MP
136,[[4]],[[137]],[[2]],['low holistic'],['left'],['upright'],['U0014.bmp'],['male'],[[12]],['male'],[[1]],[[0.15351999]],MP
137,[[4]],[[138]],[[5]],['high holistic'],['right'],['inverted'],['U0076.bmp'],['female'],[[12]],['male'],[[0]],[[0.12304705]],MP
138,[[4]],[[139]],[[1]],['low holistic'],['right'],['upright'],['U0006.bmp'],['female'],[[4]],['female'],[[1]],[[0.0001054]],MP
139,[[4]],[[140]],[[5]],['low holistic'],['left'],['upright'],['U0076.bmp'],['male'],[[2]],['male'],[[1]],[[0.23040319]],MP
140,[[4]],[[141]],[[19]],['high holistic'],['left'],['inverted'],['U0361.bmp'],['female'],[[2]],['male'],[[0]],[[1.03706058]],MP
141,[[4]],[[142]],[[5]],['high holistic'],['right'],['inverted'],['U0076.bmp'],['female'],[[12]],['female'],[[1]],[[0.63594176]],MP
142,[[4]],[[143]],[[6]],['low holistic'],['left'],['upright'],['U0106.bmp'],['male'],[[12]],['male'],[[1]],[[0.27429704]],MP
143,[[4]],[[144]],[[2]],['low holistic'],['right'],['upright'],['U0014.bmp'],['male'],[[4]],['male'],[[1]],[[0.09424792]],MP
144,[[4]],[[145]],[[6]],['high holistic'],['left'],['upright'],['U0106.bmp'],['female'],[[12]],['female'],[[1]],[[0.11467257]],MP
145,[[4]],[[146]],[[20]],['high holistic'],['right'],['upright'],['U0362.bmp'],['female'],[[6]],['female'],[[1]],[[0.39168739]],MP
146,[[4]],[[147]],[[18]],['low holistic'],['left'],['inverted'],['U0359.bmp'],['male'],[[10]],['male'],[[1]],[[0.15107242]],MP
147,[[4]],[[148]],[[11]],['high holistic'],['right'],['upright'],['U0164.bmp'],['female'],[[4]],['male'],[[0]],[[0.67390702]],MP
148,[[4]],[[149]],[[12]],['low holistic'],['left'],['upright'],['U0178.bmp'],['female'],[[10]],['female'],[[1]],[[0.1575217]],MP
149,[[4]],[[150]],[[16]],['high holistic'],['left'],['inverted'],['U0335.bmp'],['female'],[[4]],['female'],[[1]],[[0.52721036]],MP
150,[[4]],[[151]],[[6]],['low holistic'],['left'],['upright'],['U0106.bmp'],['male'],[[4]],['male'],[[1]],[[0.16316429]],MP
151,[[4]],[[152]],[[6]],['low holistic'],['left'],['upright'],['U0106.bmp'],['male'],[[2]],['male'],[[1]],[[0.09959755]],MP
152,[[4]],[[153]],[[19]],['high holistic'],['right'],['inverted'],['U0361.bmp'],['female'],[[12]],['female'],[[1]],[[0.01544209]],MP
153,[[4]],[[154]],[[2]],['low holistic'],['left'],['inverted'],['U0014.bmp'],['male'],[[10]],['male'],[[1]],[[0.1270615]],MP
154,[[4]],[[155]],[[9]],['low holistic'],['left'],['upright'],['U0155.bmp'],['male'],[[10]],['male'],[[1]],[[0.81077426]],MP
155,[[4]],[[156]],[[18]],['low holistic'],['right'],['upright'],['U0359.bmp'],['male'],[[10]],['male'],[[1]],[[1.66737274]],MP
156,[[4]],[[157]],[[12]],['high holistic'],['left'],['inverted'],['U0178.bmp'],['male'],[[2]],['male'],[[1]],[[0.46281228]],MP
157,[[4]],[[158]],[[20]],['high holistic'],['left'],['upright'],['U0362.bmp'],['female'],[[8]],['female'],[[1]],[[1.02103075]],MP
158,[[4]],[[159]],[[10]],['high holistic'],['right'],['inverted'],['U0159.bmp'],['male'],[[4]],['female'],[[0]],[[0.43671366]],MP
159,[[4]],[[160]],[[6]],['high holistic'],['right'],['upright'],['U0106.bmp'],['female'],[[4]],['female'],[[1]],[[0.24240581]],MP
160,[[4]],[[161]],[[9]],['high holistic'],['right'],['upright'],['U0155.bmp'],['female'],[[6]],['female'],[[1]],[[0.26451286]],MP
161,[[4]],[[162]],[[2]],['low holistic'],['left'],['inverted'],['U0014.bmp'],['male'],[[12]],['male'],[[1]],[[0.14928823]],MP
162,[[4]],[[163]],[[1]],['low holistic'],['right'],['upright'],['U0006.bmp'],['female'],[[2]],['female'],[[1]],[[0.14309413]],MP
163,[[4]],[[164]],[[17]],['high holistic'],['left'],['inverted'],['U0346.bmp'],['male'],[[6]],['male'],[[1]],[[0.24992969]],MP
164,[[4]],[[165]],[[2]],['high holistic'],['left'],['inverted'],['U0014.bmp'],['male'],[[6]],['male'],[[1]],[[0.24711898]],MP
165,[[4]],[[166]],[[3]],['low holistic'],['right'],['inverted'],['U0020.bmp'],['female'],[[8]],['female'],[[1]],[[0.42254961]],MP
166,[[4]],[[167]],[[11]],['low holistic'],['right'],['inverted'],['U0164.bmp'],['female'],[[10]],['female'],[[1]],[[0.42030821]],MP
167,[[4]],[[168]],[[18]],['high holistic'],['left'],['upright'],['U0359.bmp'],['male'],[[2]],['male'],[[1]],[[0.14780501]],MP
168,[[4]],[[169]],[[11]],['high holistic'],['left'],['upright'],['U0164.bmp'],['female'],[[8]],['female'],[[1]],[[0.68704912]],MP
169,[[4]],[[170]],[[16]],['low holistic'],['right'],['inverted'],['U0335.bmp'],['female'],[[10]],['female'],[[1]],[[0.30746951]],MP
170,[[4]],[[171]],[[18]],['low holistic'],['right'],['inverted'],['U0359.bmp'],['male'],[[12]],['male'],[[1]],[[0.0219806]],MP
171,[[4]],[[172]],[[1]],['high holistic'],['right'],['inverted'],['U0006.bmp'],['female'],[[10]],['female'],[[1]],[[0.13413594]],MP
172,[[4]],[[173]],[[5]],['low holistic'],['right'],['inverted'],['U0076.bmp'],['male'],[[8]],['male'],[[1]],[[0.25727158]],MP
173,[[4]],[[174]],[[4]],['low holistic'],['left'],['upright'],['U0061.bmp'],['female'],[[12]],['female'],[[1]],[[0.10133519]],MP
174,[[4]],[[175]],[[13]],['high holistic'],['right'],['upright'],['U0181.bmp'],['female'],[[12]],['female'],[[1]],[[1.40288745]],MP
175,[[4]],[[176]],[[13]],['high holistic'],['right'],['inverted'],['U0181.bmp'],['female'],[[4]],['female'],[[1]],[[0.40089288]],MP
176,[[4]],[[177]],[[18]],['high holistic'],['right'],['upright'],['U0359.bmp'],['male'],[[4]],['male'],[[1]],[[0.11406474]],MP
177,[[4]],[[178]],[[10]],['low holistic'],['left'],['upright'],['U0159.bmp'],['female'],[[2]],['female'],[[1]],[[0.10888827]],MP
178,[[4]],[[179]],[[9]],['low holistic'],['right'],['inverted'],['U0155.bmp'],['male'],[[10]],['male'],[[1]],[[0.54445773]],MP
179,[[4]],[[180]],[[12]],['high holistic'],['right'],['upright'],['U0178.bmp'],['male'],[[4]],['female'],[[0]],[[0.14648316]],MP
180,[[4]],[[181]],[[20]],['high holistic'],['right'],['upright'],['U0362.bmp'],['female'],[[6]],['female'],[[1]],[[0.23558633]],MP
181,[[4]],[[182]],[[6]],['high holistic'],['right'],['inverted'],['U0106.bmp'],['female'],[[12]],['female'],[[1]],[[0.38680552]],MP
182,[[4]],[[183]],[[13]],['low holistic'],['right'],['upright'],['U0181.bmp'],['male'],[[12]],['male'],[[1]],[[0.17103553]],MP
183,[[4]],[[184]],[[17]],['low holistic'],['right'],['upright'],['U0346.bmp'],['female'],[[10]],['female'],[[1]],[[0.43711382]],MP
184,[[4]],[[185]],[[20]],['high holistic'],['right'],['inverted'],['U0362.bmp'],['female'],[[4]],['female'],[[1]],[[0.4048403]],MP
185,[[4]],[[186]],[[3]],['low holistic'],['left'],['upright'],['U0020.bmp'],['female'],[[12]],['female'],[[1]],[[0.94614197]],MP
186,[[4]],[[187]],[[2]],['low holistic'],['left'],['upright'],['U0014.bmp'],['male'],[[10]],['male'],[[1]],[[0.6858418]],MP
187,[[4]],[[188]],[[13]],['high holistic'],['right'],['upright'],['U0181.bmp'],['female'],[[12]],['female'],[[1]],[[0.65036648]],MP
188,[[4]],[[189]],[[19]],['high holistic'],['left'],['inverted'],['U0361.bmp'],['female'],[[4]],['male'],[[0]],[[1.48911895]],MP
189,[[4]],[[190]],[[3]],['low holistic'],['left'],['upright'],['U0020.bmp'],['female'],[[6]],['female'],[[1]],[[0.29288835]],MP
190,[[4]],[[191]],[[10]],['low holistic'],['right'],['inverted'],['U0159.bmp'],['female'],[[4]],['female'],[[1]],[[0.60050093]],MP
191,[[4]],[[192]],[[14]],['high holistic'],['right'],['inverted'],['U0228.bmp'],['male'],[[12]],['male'],[[1]],[[0.99258321]],MP
192,[[4]],[[193]],[[10]],['high holistic'],['right'],['inverted'],['U0159.bmp'],['male'],[[2]],['female'],[[0]],[[0.47237145]],MP
193,[[4]],[[194]],[[19]],['low holistic'],['left'],['upright'],['U0361.bmp'],['female'],[[6]],['female'],[[1]],[[0.11753259]],MP
194,[[4]],[[195]],[[19]],['high holistic'],['left'],['inverted'],['U0361.bmp'],['female'],[[12]],['male'],[[0]],[[0.30560207]],MP
195,[[4]],[[196]],[[14]],['high holistic'],['fovea'],['inverted'],['U0228.bmp'],['male'],[[0]],['male'],[[1]],[[0.23610168]],MP
196,[[4]],[[197]],[[15]],['high holistic'],['left'],['inverted'],['U0312.bmp'],['male'],[[6]],['female'],[[0]],[[0.65041198]],MP
197,[[4]],[[198]],[[1]],['high holistic'],['left'],['upright'],['U0006.bmp'],['female'],[[12]],['female'],[[1]],[[0.50471278]],MP
198,[[4]],[[199]],[[4]],['low holistic'],['fovea'],['inverted'],['U0061.bmp'],['female'],[[0]],['female'],[[1]],[[0.2696277]],MP
199,[[4]],[[200]],[[13]],['low holistic'],['left'],['upright'],['U0181.bmp'],['male'],[[12]],['male'],[[1]],[[0.11385323]],MP
200,[[4]],[[201]],[[19]],['high holistic'],['left'],['upright'],['U0361.bmp'],['female'],[[8]],['female'],[[1]],[[0.26126448]],MP
201,[[4]],[[202]],[[18]],['high holistic'],['right'],['upright'],['U0359.bmp'],['male'],[[8]],['male'],[[1]],[[0.25870413]],MP
202,[[4]],[[203]],[[2]],['low holistic'],['right'],['inverted'],['U0014.bmp'],['male'],[[8]],['male'],[[1]],[[0.25747378]],MP
203,[[4]],[[204]],[[20]],['low holistic'],['right'],['inverted'],['U0362.bmp'],['male'],[[4]],['female'],[[0]],[[0.15000891]],MP
204,[[4]],[[205]],[[9]],['low holistic'],['right'],['inverted'],['U0155.bmp'],['male'],[[6]],['male'],[[1]],[[0.38481043]],MP
205,[[4]],[[206]],[[6]],['low holistic'],['left'],['upright'],['U0106.bmp'],['male'],[[2]],['female'],[[0]],[[0.21038776]],MP
206,[[4]],[[207]],[[13]],['high holistic'],['left'],['inverted'],['U0181.bmp'],['female'],[[2]],['female'],[[1]],[[0.6089728]],MP
207,[[4]],[[208]],[[10]],['low holistic'],['left'],['upright'],['U0159.bmp'],['female'],[[12]],['female'],[[1]],[[0.11269863]],MP
208,[[4]],[[209]],[[2]],['low holistic'],['fovea'],['inverted'],['U0014.bmp'],['male'],[[0]],['male'],[[1]],[[0.06804935]],MP
209,[[4]],[[210]],[[16]],['high holistic'],['left'],['upright'],['U0335.bmp'],['female'],[[2]],['female'],[[1]],[[0.48072693]],MP
210,[[4]],[[211]],[[15]],['high holistic'],['left'],['inverted'],['U0312.bmp'],['male'],[[8]],['male'],[[1]],[[0.6700048]],MP
211,[[4]],[[212]],[[19]],['low holistic'],['right'],['upright'],['U0361.bmp'],['female'],[[6]],['female'],[[1]],[[0.00013667]],MP
212,[[4]],[[213]],[[16]],['low holistic'],['left'],['inverted'],['U0335.bmp'],['female'],[[2]],['female'],[[1]],[[0.45131165]],MP
213,[[4]],[[214]],[[6]],['high holistic'],['left'],['upright'],['U0106.bmp'],['female'],[[12]],['male'],[[0]],[[0.03334858]],MP
214,[[4]],[[215]],[[20]],['low holistic'],['right'],['inverted'],['U0362.bmp'],['male'],[[8]],['female'],[[0]],[[0.48769224]],MP
215,[[4]],[[216]],[[13]],['low holistic'],['left'],['upright'],['U0181.bmp'],['male'],[[8]],['male'],[[1]],[[0.04388929]],MP
216,[[4]],[[217]],[[14]],['high holistic'],['left'],['upright'],['U0228.bmp'],['male'],[[4]],['male'],[[1]],[[1.79458037]],MP
217,[[4]],[[218]],[[11]],['high holistic'],['right'],['upright'],['U0164.bmp'],['female'],[[6]],['female'],[[1]],[[0.19454578]],MP
218,[[4]],[[219]],[[19]],['low holistic'],['left'],['upright'],['U0361.bmp'],['female'],[[10]],['male'],[[0]],[[0.74773451]],MP
219,[[4]],[[220]],[[4]],['high holistic'],['right'],['upright'],['U0061.bmp'],['female'],[[8]],['female'],[[1]],[[0.18081004]],MP
220,[[4]],[[221]],[[13]],['high holistic'],['right'],['inverted'],['U0181.bmp'],['female'],[[12]],['female'],[[1]],[[0.27810271]],MP
221,[[4]],[[222]],[[14]],['high holistic'],['left'],['inverted'],['U0228.bmp'],['male'],[[8]],['male'],[[1]],[[0.10673327]],MP
222,[[4]],[[223]],[[5]],['high holistic'],['fovea'],['upright'],['U0076.bmp'],['female'],[[0]],['female'],[[1]],[[0.10924761]],MP
223,[[4]],[[224]],[[6]],['high holistic'],['right'],['upright'],['U0106.bmp'],['female'],[[10]],['female'],[[1]],[[0.18679191]],MP
224,[[4]],[[225]],[[20]],['high holistic'],['right'],['inverted'],['U0362.bmp'],['female'],[[12]],['female'],[[1]],[[0.25122206]],MP
225,[[4]],[[226]],[[6]],['high holistic'],['fovea'],['inverted'],['U0106.bmp'],['female'],[[0]],['female'],[[1]],[[0.66465935]],MP
226,[[4]],[[227]],[[12]],['low holistic'],['right'],['upright'],['U0178.bmp'],['female'],[[10]],['female'],[[1]],[[0.07021268]],MP
227,[[4]],[[228]],[[5]],['low holistic'],['right'],['inverted'],['U0076.bmp'],['male'],[[12]],['male'],[[1]],[[0.13029417]],MP
228,[[4]],[[229]],[[1]],['high holistic'],['left'],['upright'],['U0006.bmp'],['female'],[[8]],['female'],[[1]],[[0.11752414]],MP
229,[[4]],[[230]],[[13]],['low holistic'],['right'],['inverted'],['U0181.bmp'],['male'],[[4]],['male'],[[1]],[[0.3604094]],MP
230,[[4]],[[231]],[[4]],['high holistic'],['right'],['upright'],['U0061.bmp'],['female'],[[12]],['female'],[[1]],[[0.37155401]],MP
231,[[4]],[[232]],[[11]],['high holistic'],['right'],['inverted'],['U0164.bmp'],['female'],[[10]],['male'],[[0]],[[0.25952738]],MP
232,[[4]],[[233]],[[7]],['low holistic'],['right'],['inverted'],['U0107.bmp'],['female'],[[2]],['female'],[[1]],[[0.73005892]],MP
233,[[4]],[[234]],[[12]],['low holistic'],['left'],['inverted'],['U0178.bmp'],['female'],[[8]],['female'],[[1]],[[0.0991677]],MP
234,[[4]],[[235]],[[19]],['low holistic'],['left'],['upright'],['U0361.bmp'],['female'],[[10]],['female'],[[1]],[[0.0392457]],MP
235,[[4]],[[236]],[[13]],['low holistic'],['right'],['upright'],['U0181.bmp'],['male'],[[8]],['male'],[[1]],[[0.01547679]],MP
236,[[4]],[[237]],[[16]],['high holistic'],['right'],['upright'],['U0335.bmp'],['female'],[[10]],['female'],[[1]],[[0.12487187]],MP
237,[[4]],[[238]],[[4]],['high holistic'],['right'],['upright'],['U0061.bmp'],['female'],[[10]],['female'],[[1]],[[0.20077754]],MP
238,[[4]],[[239]],[[19]],['low holistic'],['right'],['upright'],['U0361.bmp'],['female'],[[8]],['female'],[[1]],[[0.0023378]],MP
239,[[4]],[[240]],[[5]],['high holistic'],['right'],['inverted'],['U0076.bmp'],['female'],[[2]],['female'],[[1]],[[0.16786335]],MP
240,[[4]],[[241]],[[11]],['high holistic'],['left'],['upright'],['U0164.bmp'],['female'],[[8]],['female'],[[1]],[[0.16322039]],MP
241,[[4]],[[242]],[[7]],['high holistic'],['right'],['upright'],['U0107.bmp'],['female'],[[10]],['female'],[[1]],[[2.25113352]],MP
242,[[4]],[[243]],[[17]],['low holistic'],['left'],['upright'],['U0346.bmp'],['female'],[[10]],['female'],[[1]],[[0.1293504]],MP
243,[[4]],[[244]],[[5]],['low holistic'],['right'],['upright'],['U0076.bmp'],['male'],[[4]],['female'],[[0]],[[0.58813823]],MP
244,[[4]],[[245]],[[16]],['low holistic'],['right'],['inverted'],['U0335.bmp'],['female'],[[2]],['female'],[[1]],[[0.14837014]],MP
245,[[4]],[[246]],[[5]],['high holistic'],['right'],['upright'],['U0076.bmp'],['female'],[[12]],['female'],[[1]],[[0.02363455]],MP
246,[[4]],[[247]],[[10]],['low holistic'],['fovea'],['upright'],['U0159.bmp'],['female'],[[0]],['female'],[[1]],[[0.00026667]],MP
247,[[4]],[[248]],[[17]],['high holistic'],['right'],['upright'],['U0346.bmp'],['male'],[[4]],['male'],[[1]],[[0.2214852]],MP
248,[[4]],[[249]],[[7]],['high holistic'],['right'],['inverted'],['U0107.bmp'],['female'],[[12]],['female'],[[1]],[[0.00011333]],MP
249,[[4]],[[250]],[[9]],['low holistic'],['left'],['inverted'],['U0155.bmp'],['male'],[[8]],['female'],[[0]],[[0.47581766]],MP
250,[[4]],[[251]],[[20]],['low holistic'],['left'],['upright'],['U0362.bmp'],['male'],[[6]],['male'],[[1]],[[0.06694649]],MP
251,[[4]],[[252]],[[10]],['high holistic'],['left'],['inverted'],['U0159.bmp'],['male'],[[2]],['female'],[[0]],[[0.10317352]],MP
252,[[4]],[[253]],[[10]],['high holistic'],['right'],['inverted'],['U0159.bmp'],['male'],[[12]],['female'],[[0]],[[0.04381641]],MP
253,[[4]],[[254]],[[1]],['low holistic'],['left'],['inverted'],['U0006.bmp'],['female'],[[8]],['female'],[[1]],[[0.09658661]],MP
254,[[4]],[[255]],[[18]],['low holistic'],['right'],['inverted'],['U0359.bmp'],['male'],[[10]],['male'],[[1]],[[0.03918175]],MP
255,[[4]],[[256]],[[5]],['high holistic'],['left'],['inverted'],['U0076.bmp'],['female'],[[6]],['female'],[[1]],[[0.07480993]],MP
256,[[4]],[[257]],[[11]],['low holistic'],['right'],['upright'],['U0164.bmp'],['female'],[[12]],['female'],[[1]],[[0.19258281]],MP
257,[[4]],[[258]],[[8]],['high holistic'],['left'],['upright'],['U0137.bmp'],['female'],[[2]],['male'],[[0]],[[0.29028496]],MP
258,[[4]],[[259]],[[19]],['high holistic'],['left'],['inverted'],['U0361.bmp'],['female'],[[12]],['female'],[[1]],[[0.0952866]],MP
259,[[4]],[[260]],[[1]],['low holistic'],['right'],['inverted'],['U0006.bmp'],['female'],[[4]],['female'],[[1]],[[0.00018629]],MP
260,[[4]],[[261]],[[2]],['high holistic'],['fovea'],['inverted'],['U0014.bmp'],['male'],[[0]],['female'],[[0]],[[0.31765103]],MP
261,[[4]],[[262]],[[10]],['high holistic'],['left'],['inverted'],['U0159.bmp'],['male'],[[4]],['female'],[[0]],[[0.16907151]],MP
262,[[4]],[[263]],[[13]],['high holistic'],['right'],['inverted'],['U0181.bmp'],['female'],[[10]],['female'],[[1]],[[0.00023546]],MP
263,[[4]],[[264]],[[7]],['high holistic'],['left'],['upright'],['U0107.bmp'],['female'],[[8]],['female'],[[1]],[[0.04208199]],MP
264,[[4]],[[265]],[[17]],['low holistic'],['left'],['upright'],['U0346.bmp'],['female'],[[6]],['female'],[[1]],[[2.42488516]],MP
265,[[4]],[[266]],[[17]],['low holistic'],['right'],['inverted'],['U0346.bmp'],['female'],[[2]],['female'],[[1]],[[0.01561064]],MP
266,[[4]],[[267]],[[6]],['high holistic'],['right'],['upright'],['U0106.bmp'],['female'],[[2]],['female'],[[1]],[[0.00028366]],MP
267,[[4]],[[268]],[[6]],['low holistic'],['right'],['upright'],['U0106.bmp'],['male'],[[8]],['male'],[[1]],[[0.10313179]],MP
268,[[4]],[[269]],[[4]],['low holistic'],['fovea'],['inverted'],['U0061.bmp'],['female'],[[0]],['female'],[[1]],[[9.8110002e-05]],MP
269,[[4]],[[270]],[[4]],['high holistic'],['right'],['inverted'],['U0061.bmp'],['female'],[[10]],['female'],[[1]],[[0.12372079]],MP
270,[[4]],[[271]],[[14]],['high holistic'],['left'],['inverted'],['U0228.bmp'],['male'],[[2]],['female'],[[0]],[[0.0001914]],MP
271,[[4]],[[272]],[[3]],['high holistic'],['left'],['upright'],['U0020.bmp'],['male'],[[8]],['male'],[[1]],[[0.09519484]],MP
272,[[4]],[[273]],[[6]],['high holistic'],['left'],['upright'],['U0106.bmp'],['female'],[[6]],['female'],[[1]],[[0.0584913]],MP
273,[[4]],[[274]],[[2]],['high holistic'],['right'],['inverted'],['U0014.bmp'],['male'],[[10]],['female'],[[0]],[[0.16023002]],MP
274,[[4]],[[275]],[[19]],['high holistic'],['right'],['inverted'],['U0361.bmp'],['female'],[[10]],['male'],[[0]],[[0.12138984]],MP
275,[[4]],[[276]],[[7]],['high holistic'],['right'],['inverted'],['U0107.bmp'],['female'],[[12]],['female'],[[1]],[[0.71596483]],MP
276,[[4]],[[277]],[[9]],['high holistic'],['right'],['upright'],['U0155.bmp'],['female'],[[8]],['female'],[[1]],[[0.25616867]],MP
277,[[4]],[[278]],[[7]],['low holistic'],['left'],['upright'],['U0107.bmp'],['female'],[[2]],['female'],[[1]],[[9.80169862e-05]],MP
278,[[4]],[[279]],[[20]],['low holistic'],['left'],['inverted'],['U0362.bmp'],['male'],[[6]],['male'],[[1]],[[0.00671137]],MP
279,[[4]],[[280]],[[2]],['low holistic'],['right'],['upright'],['U0014.bmp'],['male'],[[8]],['male'],[[1]],[[0.12650281]],MP
280,[[4]],[[281]],[[18]],['high holistic'],['left'],['upright'],['U0359.bmp'],['male'],[[4]],['male'],[[1]],[[0.08125946]],MP
281,[[4]],[[282]],[[14]],['low holistic'],['right'],['upright'],['U0228.bmp'],['male'],[[2]],['female'],[[0]],[[0.23646057]],MP
282,[[4]],[[283]],[[5]],['low holistic'],['right'],['upright'],['U0076.bmp'],['male'],[[8]],['male'],[[1]],[[0.17778781]],MP
283,[[4]],[[284]],[[7]],['low holistic'],['right'],['upright'],['U0107.bmp'],['female'],[[12]],['female'],[[1]],[[0.17264167]],MP
284,[[4]],[[285]],[[8]],['high holistic'],['right'],['upright'],['U0137.bmp'],['female'],[[12]],['male'],[[0]],[[0.19658228]],MP
285,[[4]],[[286]],[[20]],['high holistic'],['right'],['upright'],['U0362.bmp'],['female'],[[6]],['female'],[[1]],[[0.18895208]],MP
286,[[4]],[[287]],[[15]],['low holistic'],['left'],['inverted'],['U0312.bmp'],['male'],[[8]],['male'],[[1]],[[0.26856617]],MP
287,[[4]],[[288]],[[14]],['high holistic'],['right'],['upright'],['U0228.bmp'],['male'],[[2]],['male'],[[1]],[[0.31393394]],MP
288,[[4]],[[289]],[[14]],['high holistic'],['right'],['inverted'],['U0228.bmp'],['male'],[[12]],['male'],[[1]],[[0.7745065]],MP
289,[[4]],[[290]],[[8]],['low holistic'],['right'],['upright'],['U0137.bmp'],['male'],[[2]],['male'],[[1]],[[3.54374027]],MP
290,[[4]],[[291]],[[19]],['low holistic'],['right'],['inverted'],['U0361.bmp'],['female'],[[4]],['female'],[[1]],[[0.287182]],MP
291,[[4]],[[292]],[[20]],['high holistic'],['left'],['upright'],['U0362.bmp'],['female'],[[12]],['female'],[[1]],[[0.3346125]],MP
292,[[4]],[[293]],[[13]],['high holistic'],['right'],['inverted'],['U0181.bmp'],['female'],[[6]],['female'],[[1]],[[0.1198815]],MP
293,[[4]],[[294]],[[19]],['low holistic'],['left'],['inverted'],['U0361.bmp'],['female'],[[4]],['female'],[[1]],[[0.06783849]],MP
294,[[4]],[[295]],[[3]],['high holistic'],['right'],['inverted'],['U0020.bmp'],['male'],[[2]],['female'],[[0]],[[0.00042447]],MP
295,[[4]],[[296]],[[10]],['low holistic'],['left'],['inverted'],['U0159.bmp'],['female'],[[6]],['female'],[[1]],[[0.03189565]],MP
296,[[4]],[[297]],[[8]],['low holistic'],['left'],['upright'],['U0137.bmp'],['male'],[[12]],['male'],[[1]],[[0.00030185]],MP
297,[[4]],[[298]],[[8]],['low holistic'],['right'],['inverted'],['U0137.bmp'],['male'],[[10]],['male'],[[1]],[[0.2795306]],MP
298,[[4]],[[299]],[[4]],['high holistic'],['right'],['inverted'],['U0061.bmp'],['female'],[[6]],['female'],[[1]],[[0.22853436]],MP
299,[[4]],[[300]],[[6]],['low holistic'],['left'],['upright'],['U0106.bmp'],['male'],[[6]],['male'],[[1]],[[0.49916595]],MP
300,[[4]],[[301]],[[1]],['low holistic'],['left'],['inverted'],['U0006.bmp'],['female'],[[12]],['male'],[[0]],[[1.04841815]],MP
301,[[4]],[[302]],[[7]],['low holistic'],['left'],['inverted'],['U0107.bmp'],['female'],[[12]],['female'],[[1]],[[0.24539276]],MP
302,[[4]],[[303]],[[5]],['high holistic'],['right'],['upright'],['U0076.bmp'],['female'],[[8]],['female'],[[1]],[[0.61792079]],MP
303,[[4]],[[304]],[[1]],['high holistic'],['right'],['upright'],['U0006.bmp'],['female'],[[6]],['female'],[[1]],[[0.51467749]],MP
304,[[4]],[[305]],[[19]],['low holistic'],['right'],['inverted'],['U0361.bmp'],['female'],[[12]],['female'],[[1]],[[0.02274025]],MP
305,[[4]],[[306]],[[18]],['low holistic'],['left'],['upright'],['U0359.bmp'],['male'],[[6]],['female'],[[0]],[[0.26071294]],MP
306,[[4]],[[307]],[[11]],['low holistic'],['left'],['inverted'],['U0164.bmp'],['female'],[[4]],['female'],[[1]],[[0.24957004]],MP
307,[[4]],[[308]],[[6]],['low holistic'],['left'],['inverted'],['U0106.bmp'],['male'],[[4]],['male'],[[1]],[[0.18532768]],MP
308,[[4]],[[309]],[[20]],['high holistic'],['left'],['upright'],['U0362.bmp'],['female'],[[12]],['female'],[[1]],[[0.13795379]],MP
309,[[4]],[[310]],[[9]],['high holistic'],['right'],['upright'],['U0155.bmp'],['female'],[[6]],['female'],[[1]],[[0.13974694]],MP
310,[[4]],[[311]],[[19]],['low holistic'],['right'],['inverted'],['U0361.bmp'],['female'],[[2]],['female'],[[1]],[[0.15643533]],MP
311,[[4]],[[312]],[[13]],['high holistic'],['left'],['inverted'],['U0181.bmp'],['female'],[[4]],['female'],[[1]],[[0.13554191]],MP
312,[[4]],[[313]],[[8]],['low holistic'],['left'],['inverted'],['U0137.bmp'],['male'],[[4]],['male'],[[1]],[[1.52167818]],MP
313,[[4]],[[314]],[[5]],['low holistic'],['left'],['upright'],['U0076.bmp'],['male'],[[10]],['male'],[[1]],[[0.10847827]],MP
314,[[4]],[[315]],[[19]],['low holistic'],['right'],['upright'],['U0361.bmp'],['female'],[[4]],['female'],[[1]],[[0.06590904]],MP
315,[[4]],[[316]],[[3]],['high holistic'],['fovea'],['inverted'],['U0020.bmp'],['male'],[[0]],['female'],[[0]],[[0.00674316]],MP
316,[[4]],[[317]],[[17]],['low holistic'],['right'],['inverted'],['U0346.bmp'],['female'],[[8]],['female'],[[1]],[[0.27013871]],MP
317,[[4]],[[318]],[[14]],['high holistic'],['right'],['inverted'],['U0228.bmp'],['male'],[[4]],['male'],[[1]],[[0.24271465]],MP
318,[[4]],[[319]],[[1]],['high holistic'],['left'],['upright'],['U0006.bmp'],['female'],[[8]],['female'],[[1]],[[0.09051012]],MP
319,[[4]],[[320]],[[4]],['low holistic'],['left'],['upright'],['U0061.bmp'],['female'],[[12]],['male'],[[0]],[[0.17282715]],MP
320,[[4]],[[321]],[[5]],['high holistic'],['right'],['inverted'],['U0076.bmp'],['female'],[[4]],['female'],[[1]],[[2.60760648]],MP
321,[[4]],[[322]],[[20]],['high holistic'],['right'],['upright'],['U0362.bmp'],['female'],[[12]],['female'],[[1]],[[0.03833705]],MP
322,[[4]],[[323]],[[17]],['high holistic'],['right'],['inverted'],['U0346.bmp'],['male'],[[2]],['male'],[[1]],[[0.07641431]],MP
323,[[4]],[[324]],[[7]],['high holistic'],['right'],['upright'],['U0107.bmp'],['female'],[[6]],['female'],[[1]],[[0.23259097]],MP
324,[[4]],[[325]],[[3]],['low holistic'],['right'],['upright'],['U0020.bmp'],['female'],[[8]],['female'],[[1]],[[0.11204468]],MP
325,[[4]],[[326]],[[5]],['high holistic'],['right'],['inverted'],['U0076.bmp'],['female'],[[10]],['female'],[[1]],[[0.05299356]],MP
326,[[4]],[[327]],[[8]],['low holistic'],['right'],['upright'],['U0137.bmp'],['male'],[[12]],['male'],[[1]],[[0.07287473]],MP
327,[[4]],[[328]],[[12]],['high holistic'],['fovea'],['inverted'],['U0178.bmp'],['male'],[[0]],['female'],[[0]],[[0.00010929]],MP
328,[[4]],[[329]],[[4]],['high holistic'],['right'],['inverted'],['U0061.bmp'],['female'],[[12]],['female'],[[1]],[[0.12714351]],MP
329,[[4]],[[330]],[[3]],['high holistic'],['right'],['upright'],['U0020.bmp'],['male'],[[2]],['female'],[[0]],[[0.02508364]],MP
330,[[4]],[[331]],[[10]],['low holistic'],['left'],['upright'],['U0159.bmp'],['female'],[[10]],['male'],[[0]],[[0.02398199]],MP
331,[[4]],[[332]],[[20]],['high holistic'],['right'],['inverted'],['U0362.bmp'],['female'],[[12]],['female'],[[1]],[[0.06441296]],MP
332,[[4]],[[333]],[[19]],['low holistic'],['left'],['inverted'],['U0361.bmp'],['female'],[[10]],['female'],[[1]],[[0.67620789]],MP
333,[[4]],[[334]],[[6]],['high holistic'],['left'],['inverted'],['U0106.bmp'],['female'],[[8]],['female'],[[1]],[[0.57099556]],MP
334,[[4]],[[335]],[[10]],['low holistic'],['right'],['inverted'],['U0159.bmp'],['female'],[[6]],['female'],[[1]],[[0.04285164]],MP
335,[[4]],[[336]],[[3]],['low holistic'],['left'],['inverted'],['U0020.bmp'],['female'],[[12]],['female'],[[1]],[[0.05001272]],MP
336,[[4]],[[337]],[[5]],['low holistic'],['left'],['inverted'],['U0076.bmp'],['male'],[[2]],['male'],[[1]],[[0.12832543]],MP
337,[[4]],[[338]],[[12]],['high holistic'],['left'],['upright'],['U0178.bmp'],['male'],[[4]],['female'],[[0]],[[0.15606248]],MP
338,[[4]],[[339]],[[12]],['high holistic'],['left'],['inverted'],['U0178.bmp'],['male'],[[10]],['male'],[[1]],[[0.24452176]],MP
339,[[4]],[[340]],[[11]],['high holistic'],['right'],['inverted'],['U0164.bmp'],['female'],[[10]],['female'],[[1]],[[0.15389462]],MP
340,[[4]],[[341]],[[8]],['high holistic'],['left'],['upright'],['U0137.bmp'],['female'],[[12]],['female'],[[1]],[[0.30861004]],MP
341,[[4]],[[342]],[[14]],['high holistic'],['right'],['upright'],['U0228.bmp'],['male'],[[12]],['female'],[[0]],[[0.32938029]],MP
342,[[4]],[[343]],[[10]],['high holistic'],['right'],['upright'],['U0159.bmp'],['male'],[[10]],['male'],[[1]],[[0.31520248]],MP
343,[[4]],[[344]],[[14]],['low holistic'],['left'],['inverted'],['U0228.bmp'],['male'],[[2]],['female'],[[0]],[[0.26259343]],MP
344,[[4]],[[345]],[[11]],['high holistic'],['right'],['upright'],['U0164.bmp'],['female'],[[8]],['female'],[[1]],[[0.09997521]],MP
345,[[4]],[[346]],[[14]],['low holistic'],['left'],['inverted'],['U0228.bmp'],['male'],[[2]],['male'],[[1]],[[0.71261705]],MP
346,[[4]],[[347]],[[2]],['high holistic'],['right'],['inverted'],['U0014.bmp'],['male'],[[2]],['female'],[[0]],[[0.00014049]],MP
347,[[4]],[[348]],[[11]],['high holistic'],['fovea'],['upright'],['U0164.bmp'],['female'],[[0]],['female'],[[1]],[[0.08456703]],MP
348,[[4]],[[349]],[[18]],['low holistic'],['right'],['upright'],['U0359.bmp'],['male'],[[2]],['male'],[[1]],[[0.32717836]],MP
349,[[4]],[[350]],[[11]],['low holistic'],['right'],['inverted'],['U0164.bmp'],['female'],[[12]],['female'],[[1]],[[0.17844794]],MP
350,[[4]],[[351]],[[6]],['high holistic'],['right'],['inverted'],['U0106.bmp'],['female'],[[10]],['male'],[[0]],[[0.63732163]],MP
351,[[4]],[[352]],[[10]],['low holistic'],['right'],['inverted'],['U0159.bmp'],['female'],[[2]],['female'],[[1]],[[0.06740076]],MP
352,[[4]],[[353]],[[17]],['low holistic'],['left'],['inverted'],['U0346.bmp'],['female'],[[10]],['female'],[[1]],[[1.11223149]],MP
353,[[4]],[[354]],[[13]],['low holistic'],['fovea'],['upright'],['U0181.bmp'],['male'],[[0]],['male'],[[1]],[[1.98802115]],MP
354,[[4]],[[355]],[[19]],['low holistic'],['right'],['inverted'],['U0361.bmp'],['female'],[[6]],['female'],[[1]],[[0.29923557]],MP
355,[[4]],[[356]],[[2]],['low holistic'],['fovea'],['inverted'],['U0014.bmp'],['male'],[[0]],['male'],[[1]],[[0.09524821]],MP
356,[[4]],[[357]],[[14]],['low holistic'],['right'],['inverted'],['U0228.bmp'],['male'],[[8]],['male'],[[1]],[[1.81020787]],MP
357,[[4]],[[358]],[[16]],['low holistic'],['left'],['inverted'],['U0335.bmp'],['female'],[[12]],['female'],[[1]],[[0.42786596]],MP
358,[[4]],[[359]],[[9]],['high holistic'],['fovea'],['upright'],['U0155.bmp'],['female'],[[0]],['female'],[[1]],[[0.15319053]],MP
359,[[4]],[[360]],[[15]],['high holistic'],['left'],['inverted'],['U0312.bmp'],['male'],[[10]],['female'],[[0]],[[1.20263555]],MP
360,[[4]],[[361]],[[15]],['low holistic'],['right'],['inverted'],['U0312.bmp'],['male'],[[4]],['male'],[[1]],[[0.08338526]],MP
361,[[4]],[[362]],[[9]],['low holistic'],['right'],['inverted'],['U0155.bmp'],['male'],[[4]],['male'],[[1]],[[0.39226313]],MP
362,[[4]],[[363]],[[19]],['high holistic'],['left'],['upright'],['U0361.bmp'],['female'],[[10]],['male'],[[0]],[[0.34348472]],MP
363,[[4]],[[364]],[[1]],['high holistic'],['right'],['inverted'],['U0006.bmp'],['female'],[[8]],['male'],[[0]],[[0.34013464]],MP
364,[[4]],[[365]],[[1]],['low holistic'],['left'],['inverted'],['U0006.bmp'],['female'],[[10]],['male'],[[0]],[[0.17246489]],MP
365,[[4]],[[366]],[[20]],['low holistic'],['left'],['inverted'],['U0362.bmp'],['male'],[[6]],['male'],[[1]],[[0.14275101]],MP
366,[[4]],[[367]],[[17]],['high holistic'],['left'],['inverted'],['U0346.bmp'],['male'],[[12]],['male'],[[1]],[[0.07296185]],MP
367,[[4]],[[368]],[[12]],['high holistic'],['right'],['upright'],['U0178.bmp'],['male'],[[2]],['male'],[[1]],[[0.10082512]],MP
368,[[4]],[[369]],[[18]],['high holistic'],['left'],['upright'],['U0359.bmp'],['male'],[[12]],['male'],[[1]],[[0.09718458]],MP
369,[[4]],[[370]],[[8]],['high holistic'],['right'],['upright'],['U0137.bmp'],['female'],[[2]],['female'],[[1]],[[0.000195]],MP
370,[[4]],[[371]],[[20]],['high holistic'],['left'],['upright'],['U0362.bmp'],['female'],[[8]],['female'],[[1]],[[0.52654878]],MP
371,[[4]],[[372]],[[10]],['low holistic'],['fovea'],['upright'],['U0159.bmp'],['female'],[[0]],['female'],[[1]],[[0.00820879]],MP
372,[[4]],[[373]],[[19]],['low holistic'],['left'],['upright'],['U0361.bmp'],['female'],[[8]],['female'],[[1]],[[0.09643775]],MP
373,[[4]],[[374]],[[12]],['high holistic'],['left'],['inverted'],['U0178.bmp'],['male'],[[6]],['female'],[[0]],[[0.17175514]],MP
374,[[4]],[[375]],[[2]],['high holistic'],['right'],['upright'],['U0014.bmp'],['male'],[[6]],['female'],[[0]],[[0.01322298]],MP
375,[[4]],[[376]],[[9]],['high holistic'],['left'],['inverted'],['U0155.bmp'],['female'],[[6]],['female'],[[1]],[[0.14038222]],MP
376,[[4]],[[377]],[[11]],['high holistic'],['fovea'],['upright'],['U0164.bmp'],['female'],[[0]],['female'],[[1]],[[0.00018994]],MP
377,[[4]],[[378]],[[11]],['low holistic'],['left'],['upright'],['U0164.bmp'],['female'],[[10]],['female'],[[1]],[[9.8694989e-05]],MP
378,[[4]],[[379]],[[20]],['low holistic'],['right'],['upright'],['U0362.bmp'],['male'],[[4]],['male'],[[1]],[[9.93059948e-05]],MP
379,[[4]],[[380]],[[7]],['low holistic'],['right'],['upright'],['U0107.bmp'],['female'],[[2]],['female'],[[1]],[[0.00028216]],MP
380,[[4]],[[381]],[[16]],['high holistic'],['left'],['upright'],['U0335.bmp'],['female'],[[10]],['male'],[[0]],[[0.27851411]],MP
381,[[4]],[[382]],[[14]],['high holistic'],['fovea'],['inverted'],['U0228.bmp'],['male'],[[0]],['male'],[[1]],[[0.14052189]],MP
382,[[4]],[[383]],[[9]],['low holistic'],['left'],['inverted'],['U0155.bmp'],['male'],[[10]],['male'],[[1]],[[0.1744731]],MP
383,[[4]],[[384]],[[14]],['low holistic'],['fovea'],['upright'],['U0228.bmp'],['male'],[[0]],['male'],[[1]],[[0.00031707]],MP
384,[[4]],[[385]],[[15]],['low holistic'],['right'],['upright'],['U0312.bmp'],['male'],[[6]],['male'],[[1]],[[0.00021647]],MP
385,[[4]],[[386]],[[2]],['high holistic'],['left'],['upright'],['U0014.bmp'],['male'],[[10]],['male'],[[1]],[[0.00010723]],MP
386,[[4]],[[387]],[[8]],['low holistic'],['right'],['upright'],['U0137.bmp'],['male'],[[6]],['male'],[[1]],[[9.98280011e-05]],MP
387,[[4]],[[388]],[[12]],['high holistic'],['right'],['inverted'],['U0178.bmp'],['male'],[[8]],['male'],[[1]],[[9.87949898e-05]],MP
388,[[4]],[[389]],[[10]],['high holistic'],['left'],['upright'],['U0159.bmp'],['male'],[[10]],['male'],[[1]],[[2.11000534]],MP
389,[[4]],[[390]],[[12]],['high holistic'],['fovea'],['inverted'],['U0178.bmp'],['male'],[[0]],['male'],[[1]],[[0.11370993]],MP
390,[[4]],[[391]],[[5]],['high holistic'],['fovea'],['upright'],['U0076.bmp'],['female'],[[0]],['female'],[[1]],[[0.11839684]],MP
391,[[4]],[[392]],[[18]],['high holistic'],['left'],['inverted'],['U0359.bmp'],['male'],[[6]],['female'],[[0]],[[0.0976417]],MP
392,[[4]],[[393]],[[8]],['high holistic'],['right'],['inverted'],['U0137.bmp'],['female'],[[2]],['female'],[[1]],[[0.88467902]],MP
393,[[4]],[[394]],[[13]],['low holistic'],['left'],['inverted'],['U0181.bmp'],['male'],[[2]],['male'],[[1]],[[0.58497678]],MP
394,[[4]],[[395]],[[6]],['low holistic'],['left'],['upright'],['U0106.bmp'],['male'],[[12]],['male'],[[1]],[[0.3708589]],MP
395,[[4]],[[396]],[[15]],['low holistic'],['right'],['upright'],['U0312.bmp'],['male'],[[12]],['male'],[[1]],[[0.21973137]],MP
396,[[4]],[[397]],[[15]],['low holistic'],['fovea'],['inverted'],['U0312.bmp'],['male'],[[0]],['male'],[[1]],[[0.08278923]],MP
397,[[4]],[[398]],[[1]],['high holistic'],['left'],['upright'],['U0006.bmp'],['female'],[[2]],['female'],[[1]],[[0.0246283]],MP
398,[[4]],[[399]],[[13]],['high holistic'],['right'],['upright'],['U0181.bmp'],['female'],[[10]],['female'],[[1]],[[1.9401982]],MP
399,[[4]],[[400]],[[11]],['high holistic'],['left'],['upright'],['U0164.bmp'],['female'],[[10]],['female'],[[1]],[[0.19181379]],MP
400,[[4]],[[401]],[[15]],['high holistic'],['left'],['inverted'],['U0312.bmp'],['male'],[[4]],['female'],[[0]],[[0.18527847]],MP
401,[[4]],[[402]],[[11]],['low holistic'],['right'],['inverted'],['U0164.bmp'],['female'],[[2]],['female'],[[1]],[[0.09681161]],MP
402,[[4]],[[403]],[[14]],['low holistic'],['left'],['upright'],['U0228.bmp'],['male'],[[6]],['male'],[[1]],[[0.05928473]],MP
403,[[4]],[[404]],[[11]],['low holistic'],['left'],['inverted'],['U0164.bmp'],['female'],[[10]],['female'],[[1]],[[0.2975308]],MP
404,[[4]],[[405]],[[14]],['low holistic'],['right'],['upright'],['U0228.bmp'],['male'],[[2]],['male'],[[1]],[[0.0864916]],MP
405,[[4]],[[406]],[[7]],['low holistic'],['right'],['inverted'],['U0107.bmp'],['female'],[[8]],['female'],[[1]],[[0.14778906]],MP
406,[[4]],[[407]],[[2]],['low holistic'],['right'],['upright'],['U0014.bmp'],['male'],[[8]],['male'],[[1]],[[0.10121065]],MP
407,[[4]],[[408]],[[18]],['low holistic'],['left'],['upright'],['U0359.bmp'],['male'],[[8]],['male'],[[1]],[[0.1862357]],MP
408,[[4]],[[409]],[[19]],['low holistic'],['fovea'],['upright'],['U0361.bmp'],['female'],[[0]],['female'],[[1]],[[0.0649396]],MP
409,[[4]],[[410]],[[1]],['high holistic'],['left'],['upright'],['U0006.bmp'],['female'],[[10]],['female'],[[1]],[[0.33546905]],MP
410,[[4]],[[411]],[[10]],['high holistic'],['right'],['upright'],['U0159.bmp'],['male'],[[8]],['male'],[[1]],[[0.22517733]],MP
411,[[4]],[[412]],[[10]],['low holistic'],['right'],['upright'],['U0159.bmp'],['female'],[[8]],['female'],[[1]],[[0.01756474]],MP
412,[[4]],[[413]],[[3]],['low holistic'],['left'],['inverted'],['U0020.bmp'],['female'],[[10]],['female'],[[1]],[[0.30457349]],MP
413,[[4]],[[414]],[[15]],['high holistic'],['left'],['upright'],['U0312.bmp'],['male'],[[12]],['female'],[[0]],[[0.36398088]],MP
414,[[4]],[[415]],[[11]],['low holistic'],['right'],['upright'],['U0164.bmp'],['female'],[[2]],['female'],[[1]],[[0.04465424]],MP
415,[[4]],[[416]],[[7]],['high holistic'],['right'],['inverted'],['U0107.bmp'],['female'],[[8]],['male'],[[0]],[[0.32946388]],MP
416,[[4]],[[417]],[[4]],['low holistic'],['right'],['upright'],['U0061.bmp'],['female'],[[10]],['female'],[[1]],[[0.1401934]],MP
417,[[4]],[[418]],[[16]],['high holistic'],['left'],['upright'],['U0335.bmp'],['female'],[[10]],['female'],[[1]],[[0.19936595]],MP
418,[[4]],[[419]],[[7]],['high holistic'],['right'],['inverted'],['U0107.bmp'],['female'],[[8]],['female'],[[1]],[[0.17423241]],MP
419,[[4]],[[420]],[[12]],['low holistic'],['left'],['inverted'],['U0178.bmp'],['female'],[[12]],['female'],[[1]],[[0.19287028]],MP
420,[[4]],[[421]],[[15]],['high holistic'],['left'],['inverted'],['U0312.bmp'],['male'],[[8]],['female'],[[0]],[[9.78300232e-05]],MP
421,[[4]],[[422]],[[7]],['high holistic'],['left'],['upright'],['U0107.bmp'],['female'],[[8]],['female'],[[1]],[[9.9641009e-05]],MP
422,[[4]],[[423]],[[7]],['high holistic'],['right'],['inverted'],['U0107.bmp'],['female'],[[4]],['female'],[[1]],[[0.2978378]],MP
423,[[4]],[[424]],[[8]],['low holistic'],['left'],['inverted'],['U0137.bmp'],['male'],[[4]],['male'],[[1]],[[0.00024649]],MP
424,[[4]],[[425]],[[12]],['low holistic'],['right'],['inverted'],['U0178.bmp'],['female'],[[6]],['female'],[[1]],[[0.97203833]],MP
425,[[4]],[[426]],[[18]],['high holistic'],['left'],['inverted'],['U0359.bmp'],['male'],[[6]],['female'],[[0]],[[0.06105523]],MP
426,[[4]],[[427]],[[11]],['high holistic'],['right'],['inverted'],['U0164.bmp'],['female'],[[8]],['male'],[[0]],[[0.07413378]],MP
427,[[4]],[[428]],[[13]],['high holistic'],['left'],['upright'],['U0181.bmp'],['female'],[[2]],['female'],[[1]],[[9.87339881e-05]],MP
428,[[4]],[[429]],[[6]],['low holistic'],['left'],['inverted'],['U0106.bmp'],['male'],[[2]],['male'],[[1]],[[0.46464197]],MP
429,[[4]],[[430]],[[16]],['low holistic'],['left'],['inverted'],['U0335.bmp'],['female'],[[2]],['female'],[[1]],[[0.10843264]],MP
430,[[4]],[[431]],[[9]],['low holistic'],['left'],['upright'],['U0155.bmp'],['male'],[[6]],['male'],[[1]],[[0.12031349]],MP
431,[[4]],[[432]],[[1]],['low holistic'],['left'],['inverted'],['U0006.bmp'],['female'],[[8]],['female'],[[1]],[[0.19519154]],MP
432,[[4]],[[433]],[[2]],['low holistic'],['left'],['upright'],['U0014.bmp'],['male'],[[8]],['male'],[[1]],[[0.03588188]],MP
433,[[4]],[[434]],[[1]],['low holistic'],['right'],['inverted'],['U0006.bmp'],['female'],[[12]],['female'],[[1]],[[0.25015758]],MP
434,[[4]],[[435]],[[11]],['low holistic'],['left'],['upright'],['U0164.bmp'],['female'],[[8]],['female'],[[1]],[[0.20006079]],MP
435,[[4]],[[436]],[[2]],['high holistic'],['right'],['upright'],['U0014.bmp'],['male'],[[2]],['male'],[[1]],[[0.10429177]],MP
436,[[4]],[[437]],[[20]],['low holistic'],['right'],['upright'],['U0362.bmp'],['male'],[[4]],['female'],[[0]],[[0.1155676]],MP
437,[[4]],[[438]],[[19]],['low holistic'],['left'],['upright'],['U0361.bmp'],['female'],[[8]],['female'],[[1]],[[0.4702076]],MP
438,[[4]],[[439]],[[9]],['low holistic'],['right'],['upright'],['U0155.bmp'],['male'],[[8]],['male'],[[1]],[[0.28460781]],MP
439,[[4]],[[440]],[[12]],['low holistic'],['left'],['inverted'],['U0178.bmp'],['female'],[[4]],['female'],[[1]],[[1.05667308]],MP
440,[[4]],[[441]],[[1]],['low holistic'],['left'],['upright'],['U0006.bmp'],['female'],[[12]],['female'],[[1]],[[0.78914648]],MP
441,[[4]],[[442]],[[7]],['high holistic'],['right'],['upright'],['U0107.bmp'],['female'],[[2]],['female'],[[1]],[[0.00019593]],MP
442,[[4]],[[443]],[[14]],['high holistic'],['left'],['inverted'],['U0228.bmp'],['male'],[[6]],['female'],[[0]],[[0.14115763]],MP
443,[[4]],[[444]],[[9]],['high holistic'],['fovea'],['inverted'],['U0155.bmp'],['female'],[[0]],['female'],[[1]],[[0.11884388]],MP
444,[[4]],[[445]],[[12]],['low holistic'],['left'],['inverted'],['U0178.bmp'],['female'],[[6]],['female'],[[1]],[[0.00223904]],MP
445,[[4]],[[446]],[[3]],['low holistic'],['left'],['upright'],['U0020.bmp'],['female'],[[6]],['female'],[[1]],[[0.12277722]],MP
446,[[4]],[[447]],[[12]],['high holistic'],['right'],['inverted'],['U0178.bmp'],['male'],[[2]],['female'],[[0]],[[0.85502657]],MP
447,[[4]],[[448]],[[15]],['high holistic'],['left'],['upright'],['U0312.bmp'],['male'],[[6]],['male'],[[1]],[[0.21084482]],MP
448,[[4]],[[449]],[[4]],['high holistic'],['right'],['inverted'],['U0061.bmp'],['female'],[[4]],['female'],[[1]],[[0.09063537]],MP
449,[[4]],[[450]],[[2]],['high holistic'],['right'],['upright'],['U0014.bmp'],['male'],[[12]],['male'],[[1]],[[1.57577856]],MP
450,[[4]],[[451]],[[12]],['high holistic'],['left'],['inverted'],['U0178.bmp'],['male'],[[10]],['female'],[[0]],[[1.00091263]],MP
451,[[4]],[[452]],[[13]],['low holistic'],['left'],['upright'],['U0181.bmp'],['male'],[[4]],['male'],[[1]],[[0.1516294]],MP
452,[[4]],[[453]],[[9]],['low holistic'],['right'],['upright'],['U0155.bmp'],['male'],[[12]],['female'],[[0]],[[0.1852155]],MP
453,[[4]],[[454]],[[20]],['low holistic'],['right'],['upright'],['U0362.bmp'],['male'],[[4]],['male'],[[1]],[[0.0574104]],MP
454,[[4]],[[455]],[[4]],['high holistic'],['right'],['inverted'],['U0061.bmp'],['female'],[[12]],['female'],[[1]],[[0.11355431]],MP
455,[[4]],[[456]],[[11]],['low holistic'],['left'],['inverted'],['U0164.bmp'],['female'],[[6]],['female'],[[1]],[[0.22781371]],MP
456,[[4]],[[457]],[[1]],['low holistic'],['right'],['upright'],['U0006.bmp'],['female'],[[10]],['female'],[[1]],[[0.08197056]],MP
457,[[4]],[[458]],[[20]],['high holistic'],['left'],['inverted'],['U0362.bmp'],['female'],[[8]],['male'],[[0]],[[0.3445244]],MP
458,[[4]],[[459]],[[10]],['high holistic'],['left'],['upright'],['U0159.bmp'],['male'],[[2]],['male'],[[1]],[[1.31419643]],MP
459,[[4]],[[460]],[[18]],['low holistic'],['right'],['upright'],['U0359.bmp'],['male'],[[8]],['male'],[[1]],[[0.31609483]],MP
460,[[4]],[[461]],[[18]],['low holistic'],['right'],['upright'],['U0359.bmp'],['male'],[[12]],['male'],[[1]],[[0.00041975]],MP
461,[[4]],[[462]],[[9]],['low holistic'],['right'],['upright'],['U0155.bmp'],['male'],[[2]],['male'],[[1]],[[0.23926595]],MP
462,[[4]],[[463]],[[10]],['high holistic'],['left'],['inverted'],['U0159.bmp'],['male'],[[6]],['male'],[[1]],[[0.00010855]],MP
463,[[4]],[[464]],[[1]],['high holistic'],['left'],['inverted'],['U0006.bmp'],['female'],[[12]],['male'],[[0]],[[0.21315317]],MP
464,[[4]],[[465]],[[11]],['low holistic'],['right'],['inverted'],['U0164.bmp'],['female'],[[8]],['female'],[[1]],[[0.02892076]],MP
465,[[4]],[[466]],[[1]],['high holistic'],['left'],['inverted'],['U0006.bmp'],['female'],[[6]],['male'],[[0]],[[0.13914698]],MP
466,[[4]],[[467]],[[16]],['high holistic'],['right'],['upright'],['U0335.bmp'],['female'],[[12]],['female'],[[1]],[[0.47043171]],MP
467,[[4]],[[468]],[[3]],['high holistic'],['right'],['upright'],['U0020.bmp'],['male'],[[10]],['male'],[[1]],[[0.15502427]],MP
468,[[4]],[[469]],[[3]],['low holistic'],['right'],['upright'],['U0020.bmp'],['female'],[[2]],['female'],[[1]],[[0.20430102]],MP
469,[[4]],[[470]],[[20]],['low holistic'],['left'],['inverted'],['U0362.bmp'],['male'],[[12]],['male'],[[1]],[[0.22085401]],MP
470,[[4]],[[471]],[[13]],['low holistic'],['left'],['inverted'],['U0181.bmp'],['male'],[[6]],['male'],[[1]],[[0.11502727]],MP
471,[[4]],[[472]],[[6]],['low holistic'],['left'],['upright'],['U0106.bmp'],['male'],[[10]],['male'],[[1]],[[0.73448829]],MP
472,[[4]],[[473]],[[4]],['high holistic'],['left'],['upright'],['U0061.bmp'],['female'],[[2]],['female'],[[1]],[[0.02444755]],MP
473,[[4]],[[474]],[[12]],['low holistic'],['left'],['upright'],['U0178.bmp'],['female'],[[4]],['female'],[[1]],[[0.02480917]],MP
474,[[4]],[[475]],[[6]],['low holistic'],['right'],['inverted'],['U0106.bmp'],['male'],[[2]],['male'],[[1]],[[0.53532892]],MP
475,[[4]],[[476]],[[5]],['low holistic'],['left'],['upright'],['U0076.bmp'],['male'],[[4]],['male'],[[1]],[[2.21435261]],MP
476,[[4]],[[477]],[[1]],['low holistic'],['left'],['inverted'],['U0006.bmp'],['female'],[[12]],['female'],[[1]],[[0.07096363]],MP
477,[[4]],[[478]],[[8]],['low holistic'],['left'],['upright'],['U0137.bmp'],['male'],[[2]],['male'],[[1]],[[0.0364012]],MP
478,[[4]],[[479]],[[19]],['low holistic'],['right'],['upright'],['U0361.bmp'],['female'],[[10]],['female'],[[1]],[[0.22677286]],MP
479,[[4]],[[480]],[[8]],['low holistic'],['right'],['inverted'],['U0137.bmp'],['male'],[[4]],['male'],[[1]],[[0.2495817]],MP
480,[[4]],[[481]],[[17]],['low holistic'],['left'],['inverted'],['U0346.bmp'],['female'],[[10]],['female'],[[1]],[[0.10460986]],MP
481,[[4]],[[482]],[[6]],['high holistic'],['left'],['upright'],['U0106.bmp'],['female'],[[2]],['female'],[[1]],[[0.26107169]],MP
482,[[4]],[[483]],[[1]],['low holistic'],['right'],['upright'],['U0006.bmp'],['female'],[[12]],['female'],[[1]],[[0.00224964]],MP
483,[[4]],[[484]],[[16]],['low holistic'],['right'],['inverted'],['U0335.bmp'],['female'],[[6]],['female'],[[1]],[[0.29784204]],MP
484,[[4]],[[485]],[[6]],['low holistic'],['right'],['upright'],['U0106.bmp'],['male'],[[12]],['female'],[[0]],[[0.10119481]],MP
485,[[4]],[[486]],[[14]],['low holistic'],['left'],['upright'],['U0228.bmp'],['male'],[[8]],['male'],[[1]],[[0.0336835]],MP
486,[[4]],[[487]],[[3]],['high holistic'],['left'],['inverted'],['U0020.bmp'],['male'],[[10]],['female'],[[0]],[[0.15980684]],MP
487,[[4]],[[488]],[[17]],['high holistic'],['right'],['upright'],['U0346.bmp'],['male'],[[8]],['male'],[[1]],[[9.74240247e-05]],MP
488,[[4]],[[489]],[[4]],['high holistic'],['left'],['inverted'],['U0061.bmp'],['female'],[[8]],['male'],[[0]],[[0.1769232]],MP
489,[[4]],[[490]],[[18]],['low holistic'],['fovea'],['inverted'],['U0359.bmp'],['male'],[[0]],['male'],[[1]],[[0.01737164]],MP
490,[[4]],[[491]],[[17]],['low holistic'],['left'],['upright'],['U0346.bmp'],['female'],[[12]],['female'],[[1]],[[0.17699142]],MP
491,[[4]],[[492]],[[9]],['high holistic'],['left'],['inverted'],['U0155.bmp'],['female'],[[8]],['female'],[[1]],[[1.84929696]],MP
492,[[4]],[[493]],[[4]],['low holistic'],['right'],['upright'],['U0061.bmp'],['female'],[[10]],['male'],[[0]],[[0.02999599]],MP
493,[[4]],[[494]],[[12]],['low holistic'],['fovea'],['inverted'],['U0178.bmp'],['female'],[[0]],['male'],[[0]],[[0.26023922]],MP
494,[[4]],[[495]],[[7]],['high holistic'],['right'],['upright'],['U0107.bmp'],['female'],[[12]],['male'],[[0]],[[0.00010503]],MP
495,[[4]],[[496]],[[3]],['low holistic'],['left'],['inverted'],['U0020.bmp'],['female'],[[4]],['female'],[[1]],[[0.15405794]],MP
496,[[4]],[[497]],[[14]],['high holistic'],['right'],['inverted'],['U0228.bmp'],['male'],[[6]],['male'],[[1]],[[0.25263221]],MP
497,[[4]],[[498]],[[14]],['low holistic'],['right'],['upright'],['U0228.bmp'],['male'],[[8]],['male'],[[1]],[[0.01797499]],MP
498,[[4]],[[499]],[[18]],['low holistic'],['right'],['inverted'],['U0359.bmp'],['male'],[[6]],['male'],[[1]],[[1.78582157]],MP
499,[[4]],[[500]],[[4]],['low holistic'],['left'],['upright'],['U0061.bmp'],['female'],[[2]],['female'],[[1]],[[0.00013408]],MP
500,[[4]],[[501]],[[15]],['high holistic'],['right'],['inverted'],['U0312.bmp'],['male'],[[10]],['female'],[[0]],[[0.06611885]],MP
501,[[4]],[[502]],[[11]],['low holistic'],['left'],['upright'],['U0164.bmp'],['female'],[[4]],['female'],[[1]],[[0.00606685]],MP
502,[[4]],[[503]],[[19]],['low holistic'],['right'],['upright'],['U0361.bmp'],['female'],[[12]],['female'],[[1]],[[0.16727914]],MP
503,[[4]],[[504]],[[1]],['high holistic'],['right'],['upright'],['U0006.bmp'],['female'],[[10]],['female'],[[1]],[[0.00019994]],MP
504,[[4]],[[505]],[[18]],['low holistic'],['left'],['upright'],['U0359.bmp'],['male'],[[8]],['male'],[[1]],[[0.00798039]],MP
505,[[4]],[[506]],[[19]],['high holistic'],['left'],['upright'],['U0361.bmp'],['female'],[[12]],['male'],[[0]],[[0.13469271]],MP
506,[[4]],[[507]],[[5]],['low holistic'],['right'],['upright'],['U0076.bmp'],['male'],[[2]],['female'],[[0]],[[0.03237331]],MP
507,[[4]],[[508]],[[15]],['high holistic'],['left'],['inverted'],['U0312.bmp'],['male'],[[6]],['male'],[[1]],[[0.30287518]],MP
508,[[4]],[[509]],[[14]],['high holistic'],['left'],['upright'],['U0228.bmp'],['male'],[[8]],['male'],[[1]],[[1.46779571]],MP
509,[[4]],[[510]],[[6]],['high holistic'],['left'],['inverted'],['U0106.bmp'],['female'],[[4]],['female'],[[1]],[[0.01656572]],MP
510,[[4]],[[511]],[[17]],['low holistic'],['left'],['inverted'],['U0346.bmp'],['female'],[[4]],['female'],[[1]],[[0.0226039]],MP
511,[[4]],[[512]],[[11]],['low holistic'],['left'],['inverted'],['U0164.bmp'],['female'],[[12]],['female'],[[1]],[[9.91599809e-05]],MP
512,[[4]],[[513]],[[4]],['low holistic'],['fovea'],['upright'],['U0061.bmp'],['female'],[[0]],['female'],[[1]],[[0.00040736]],MP
513,[[4]],[[514]],[[6]],['low holistic'],['fovea'],['inverted'],['U0106.bmp'],['male'],[[0]],['male'],[[1]],[[3.56474961]],MP
514,[[4]],[[515]],[[18]],['low holistic'],['left'],['inverted'],['U0359.bmp'],['male'],[[6]],['male'],[[1]],[[9.90440021e-05]],MP
515,[[4]],[[516]],[[9]],['low holistic'],['left'],['upright'],['U0155.bmp'],['male'],[[4]],['male'],[[1]],[[0.00010608]],MP
516,[[4]],[[517]],[[15]],['high holistic'],['right'],['inverted'],['U0312.bmp'],['male'],[[4]],['female'],[[0]],[[0.00011445]],MP
517,[[4]],[[518]],[[7]],['low holistic'],['right'],['upright'],['U0107.bmp'],['female'],[[4]],['female'],[[1]],[[0.02222858]],MP
518,[[4]],[[519]],[[13]],['high holistic'],['right'],['upright'],['U0181.bmp'],['female'],[[10]],['female'],[[1]],[[0.02853647]],MP
519,[[4]],[[520]],[[9]],['high holistic'],['right'],['inverted'],['U0155.bmp'],['female'],[[12]],['female'],[[1]],[[0.05906542]],MP
520,[[4]],[[521]],[[1]],['high holistic'],['left'],['upright'],['U0006.bmp'],['female'],[[8]],['female'],[[1]],[[0.20647632]],MP
521,[[4]],[[522]],[[10]],['high holistic'],['left'],['upright'],['U0159.bmp'],['male'],[[6]],['male'],[[1]],[[0.11920498]],MP
522,[[4]],[[523]],[[6]],['high holistic'],['left'],['upright'],['U0106.bmp'],['female'],[[2]],['female'],[[1]],[[0.00010717]],MP
523,[[4]],[[524]],[[7]],['low holistic'],['right'],['inverted'],['U0107.bmp'],['female'],[[8]],['female'],[[1]],[[0.00031292]],MP
524,[[4]],[[525]],[[16]],['high holistic'],['right'],['inverted'],['U0335.bmp'],['female'],[[8]],['female'],[[1]],[[1.02624737]],MP
525,[[4]],[[526]],[[13]],['low holistic'],['right'],['upright'],['U0181.bmp'],['male'],[[10]],['male'],[[1]],[[0.00052984]],MP
526,[[4]],[[527]],[[14]],['high holistic'],['right'],['inverted'],['U0228.bmp'],['male'],[[10]],['female'],[[0]],[[0.00010136]],MP
527,[[4]],[[528]],[[1]],['low holistic'],['left'],['upright'],['U0006.bmp'],['female'],[[8]],['female'],[[1]],[[0.19048055]],MP
528,[[4]],[[529]],[[15]],['high holistic'],['right'],['upright'],['U0312.bmp'],['male'],[[8]],['female'],[[0]],[[0.00010038]],MP
529,[[4]],[[530]],[[20]],['high holistic'],['right'],['upright'],['U0362.bmp'],['female'],[[12]],['female'],[[1]],[[0.00012258]],MP
530,[[4]],[[531]],[[4]],['high holistic'],['right'],['upright'],['U0061.bmp'],['female'],[[12]],['female'],[[1]],[[0.00010577]],MP
531,[[4]],[[532]],[[14]],['high holistic'],['left'],['upright'],['U0228.bmp'],['male'],[[4]],['male'],[[1]],[[0.18091917]],MP
532,[[4]],[[533]],[[15]],['low holistic'],['fovea'],['inverted'],['U0312.bmp'],['male'],[[0]],['female'],[[0]],[[0.00010817]],MP
533,[[4]],[[534]],[[6]],['low holistic'],['left'],['inverted'],['U0106.bmp'],['male'],[[2]],['male'],[[1]],[[0.0541027]],MP
534,[[4]],[[535]],[[1]],['high holistic'],['right'],['inverted'],['U0006.bmp'],['female'],[[4]],['female'],[[1]],[[0.07614746]],MP
535,[[4]],[[536]],[[20]],['high holistic'],['right'],['inverted'],['U0362.bmp'],['female'],[[4]],['female'],[[1]],[[0.19951978]],MP
536,[[4]],[[537]],[[14]],['high holistic'],['left'],['upright'],['U0228.bmp'],['male'],[[8]],['male'],[[1]],[[0.0001159]],MP
537,[[4]],[[538]],[[15]],['low holistic'],['left'],['inverted'],['U0312.bmp'],['male'],[[6]],['male'],[[1]],[[1.80840738]],MP
538,[[4]],[[539]],[[4]],['high holistic'],['right'],['upright'],['U0061.bmp'],['female'],[[2]],['female'],[[1]],[[0.00020188]],MP
539,[[4]],[[540]],[[5]],['high holistic'],['left'],['upright'],['U0076.bmp'],['female'],[[6]],['female'],[[1]],[[0.22285022]],MP
540,[[4]],[[541]],[[9]],['low holistic'],['right'],['inverted'],['U0155.bmp'],['male'],[[4]],['male'],[[1]],[[0.18966996]],MP
541,[[4]],[[542]],[[9]],['low holistic'],['fovea'],['upright'],['U0155.bmp'],['male'],[[0]],['male'],[[1]],[[0.1084989]],MP
542,[[4]],[[543]],[[3]],['high holistic'],['left'],['inverted'],['U0020.bmp'],['male'],[[4]],['female'],[[0]],[[0.29595873]],MP
543,[[4]],[[544]],[[4]],['low holistic'],['left'],['upright'],['U0061.bmp'],['female'],[[4]],['female'],[[1]],[[2.45315729]],MP
544,[[4]],[[545]],[[10]],['high holistic'],['right'],['inverted'],['U0159.bmp'],['male'],[[4]],['female'],[[0]],[[0.19370347]],MP
545,[[4]],[[546]],[[20]],['high holistic'],['left'],['upright'],['U0362.bmp'],['female'],[[10]],['female'],[[1]],[[0.04294633]],MP
546,[[4]],[[547]],[[7]],['high holistic'],['right'],['upright'],['U0107.bmp'],['female'],[[10]],['male'],[[0]],[[0.20001805]],MP
547,[[4]],[[548]],[[9]],['low holistic'],['left'],['upright'],['U0155.bmp'],['male'],[[2]],['male'],[[1]],[[0.00010619]],MP
548,[[4]],[[549]],[[10]],['high holistic'],['right'],['inverted'],['U0159.bmp'],['male'],[[2]],['male'],[[1]],[[0.22427255]],MP
549,[[4]],[[550]],[[4]],['low holistic'],['right'],['inverted'],['U0061.bmp'],['female'],[[8]],['female'],[[1]],[[0.78181057]],MP
550,[[4]],[[551]],[[3]],['high holistic'],['left'],['inverted'],['U0020.bmp'],['male'],[[8]],['female'],[[0]],[[0.11079923]],MP
551,[[4]],[[552]],[[9]],['low holistic'],['right'],['upright'],['U0155.bmp'],['male'],[[2]],['male'],[[1]],[[9.80510085e-05]],MP
552,[[4]],[[553]],[[15]],['high holistic'],['right'],['inverted'],['U0312.bmp'],['male'],[[12]],['female'],[[0]],[[0.3535041]],MP
553,[[4]],[[554]],[[17]],['low holistic'],['left'],['inverted'],['U0346.bmp'],['female'],[[4]],['female'],[[1]],[[0.83432385]],MP
554,[[4]],[[555]],[[9]],['low holistic'],['right'],['inverted'],['U0155.bmp'],['male'],[[12]],['male'],[[1]],[[0.304177]],MP
555,[[4]],[[556]],[[14]],['low holistic'],['right'],['upright'],['U0228.bmp'],['male'],[[2]],['female'],[[0]],[[0.00481249]],MP
556,[[4]],[[557]],[[15]],['high holistic'],['fovea'],['upright'],['U0312.bmp'],['male'],[[0]],['female'],[[0]],[[0.04510399]],MP
557,[[4]],[[558]],[[3]],['low holistic'],['left'],['inverted'],['U0020.bmp'],['female'],[[4]],['male'],[[0]],[[0.17886123]],MP
558,[[4]],[[559]],[[7]],['low holistic'],['right'],['inverted'],['U0107.bmp'],['female'],[[6]],['female'],[[1]],[[0.08347585]],MP
559,[[4]],[[560]],[[18]],['low holistic'],['fovea'],['upright'],['U0359.bmp'],['male'],[[0]],['male'],[[1]],[[0.00021348]],MP
560,[[4]],[[561]],[[18]],['high holistic'],['right'],['upright'],['U0359.bmp'],['male'],[[8]],['male'],[[1]],[[1.16664666]],MP
561,[[4]],[[562]],[[17]],['high holistic'],['left'],['inverted'],['U0346.bmp'],['male'],[[8]],['male'],[[1]],[[0.15237714]],MP
562,[[4]],[[563]],[[16]],['low holistic'],['fovea'],['inverted'],['U0335.bmp'],['female'],[[0]],['female'],[[1]],[[9.91979905e-05]],MP
563,[[4]],[[564]],[[1]],['low holistic'],['left'],['inverted'],['U0006.bmp'],['female'],[[6]],['female'],[[1]],[[0.21782921]],MP
564,[[4]],[[565]],[[12]],['low holistic'],['left'],['inverted'],['U0178.bmp'],['female'],[[6]],['female'],[[1]],[[0.00011158]],MP
565,[[4]],[[566]],[[6]],['high holistic'],['left'],['inverted'],['U0106.bmp'],['female'],[[2]],['female'],[[1]],[[0.30281005]],MP
566,[[4]],[[567]],[[6]],['high holistic'],['fovea'],['upright'],['U0106.bmp'],['female'],[[0]],['female'],[[1]],[[1.94813395]],MP
567,[[4]],[[568]],[[19]],['high holistic'],['left'],['upright'],['U0361.bmp'],['female'],[[4]],['female'],[[1]],[[0.74873807]],MP
568,[[4]],[[569]],[[10]],['high holistic'],['left'],['inverted'],['U0159.bmp'],['male'],[[6]],['female'],[[0]],[[0.11821253]],MP
569,[[4]],[[570]],[[5]],['low holistic'],['fovea'],['inverted'],['U0076.bmp'],['male'],[[0]],['male'],[[1]],[[0.47405739]],MP
570,[[4]],[[571]],[[13]],['low holistic'],['left'],['inverted'],['U0181.bmp'],['male'],[[4]],['male'],[[1]],[[0.00040279]],MP
571,[[4]],[[572]],[[7]],['low holistic'],['left'],['upright'],['U0107.bmp'],['female'],[[10]],['female'],[[1]],[[0.00010469]],MP
572,[[4]],[[573]],[[7]],['low holistic'],['right'],['inverted'],['U0107.bmp'],['female'],[[12]],['female'],[[1]],[[0.06139601]],MP
573,[[4]],[[574]],[[12]],['low holistic'],['right'],['upright'],['U0178.bmp'],['female'],[[10]],['female'],[[1]],[[0.07452959]],MP
574,[[4]],[[575]],[[15]],['low holistic'],['right'],['upright'],['U0312.bmp'],['male'],[[2]],['male'],[[1]],[[0.00741363]],MP
575,[[4]],[[576]],[[7]],['low holistic'],['fovea'],['upright'],['U0107.bmp'],['female'],[[0]],['female'],[[1]],[[0.00010618]],MP
576,[[4]],[[577]],[[6]],['high holistic'],['left'],['upright'],['U0106.bmp'],['female'],[[12]],['male'],[[0]],[[0.10183973]],MP
577,[[4]],[[578]],[[20]],['high holistic'],['left'],['upright'],['U0362.bmp'],['female'],[[6]],['female'],[[1]],[[0.04883549]],MP
578,[[4]],[[579]],[[18]],['low holistic'],['fovea'],['upright'],['U0359.bmp'],['male'],[[0]],['male'],[[1]],[[0.0714268]],MP
579,[[4]],[[580]],[[10]],['high holistic'],['left'],['upright'],['U0159.bmp'],['male'],[[2]],['male'],[[1]],[[0.0449241]],MP
580,[[4]],[[581]],[[11]],['low holistic'],['left'],['upright'],['U0164.bmp'],['female'],[[8]],['female'],[[1]],[[0.00021229]],MP
581,[[4]],[[582]],[[1]],['low holistic'],['right'],['upright'],['U0006.bmp'],['female'],[[8]],['female'],[[1]],[[0.01731973]],MP
582,[[4]],[[583]],[[2]],['low holistic'],['left'],['inverted'],['U0014.bmp'],['male'],[[2]],['male'],[[1]],[[0.03390258]],MP
583,[[4]],[[584]],[[9]],['low holistic'],['right'],['upright'],['U0155.bmp'],['male'],[[10]],['female'],[[0]],[[0.00026838]],MP
584,[[4]],[[585]],[[15]],['high holistic'],['right'],['inverted'],['U0312.bmp'],['male'],[[6]],['male'],[[1]],[[0.29510111]],MP
585,[[4]],[[586]],[[19]],['high holistic'],['right'],['inverted'],['U0361.bmp'],['female'],[[10]],['male'],[[0]],[[0.04995925]],MP
586,[[4]],[[587]],[[2]],['low holistic'],['left'],['upright'],['U0014.bmp'],['male'],[[6]],['male'],[[1]],[[0.00010984]],MP
587,[[4]],[[588]],[[1]],['low holistic'],['right'],['upright'],['U0006.bmp'],['female'],[[6]],['female'],[[1]],[[0.00010464]],MP
588,[[4]],[[589]],[[14]],['low holistic'],['right'],['upright'],['U0228.bmp'],['male'],[[10]],['male'],[[1]],[[0.00019675]],MP
589,[[4]],[[590]],[[18]],['high holistic'],['right'],['upright'],['U0359.bmp'],['male'],[[8]],['male'],[[1]],[[0.00026237]],MP
590,[[4]],[[591]],[[6]],['low holistic'],['right'],['inverted'],['U0106.bmp'],['male'],[[2]],['female'],[[0]],[[0.00010006]],MP
591,[[4]],[[592]],[[16]],['high holistic'],['left'],['upright'],['U0335.bmp'],['female'],[[4]],['female'],[[1]],[[0.06380602]],MP
592,[[4]],[[593]],[[19]],['low holistic'],['right'],['inverted'],['U0361.bmp'],['female'],[[6]],['female'],[[1]],[[0.331427]],MP
593,[[4]],[[594]],[[6]],['high holistic'],['right'],['inverted'],['U0106.bmp'],['female'],[[6]],['male'],[[0]],[[0.02333705]],MP
594,[[4]],[[595]],[[19]],['high holistic'],['right'],['inverted'],['U0361.bmp'],['female'],[[8]],['female'],[[1]],[[0.0607938]],MP
595,[[4]],[[596]],[[14]],['low holistic'],['right'],['upright'],['U0228.bmp'],['male'],[[8]],['male'],[[1]],[[0.01968042]],MP
596,[[4]],[[597]],[[4]],['low holistic'],['right'],['upright'],['U0061.bmp'],['female'],[[4]],['female'],[[1]],[[0.47266673]],MP
597,[[4]],[[598]],[[13]],['high holistic'],['left'],['inverted'],['U0181.bmp'],['female'],[[12]],['male'],[[0]],[[0.13366342]],MP
598,[[4]],[[599]],[[14]],['high holistic'],['right'],['upright'],['U0228.bmp'],['male'],[[12]],['male'],[[1]],[[0.08772377]],MP
599,[[4]],[[600]],[[8]],['high holistic'],['left'],['inverted'],['U0137.bmp'],['female'],[[12]],['female'],[[1]],[[0.00010937]],MP
600,[[4]],[[601]],[[15]],['low holistic'],['right'],['inverted'],['U0312.bmp'],['male'],[[12]],['male'],[[1]],[[0.24394472]],MP
601,[[4]],[[602]],[[10]],['high holistic'],['left'],['inverted'],['U0159.bmp'],['male'],[[12]],['female'],[[0]],[[0.10677281]],MP
602,[[4]],[[603]],[[6]],['low holistic'],['right'],['inverted'],['U0106.bmp'],['male'],[[2]],['male'],[[1]],[[0.39702893]],MP
603,[[4]],[[604]],[[5]],['high holistic'],['right'],['upright'],['U0076.bmp'],['female'],[[2]],['female'],[[1]],[[0.14925131]],MP
604,[[4]],[[605]],[[18]],['high holistic'],['fovea'],['upright'],['U0359.bmp'],['male'],[[0]],['male'],[[1]],[[0.08609947]],MP
605,[[4]],[[606]],[[13]],['low holistic'],['left'],['inverted'],['U0181.bmp'],['male'],[[8]],['male'],[[1]],[[2.03573103]],MP
606,[[4]],[[607]],[[10]],['high holistic'],['left'],['upright'],['U0159.bmp'],['male'],[[2]],['male'],[[1]],[[0.0237469]],MP
607,[[4]],[[608]],[[20]],['high holistic'],['left'],['upright'],['U0362.bmp'],['female'],[[10]],['female'],[[1]],[[0.10363948]],MP
608,[[4]],[[609]],[[3]],['high holistic'],['left'],['upright'],['U0020.bmp'],['male'],[[6]],['male'],[[1]],[[0.42745049]],MP
609,[[4]],[[610]],[[8]],['high holistic'],['right'],['inverted'],['U0137.bmp'],['female'],[[4]],['female'],[[1]],[[0.10693067]],MP
610,[[4]],[[611]],[[4]],['low holistic'],['right'],['upright'],['U0061.bmp'],['female'],[[10]],['female'],[[1]],[[0.1087854]],MP
611,[[4]],[[612]],[[6]],['high holistic'],['right'],['upright'],['U0106.bmp'],['female'],[[4]],['female'],[[1]],[[0.2957461]],MP
612,[[4]],[[613]],[[6]],['low holistic'],['right'],['upright'],['U0106.bmp'],['male'],[[12]],['male'],[[1]],[[0.18173574]],MP
613,[[4]],[[614]],[[1]],['low holistic'],['fovea'],['upright'],['U0006.bmp'],['female'],[[0]],['female'],[[1]],[[0.4295279]],MP
614,[[4]],[[615]],[[13]],['low holistic'],['fovea'],['inverted'],['U0181.bmp'],['male'],[[0]],['male'],[[1]],[[0.00026702]],MP
615,[[4]],[[616]],[[4]],['low holistic'],['left'],['inverted'],['U0061.bmp'],['female'],[[4]],['female'],[[1]],[[0.09190236]],MP
616,[[4]],[[617]],[[17]],['high holistic'],['right'],['upright'],['U0346.bmp'],['male'],[[10]],['male'],[[1]],[[1.91054655]],MP
617,[[4]],[[618]],[[5]],['low holistic'],['right'],['upright'],['U0076.bmp'],['male'],[[10]],['male'],[[1]],[[0.00011218]],MP
618,[[4]],[[619]],[[1]],['low holistic'],['right'],['upright'],['U0006.bmp'],['female'],[[8]],['female'],[[1]],[[9.90169938e-05]],MP
619,[[4]],[[620]],[[8]],['low holistic'],['left'],['upright'],['U0137.bmp'],['male'],[[2]],['male'],[[1]],[[0.0002419]],MP
620,[[4]],[[621]],[[17]],['high holistic'],['left'],['inverted'],['U0346.bmp'],['male'],[[4]],['female'],[[0]],[[0.22021007]],MP
621,[[4]],[[622]],[[9]],['high holistic'],['fovea'],['inverted'],['U0155.bmp'],['female'],[[0]],['female'],[[1]],[[0.57019971]],MP
622,[[4]],[[623]],[[19]],['low holistic'],['left'],['inverted'],['U0361.bmp'],['female'],[[12]],['female'],[[1]],[[0.21933131]],MP
623,[[4]],[[624]],[[18]],['high holistic'],['left'],['inverted'],['U0359.bmp'],['male'],[[12]],['female'],[[0]],[[0.12326985]],MP
624,[[4]],[[625]],[[14]],['low holistic'],['left'],['inverted'],['U0228.bmp'],['male'],[[8]],['male'],[[1]],[[0.10094399]],MP
625,[[4]],[[626]],[[18]],['low holistic'],['left'],['upright'],['U0359.bmp'],['male'],[[4]],['male'],[[1]],[[0.12997111]],MP
626,[[4]],[[627]],[[12]],['low holistic'],['right'],['upright'],['U0178.bmp'],['female'],[[12]],['female'],[[1]],[[0.00316667]],MP
627,[[4]],[[628]],[[12]],['high holistic'],['right'],['upright'],['U0178.bmp'],['male'],[[8]],['male'],[[1]],[[0.19462205]],MP
628,[[4]],[[629]],[[16]],['high holistic'],['right'],['upright'],['U0335.bmp'],['female'],[[4]],['female'],[[1]],[[0.04272425]],MP
629,[[4]],[[630]],[[11]],['low holistic'],['left'],['upright'],['U0164.bmp'],['female'],[[12]],['male'],[[0]],[[0.07306631]],MP
630,[[4]],[[631]],[[2]],['low holistic'],['right'],['inverted'],['U0014.bmp'],['male'],[[10]],['male'],[[1]],[[0.09515824]],MP
631,[[4]],[[632]],[[7]],['low holistic'],['left'],['inverted'],['U0107.bmp'],['female'],[[6]],['female'],[[1]],[[9.92970017e-05]],MP
632,[[4]],[[633]],[[19]],['high holistic'],['right'],['upright'],['U0361.bmp'],['female'],[[2]],['male'],[[0]],[[0.00017945]],MP
633,[[4]],[[634]],[[19]],['low holistic'],['right'],['upright'],['U0361.bmp'],['female'],[[12]],['female'],[[1]],[[0.00016731]],MP
634,[[4]],[[635]],[[6]],['low holistic'],['right'],['upright'],['U0106.bmp'],['male'],[[4]],['male'],[[1]],[[0.05699336]],MP
635,[[4]],[[636]],[[10]],['high holistic'],['left'],['upright'],['U0159.bmp'],['male'],[[12]],['male'],[[1]],[[0.15091321]],MP
636,[[4]],[[637]],[[13]],['high holistic'],['right'],['inverted'],['U0181.bmp'],['female'],[[6]],['female'],[[1]],[[0.09570525]],MP
637,[[4]],[[638]],[[8]],['low holistic'],['right'],['inverted'],['U0137.bmp'],['male'],[[4]],['male'],[[1]],[[0.05271389]],MP
638,[[4]],[[639]],[[1]],['high holistic'],['left'],['inverted'],['U0006.bmp'],['female'],[[12]],['male'],[[0]],[[0.01759409]],MP
639,[[4]],[[640]],[[6]],['low holistic'],['right'],['inverted'],['U0106.bmp'],['male'],[[12]],['male'],[[1]],[[0.14518557]],MP
640,[[4]],[[641]],[[5]],['high holistic'],['left'],['inverted'],['U0076.bmp'],['female'],[[12]],['male'],[[0]],[[0.00011144]],MP
641,[[4]],[[642]],[[17]],['high holistic'],['right'],['inverted'],['U0346.bmp'],['male'],[[8]],['male'],[[1]],[[1.7304096]],MP
642,[[4]],[[643]],[[20]],['low holistic'],['right'],['upright'],['U0362.bmp'],['male'],[[6]],['male'],[[1]],[[9.95550072e-05]],MP
643,[[4]],[[644]],[[3]],['high holistic'],['right'],['inverted'],['U0020.bmp'],['male'],[[10]],['female'],[[0]],[[0.00012577]],MP
644,[[4]],[[645]],[[20]],['low holistic'],['right'],['inverted'],['U0362.bmp'],['male'],[[10]],['male'],[[1]],[[0.0761048]],MP
645,[[4]],[[646]],[[9]],['high holistic'],['left'],['upright'],['U0155.bmp'],['female'],[[8]],['female'],[[1]],[[0.30490543]],MP
646,[[4]],[[647]],[[18]],['high holistic'],['right'],['inverted'],['U0359.bmp'],['male'],[[4]],['male'],[[1]],[[0.15654096]],MP
647,[[4]],[[648]],[[1]],['high holistic'],['right'],['inverted'],['U0006.bmp'],['female'],[[12]],['female'],[[1]],[[0.10846068]],MP
648,[[4]],[[649]],[[17]],['high holistic'],['left'],['inverted'],['U0346.bmp'],['male'],[[6]],['female'],[[0]],[[0.20054662]],MP
649,[[4]],[[650]],[[15]],['low holistic'],['right'],['inverted'],['U0312.bmp'],['male'],[[4]],['male'],[[1]],[[0.09684524]],MP
650,[[4]],[[651]],[[4]],['low holistic'],['left'],['upright'],['U0061.bmp'],['female'],[[4]],['female'],[[1]],[[0.14526848]],MP
651,[[4]],[[652]],[[20]],['high holistic'],['left'],['upright'],['U0362.bmp'],['female'],[[4]],['female'],[[1]],[[1.32330625]],MP
652,[[4]],[[653]],[[13]],['low holistic'],['right'],['inverted'],['U0181.bmp'],['male'],[[12]],['male'],[[1]],[[0.00013905]],MP
653,[[4]],[[654]],[[19]],['low holistic'],['left'],['upright'],['U0361.bmp'],['female'],[[2]],['female'],[[1]],[[1.08567348]],MP
654,[[4]],[[655]],[[10]],['low holistic'],['left'],['inverted'],['U0159.bmp'],['female'],[[8]],['female'],[[1]],[[9.84469953e-05]],MP
655,[[4]],[[656]],[[14]],['low holistic'],['right'],['inverted'],['U0228.bmp'],['male'],[[10]],['female'],[[0]],[[0.00232789]],MP
656,[[4]],[[657]],[[11]],['low holistic'],['right'],['upright'],['U0164.bmp'],['female'],[[6]],['female'],[[1]],[[1.01615884]],MP
657,[[4]],[[658]],[[14]],['low holistic'],['right'],['inverted'],['U0228.bmp'],['male'],[[10]],['male'],[[1]],[[0.02407283]],MP
658,[[4]],[[659]],[[4]],['high holistic'],['right'],['upright'],['U0061.bmp'],['female'],[[10]],['male'],[[0]],[[0.08730594]],MP
659,[[4]],[[660]],[[7]],['low holistic'],['right'],['upright'],['U0107.bmp'],['female'],[[6]],['female'],[[1]],[[0.02708816]],MP
660,[[4]],[[661]],[[17]],['low holistic'],['left'],['upright'],['U0346.bmp'],['female'],[[6]],['male'],[[0]],[[0.00021494]],MP
661,[[4]],[[662]],[[7]],['high holistic'],['right'],['upright'],['U0107.bmp'],['female'],[[8]],['male'],[[0]],[[0.00019228]],MP
662,[[4]],[[663]],[[10]],['low holistic'],['left'],['inverted'],['U0159.bmp'],['female'],[[12]],['female'],[[1]],[[0.000201]],MP
663,[[4]],[[664]],[[5]],['high holistic'],['left'],['upright'],['U0076.bmp'],['female'],[[2]],['female'],[[1]],[[0.00016909]],MP
664,[[4]],[[665]],[[7]],['low holistic'],['right'],['inverted'],['U0107.bmp'],['female'],[[6]],['female'],[[1]],[[0.96904725]],MP
665,[[4]],[[666]],[[9]],['high holistic'],['right'],['inverted'],['U0155.bmp'],['female'],[[8]],['female'],[[1]],[[0.02515458]],MP
666,[[4]],[[667]],[[5]],['low holistic'],['left'],['inverted'],['U0076.bmp'],['male'],[[12]],['male'],[[1]],[[0.11250049]],MP
667,[[4]],[[668]],[[1]],['low holistic'],['right'],['inverted'],['U0006.bmp'],['female'],[[2]],['female'],[[1]],[[0.0001008]],MP
668,[[4]],[[669]],[[5]],['high holistic'],['left'],['upright'],['U0076.bmp'],['female'],[[6]],['female'],[[1]],[[0.04231952]],MP
669,[[4]],[[670]],[[16]],['low holistic'],['left'],['inverted'],['U0335.bmp'],['female'],[[2]],['female'],[[1]],[[9.90659755e-05]],MP
670,[[4]],[[671]],[[18]],['high holistic'],['left'],['inverted'],['U0359.bmp'],['male'],[[4]],['female'],[[0]],[[0.02579076]],MP
671,[[4]],[[672]],[[17]],['high holistic'],['left'],['inverted'],['U0346.bmp'],['male'],[[10]],['female'],[[0]],[[9.92610003e-05]],MP
672,[[4]],[[673]],[[18]],['low holistic'],['left'],['inverted'],['U0359.bmp'],['male'],[[4]],['male'],[[1]],[[0.00010958]],MP
673,[[4]],[[674]],[[16]],['low holistic'],['right'],['inverted'],['U0335.bmp'],['female'],[[12]],['female'],[[1]],[[0.00033884]],MP
674,[[4]],[[675]],[[12]],['high holistic'],['right'],['inverted'],['U0178.bmp'],['male'],[[2]],['female'],[[0]],[[0.18300532]],MP
675,[[4]],[[676]],[[18]],['high holistic'],['left'],['upright'],['U0359.bmp'],['male'],[[2]],['male'],[[1]],[[0.03753522]],MP
676,[[4]],[[677]],[[14]],['low holistic'],['right'],['upright'],['U0228.bmp'],['male'],[[4]],['female'],[[0]],[[0.00018453]],MP
677,[[4]],[[678]],[[17]],['high holistic'],['right'],['upright'],['U0346.bmp'],['male'],[[4]],['male'],[[1]],[[0.00027114]],MP
678,[[4]],[[679]],[[15]],['high holistic'],['right'],['upright'],['U0312.bmp'],['male'],[[2]],['female'],[[0]],[[0.00054584]],MP
679,[[4]],[[680]],[[11]],['low holistic'],['right'],['inverted'],['U0164.bmp'],['female'],[[8]],['female'],[[1]],[[0.12496356]],MP
680,[[4]],[[681]],[[3]],['low holistic'],['right'],['inverted'],['U0020.bmp'],['female'],[[4]],['female'],[[1]],[[0.08731861]],MP
681,[[4]],[[682]],[[14]],['high holistic'],['right'],['upright'],['U0228.bmp'],['male'],[[4]],['male'],[[1]],[[0.00011044]],MP
682,[[4]],[[683]],[[16]],['high holistic'],['left'],['inverted'],['U0335.bmp'],['female'],[[2]],['female'],[[1]],[[0.00989075]],MP
683,[[4]],[[684]],[[11]],['low holistic'],['right'],['inverted'],['U0164.bmp'],['female'],[[10]],['female'],[[1]],[[0.00741131]],MP
684,[[4]],[[685]],[[8]],['high holistic'],['left'],['upright'],['U0137.bmp'],['female'],[[4]],['male'],[[0]],[[0.13045087]],MP
685,[[4]],[[686]],[[17]],['low holistic'],['right'],['inverted'],['U0346.bmp'],['female'],[[12]],['female'],[[1]],[[0.0994605]],MP
686,[[4]],[[687]],[[10]],['high holistic'],['right'],['upright'],['U0159.bmp'],['male'],[[4]],['male'],[[1]],[[0.13565722]],MP
687,[[4]],[[688]],[[10]],['high holistic'],['left'],['inverted'],['U0159.bmp'],['male'],[[12]],['female'],[[0]],[[0.17788893]],MP
688,[[4]],[[689]],[[16]],['low holistic'],['left'],['upright'],['U0335.bmp'],['female'],[[10]],['female'],[[1]],[[0.09729157]],MP
689,[[4]],[[690]],[[17]],['low holistic'],['right'],['inverted'],['U0346.bmp'],['female'],[[2]],['female'],[[1]],[[0.39819521]],MP
690,[[4]],[[691]],[[15]],['high holistic'],['right'],['inverted'],['U0312.bmp'],['male'],[[8]],['female'],[[0]],[[0.00010898]],MP
691,[[4]],[[692]],[[14]],['low holistic'],['right'],['inverted'],['U0228.bmp'],['male'],[[2]],['female'],[[0]],[[0.04520911]],MP
692,[[4]],[[693]],[[14]],['low holistic'],['right'],['inverted'],['U0228.bmp'],['male'],[[10]],['male'],[[1]],[[0.21232622]],MP
693,[[4]],[[694]],[[4]],['low holistic'],['right'],['upright'],['U0061.bmp'],['female'],[[6]],['female'],[[1]],[[1.77787668]],MP
694,[[4]],[[695]],[[3]],['high holistic'],['right'],['upright'],['U0020.bmp'],['male'],[[6]],['male'],[[1]],[[0.0582703]],MP
695,[[4]],[[696]],[[15]],['low holistic'],['right'],['inverted'],['U0312.bmp'],['male'],[[2]],['male'],[[1]],[[0.12144582]],MP
696,[[4]],[[697]],[[15]],['low holistic'],['left'],['inverted'],['U0312.bmp'],['male'],[[2]],['male'],[[1]],[[0.90742983]],MP
697,[[4]],[[698]],[[15]],['low holistic'],['fovea'],['inverted'],['U0312.bmp'],['male'],[[0]],['male'],[[1]],[[0.0001067]],MP
698,[[4]],[[699]],[[19]],['high holistic'],['right'],['upright'],['U0361.bmp'],['female'],[[10]],['female'],[[1]],[[0.31847493]],MP
699,[[4]],[[700]],[[11]],['high holistic'],['left'],['inverted'],['U0164.bmp'],['female'],[[4]],['female'],[[1]],[[0.23279789]],MP
700,[[4]],[[701]],[[15]],['high holistic'],['right'],['upright'],['U0312.bmp'],['male'],[[10]],['female'],[[0]],[[0.04014934]],MP
701,[[4]],[[702]],[[14]],['low holistic'],['right'],['inverted'],['U0228.bmp'],['male'],[[2]],['male'],[[1]],[[0.14110608]],MP
702,[[4]],[[703]],[[5]],['low holistic'],['left'],['upright'],['U0076.bmp'],['male'],[[10]],['male'],[[1]],[[0.00017286]],MP
703,[[4]],[[704]],[[3]],['low holistic'],['right'],['inverted'],['U0020.bmp'],['female'],[[6]],['female'],[[1]],[[0.00034384]],MP
704,[[4]],[[705]],[[15]],['low holistic'],['right'],['inverted'],['U0312.bmp'],['male'],[[2]],['male'],[[1]],[[0.03793042]],MP
705,[[4]],[[706]],[[11]],['low holistic'],['right'],['inverted'],['U0164.bmp'],['female'],[[8]],['female'],[[1]],[[0.03660651]],MP
706,[[4]],[[707]],[[13]],['high holistic'],['left'],['upright'],['U0181.bmp'],['female'],[[8]],['male'],[[0]],[[0.49050007]],MP
707,[[4]],[[708]],[[3]],['high holistic'],['right'],['inverted'],['U0020.bmp'],['male'],[[8]],['female'],[[0]],[[0.11894229]],MP
708,[[4]],[[709]],[[2]],['high holistic'],['right'],['inverted'],['U0014.bmp'],['male'],[[10]],['female'],[[0]],[[0.00013868]],MP
709,[[4]],[[710]],[[6]],['high holistic'],['right'],['inverted'],['U0106.bmp'],['female'],[[4]],['male'],[[0]],[[0.03213338]],MP
710,[[4]],[[711]],[[10]],['high holistic'],['right'],['inverted'],['U0159.bmp'],['male'],[[2]],['male'],[[1]],[[0.11940717]],MP
711,[[4]],[[712]],[[8]],['low holistic'],['left'],['upright'],['U0137.bmp'],['male'],[[4]],['male'],[[1]],[[0.00037133]],MP
712,[[4]],[[713]],[[5]],['high holistic'],['left'],['inverted'],['U0076.bmp'],['female'],[[2]],['male'],[[0]],[[0.00010511]],MP
713,[[4]],[[714]],[[10]],['high holistic'],['left'],['upright'],['U0159.bmp'],['male'],[[2]],['male'],[[1]],[[0.03403311]],MP
714,[[4]],[[715]],[[13]],['high holistic'],['left'],['inverted'],['U0181.bmp'],['female'],[[8]],['female'],[[1]],[[0.34373039]],MP
715,[[4]],[[716]],[[11]],['high holistic'],['right'],['inverted'],['U0164.bmp'],['female'],[[10]],['female'],[[1]],[[0.2991999]],MP
716,[[4]],[[717]],[[10]],['high holistic'],['right'],['inverted'],['U0159.bmp'],['male'],[[2]],['male'],[[1]],[[0.13346356]],MP
717,[[4]],[[718]],[[12]],['high holistic'],['fovea'],['upright'],['U0178.bmp'],['male'],[[0]],['male'],[[1]],[[0.04781485]],MP
718,[[4]],[[719]],[[18]],['high holistic'],['left'],['inverted'],['U0359.bmp'],['male'],[[6]],['female'],[[0]],[[0.26232123]],MP
719,[[4]],[[720]],[[9]],['low holistic'],['right'],['upright'],['U0155.bmp'],['male'],[[4]],['male'],[[1]],[[0.410584]],MP
720,[[4]],[[721]],[[13]],['high holistic'],['right'],['inverted'],['U0181.bmp'],['female'],[[6]],['female'],[[1]],[[0.06706393]],MP
721,[[4]],[[722]],[[19]],['high holistic'],['right'],['inverted'],['U0361.bmp'],['female'],[[12]],['female'],[[1]],[[0.37551944]],MP
722,[[4]],[[723]],[[9]],['high holistic'],['left'],['inverted'],['U0155.bmp'],['female'],[[2]],['female'],[[1]],[[0.45684257]],MP
723,[[4]],[[724]],[[18]],['low holistic'],['left'],['upright'],['U0359.bmp'],['male'],[[2]],['male'],[[1]],[[0.10812071]],MP
724,[[4]],[[725]],[[7]],['low holistic'],['right'],['inverted'],['U0107.bmp'],['female'],[[8]],['female'],[[1]],[[0.00931167]],MP
725,[[4]],[[726]],[[4]],['high holistic'],['right'],['upright'],['U0061.bmp'],['female'],[[4]],['female'],[[1]],[[0.06406987]],MP
726,[[4]],[[727]],[[4]],['low holistic'],['right'],['inverted'],['U0061.bmp'],['female'],[[6]],['female'],[[1]],[[0.00011562]],MP
727,[[4]],[[728]],[[17]],['high holistic'],['fovea'],['upright'],['U0346.bmp'],['male'],[[0]],['male'],[[1]],[[1.0435776]],MP
728,[[4]],[[729]],[[16]],['low holistic'],['left'],['upright'],['U0335.bmp'],['female'],[[2]],['female'],[[1]],[[9.82769998e-05]],MP
729,[[4]],[[730]],[[17]],['low holistic'],['right'],['upright'],['U0346.bmp'],['female'],[[4]],['female'],[[1]],[[0.00019636]],MP
730,[[4]],[[731]],[[1]],['high holistic'],['left'],['inverted'],['U0006.bmp'],['female'],[[10]],['male'],[[0]],[[0.06608363]],MP
731,[[4]],[[732]],[[7]],['low holistic'],['left'],['upright'],['U0107.bmp'],['female'],[[2]],['female'],[[1]],[[0.05406362]],MP
732,[[4]],[[733]],[[20]],['high holistic'],['right'],['upright'],['U0362.bmp'],['female'],[[6]],['female'],[[1]],[[0.05261459]],MP
733,[[4]],[[734]],[[5]],['low holistic'],['left'],['inverted'],['U0076.bmp'],['male'],[[4]],['male'],[[1]],[[0.00328189]],MP
734,[[4]],[[735]],[[5]],['low holistic'],['right'],['upright'],['U0076.bmp'],['male'],[[6]],['female'],[[0]],[[0.00024986]],MP
735,[[4]],[[736]],[[20]],['high holistic'],['left'],['upright'],['U0362.bmp'],['female'],[[2]],['female'],[[1]],[[9.94380098e-05]],MP
736,[[4]],[[737]],[[2]],['low holistic'],['left'],['upright'],['U0014.bmp'],['male'],[[4]],['male'],[[1]],[[0.00018908]],MP
737,[[4]],[[738]],[[15]],['high holistic'],['left'],['inverted'],['U0312.bmp'],['male'],[[2]],['male'],[[1]],[[0.32883958]],MP
738,[[4]],[[739]],[[18]],['low holistic'],['left'],['upright'],['U0359.bmp'],['male'],[[6]],['male'],[[1]],[[0.00029265]],MP
739,[[4]],[[740]],[[12]],['low holistic'],['fovea'],['upright'],['U0178.bmp'],['female'],[[0]],['female'],[[1]],[[0.03524655]],MP
740,[[4]],[[741]],[[4]],['low holistic'],['right'],['upright'],['U0061.bmp'],['female'],[[10]],['female'],[[1]],[[0.01830019]],MP
741,[[4]],[[742]],[[3]],['high holistic'],['left'],['upright'],['U0020.bmp'],['male'],[[10]],['male'],[[1]],[[0.19233051]],MP
742,[[4]],[[743]],[[18]],['high holistic'],['left'],['inverted'],['U0359.bmp'],['male'],[[12]],['male'],[[1]],[[0.00011729]],MP
743,[[4]],[[744]],[[14]],['high holistic'],['left'],['upright'],['U0228.bmp'],['male'],[[12]],['male'],[[1]],[[0.86325272]],MP
744,[[4]],[[745]],[[9]],['low holistic'],['left'],['inverted'],['U0155.bmp'],['male'],[[4]],['female'],[[0]],[[9.89690016e-05]],MP
745,[[4]],[[746]],[[6]],['high holistic'],['left'],['upright'],['U0106.bmp'],['female'],[[2]],['female'],[[1]],[[0.00481975]],MP
746,[[4]],[[747]],[[11]],['high holistic'],['right'],['inverted'],['U0164.bmp'],['female'],[[6]],['female'],[[1]],[[0.37922147]],MP
747,[[4]],[[748]],[[15]],['low holistic'],['left'],['inverted'],['U0312.bmp'],['male'],[[8]],['female'],[[0]],[[0.04303956]],MP
748,[[4]],[[749]],[[16]],['low holistic'],['right'],['inverted'],['U0335.bmp'],['female'],[[10]],['female'],[[1]],[[0.11388733]],MP
749,[[4]],[[750]],[[9]],['low holistic'],['left'],['upright'],['U0155.bmp'],['male'],[[6]],['male'],[[1]],[[0.05205372]],MP
750,[[4]],[[751]],[[7]],['low holistic'],['left'],['upright'],['U0107.bmp'],['female'],[[4]],['female'],[[1]],[[1.07475643]],MP
751,[[4]],[[752]],[[19]],['low holistic'],['left'],['inverted'],['U0361.bmp'],['female'],[[10]],['female'],[[1]],[[0.20679951]],MP
752,[[4]],[[753]],[[6]],['high holistic'],['left'],['inverted'],['U0106.bmp'],['female'],[[8]],['female'],[[1]],[[0.00024437]],MP
753,[[4]],[[754]],[[19]],['low holistic'],['left'],['inverted'],['U0361.bmp'],['female'],[[4]],['female'],[[1]],[[0.08564636]],MP
754,[[4]],[[755]],[[2]],['high holistic'],['left'],['inverted'],['U0014.bmp'],['male'],[[8]],['female'],[[0]],[[9.89339896e-05]],MP
755,[[4]],[[756]],[[19]],['low holistic'],['right'],['upright'],['U0361.bmp'],['female'],[[12]],['female'],[[1]],[[0.0001134]],MP
756,[[4]],[[757]],[[17]],['high holistic'],['right'],['inverted'],['U0346.bmp'],['male'],[[2]],['male'],[[1]],[[9.8716002e-05]],MP
757,[[4]],[[758]],[[8]],['low holistic'],['left'],['upright'],['U0137.bmp'],['male'],[[8]],['male'],[[1]],[[0.0329154]],MP
758,[[4]],[[759]],[[17]],['low holistic'],['right'],['upright'],['U0346.bmp'],['female'],[[4]],['female'],[[1]],[[0.99126176]],MP
759,[[4]],[[760]],[[13]],['high holistic'],['left'],['upright'],['U0181.bmp'],['female'],[[12]],['female'],[[1]],[[0.2070798]],MP
760,[[4]],[[761]],[[18]],['low holistic'],['left'],['upright'],['U0359.bmp'],['male'],[[8]],['male'],[[1]],[[0.04753626]],MP
761,[[4]],[[762]],[[10]],['low holistic'],['right'],['upright'],['U0159.bmp'],['female'],[[8]],['female'],[[1]],[[9.91470006e-05]],MP
762,[[4]],[[763]],[[14]],['high holistic'],['right'],['upright'],['U0228.bmp'],['male'],[[12]],['female'],[[0]],[[0.0001862]],MP
763,[[4]],[[764]],[[6]],['high holistic'],['right'],['upright'],['U0106.bmp'],['female'],[[6]],['female'],[[1]],[[1.34765128]],MP
764,[[4]],[[765]],[[17]],['high holistic'],['left'],['upright'],['U0346.bmp'],['male'],[[4]],['female'],[[0]],[[1.2625015]],MP
765,[[4]],[[766]],[[14]],['low holistic'],['right'],['inverted'],['U0228.bmp'],['male'],[[2]],['female'],[[0]],[[0.28190372]],MP
766,[[4]],[[767]],[[14]],['high holistic'],['left'],['upright'],['U0228.bmp'],['male'],[[4]],['female'],[[0]],[[0.09445506]],MP
767,[[4]],[[768]],[[7]],['low holistic'],['left'],['inverted'],['U0107.bmp'],['female'],[[6]],['female'],[[1]],[[0.02587703]],MP
768,[[4]],[[769]],[[6]],['high holistic'],['right'],['upright'],['U0106.bmp'],['female'],[[10]],['male'],[[0]],[[9.8140008e-05]],MP
769,[[4]],[[770]],[[11]],['high holistic'],['left'],['upright'],['U0164.bmp'],['female'],[[12]],['female'],[[1]],[[0.05657697]],MP
770,[[4]],[[771]],[[18]],['high holistic'],['right'],['inverted'],['U0359.bmp'],['male'],[[10]],['female'],[[0]],[[0.14934716]],MP
771,[[4]],[[772]],[[3]],['high holistic'],['left'],['upright'],['U0020.bmp'],['male'],[[12]],['male'],[[1]],[[0.00018955]],MP
772,[[4]],[[773]],[[19]],['low holistic'],['fovea'],['upright'],['U0361.bmp'],['female'],[[0]],['female'],[[1]],[[0.6564747]],MP
773,[[4]],[[774]],[[19]],['high holistic'],['left'],['inverted'],['U0361.bmp'],['female'],[[8]],['male'],[[0]],[[0.02944586]],MP
774,[[4]],[[775]],[[6]],['low holistic'],['right'],['upright'],['U0106.bmp'],['male'],[[12]],['male'],[[1]],[[0.21278704]],MP
775,[[4]],[[776]],[[2]],['high holistic'],['left'],['upright'],['U0014.bmp'],['male'],[[4]],['male'],[[1]],[[0.00011991]],MP
776,[[4]],[[777]],[[12]],['low holistic'],['left'],['upright'],['U0178.bmp'],['female'],[[4]],['female'],[[1]],[[0.02709889]],MP
