,SUBID,TRIAL,MOONEYID,MOONEYCATEGORY,LOC,COND,MOONEY_NAME,MOONEY_GENDER,ECCENTRICITY,RESPONSE,ACCURACY,RT,SUBINIT
0,[[5]],[[1]],[[9]],['low holistic'],['left'],['upright'],['U0155.bmp'],['male'],[],['male'],[[1]],[[0.43210226]],MY
1,[[5]],[[2]],[[14]],['low holistic'],['right'],['upright'],['U0228.bmp'],['male'],[],['male'],[[1]],[[0.19859332]],MY
2,[[5]],[[3]],[[19]],['high holistic'],['right'],['upright'],['U0361.bmp'],['female'],[],['male'],[[0]],[[0.42399732]],MY
3,[[5]],[[4]],[[17]],['low holistic'],['right'],['upright'],['U0346.bmp'],['female'],[],['male'],[[0]],[[0.00023299]],MY
4,[[5]],[[5]],[[10]],['high holistic'],['left'],['inverted'],['U0159.bmp'],['male'],[],['female'],[[0]],[[0.36835466]],MY
5,[[5]],[[6]],[[16]],['low holistic'],['right'],['inverted'],['U0335.bmp'],['female'],[],['female'],[[1]],[[0.52158264]],MY
6,[[5]],[[7]],[[9]],['high holistic'],['right'],['inverted'],['U0155.bmp'],['female'],[],['female'],[[1]],[[0.02131939]],MY
7,[[5]],[[8]],[[20]],['high holistic'],['right'],['upright'],['U0362.bmp'],['female'],[],['female'],[[1]],[[0.06108802]],MY
8,[[5]],[[9]],[[20]],['high holistic'],['right'],['inverted'],['U0362.bmp'],['female'],[],['male'],[[0]],[[0.00029422]],MY
9,[[5]],[[10]],[[18]],['high holistic'],['right'],['upright'],['U0359.bmp'],['male'],[],['male'],[[1]],[[0.01028794]],MY
10,[[5]],[[11]],[[8]],['low holistic'],['fovea'],['upright'],['U0137.bmp'],['male'],[],['male'],[[1]],[[0.67454857]],MY
11,[[5]],[[12]],[[10]],['low holistic'],['left'],['upright'],['U0159.bmp'],['female'],[],['female'],[[1]],[[0.39301651]],MY
12,[[5]],[[13]],[[5]],['low holistic'],['right'],['inverted'],['U0076.bmp'],['male'],[],['male'],[[1]],[[0.36947447]],MY
13,[[5]],[[14]],[[16]],['low holistic'],['left'],['inverted'],['U0335.bmp'],['female'],[],['male'],[[0]],[[0.34711799]],MY
14,[[5]],[[15]],[[18]],['low holistic'],['left'],['upright'],['U0359.bmp'],['male'],[],['male'],[[1]],[[0.26873298]],MY
15,[[5]],[[16]],[[19]],['high holistic'],['left'],['inverted'],['U0361.bmp'],['female'],[],['male'],[[0]],[[0.51365864]],MY
16,[[5]],[[17]],[[12]],['low holistic'],['left'],['inverted'],['U0178.bmp'],['female'],[],['male'],[[0]],[[0.00010679]],MY
17,[[5]],[[18]],[[12]],['low holistic'],['right'],['inverted'],['U0178.bmp'],['female'],[],['male'],[[0]],[[0.11033435]],MY
18,[[5]],[[19]],[[3]],['low holistic'],['right'],['upright'],['U0020.bmp'],['female'],[],['female'],[[1]],[[0.13821548]],MY
19,[[5]],[[20]],[[18]],['high holistic'],['left'],['inverted'],['U0359.bmp'],['male'],[],['female'],[[0]],[[0.34114819]],MY
20,[[5]],[[21]],[[10]],['low holistic'],['right'],['inverted'],['U0159.bmp'],['female'],[],['female'],[[1]],[[0.20031111]],MY
21,[[5]],[[22]],[[5]],['high holistic'],['right'],['inverted'],['U0076.bmp'],['female'],[],['female'],[[1]],[[0.52803434]],MY
22,[[5]],[[23]],[[18]],['low holistic'],['left'],['inverted'],['U0359.bmp'],['male'],[],['female'],[[0]],[[0.50570521]],MY
23,[[5]],[[24]],[[16]],['high holistic'],['left'],['upright'],['U0335.bmp'],['female'],[],['female'],[[1]],[[0.35916469]],MY
24,[[5]],[[25]],[[18]],['high holistic'],['left'],['upright'],['U0359.bmp'],['male'],[],['male'],[[1]],[[0.18548468]],MY
25,[[5]],[[26]],[[6]],['low holistic'],['right'],['inverted'],['U0106.bmp'],['male'],[],['female'],[[0]],[[1.34440965]],MY
26,[[5]],[[27]],[[14]],['high holistic'],['left'],['upright'],['U0228.bmp'],['male'],[],['male'],[[1]],[[0.20364079]],MY
27,[[5]],[[28]],[[14]],['high holistic'],['right'],['inverted'],['U0228.bmp'],['male'],[],['female'],[[0]],[[0.83652509]],MY
28,[[5]],[[29]],[[3]],['high holistic'],['right'],['upright'],['U0020.bmp'],['male'],[],['male'],[[1]],[[0.62075307]],MY
29,[[5]],[[30]],[[9]],['low holistic'],['left'],['inverted'],['U0155.bmp'],['male'],[],['female'],[[0]],[[0.38777547]],MY
30,[[5]],[[31]],[[6]],['low holistic'],['left'],['upright'],['U0106.bmp'],['male'],[],['male'],[[1]],[[0.33988004]],MY
31,[[5]],[[32]],[[15]],['low holistic'],['right'],['upright'],['U0312.bmp'],['male'],[],['male'],[[1]],[[0.15044363]],MY
32,[[5]],[[33]],[[6]],['low holistic'],['right'],['upright'],['U0106.bmp'],['male'],[],['male'],[[1]],[[0.14452561]],MY
33,[[5]],[[34]],[[18]],['high holistic'],['right'],['upright'],['U0359.bmp'],['male'],[],['male'],[[1]],[[0.38917284]],MY
34,[[5]],[[35]],[[17]],['high holistic'],['fovea'],['upright'],['U0346.bmp'],['male'],[],['male'],[[1]],[[0.16416824]],MY
35,[[5]],[[36]],[[8]],['low holistic'],['right'],['upright'],['U0137.bmp'],['male'],[],['male'],[[1]],[[0.40603668]],MY
36,[[5]],[[37]],[[10]],['high holistic'],['left'],['inverted'],['U0159.bmp'],['male'],[],['male'],[[1]],[[0.9751813]],MY
37,[[5]],[[38]],[[14]],['high holistic'],['left'],['inverted'],['U0228.bmp'],['male'],[],['female'],[[0]],[[0.53488149]],MY
38,[[5]],[[39]],[[17]],['high holistic'],['left'],['upright'],['U0346.bmp'],['male'],[],['male'],[[1]],[[0.08230213]],MY
39,[[5]],[[40]],[[13]],['low holistic'],['right'],['inverted'],['U0181.bmp'],['male'],[],['male'],[[1]],[[0.43114527]],MY
40,[[5]],[[41]],[[12]],['low holistic'],['left'],['inverted'],['U0178.bmp'],['female'],[],['female'],[[1]],[[0.15924435]],MY
41,[[5]],[[42]],[[7]],['high holistic'],['left'],['upright'],['U0107.bmp'],['female'],[],['male'],[[0]],[[0.1768142]],MY
42,[[5]],[[43]],[[10]],['high holistic'],['fovea'],['inverted'],['U0159.bmp'],['male'],[],['female'],[[0]],[[0.25070691]],MY
43,[[5]],[[44]],[[15]],['low holistic'],['right'],['inverted'],['U0312.bmp'],['male'],[],['male'],[[1]],[[0.46347636]],MY
44,[[5]],[[45]],[[18]],['high holistic'],['right'],['upright'],['U0359.bmp'],['male'],[],['male'],[[1]],[[0.42944119]],MY
45,[[5]],[[46]],[[15]],['low holistic'],['right'],['inverted'],['U0312.bmp'],['male'],[],['male'],[[1]],[[0.24354553]],MY
46,[[5]],[[47]],[[1]],['low holistic'],['left'],['upright'],['U0006.bmp'],['female'],[],['female'],[[1]],[[0.25031561]],MY
47,[[5]],[[48]],[[14]],['low holistic'],['right'],['inverted'],['U0228.bmp'],['male'],[],['male'],[[1]],[[0.48968609]],MY
48,[[5]],[[49]],[[9]],['high holistic'],['right'],['upright'],['U0155.bmp'],['female'],[],['female'],[[1]],[[0.34131391]],MY
49,[[5]],[[50]],[[9]],['low holistic'],['left'],['inverted'],['U0155.bmp'],['male'],[],['male'],[[1]],[[0.12007384]],MY
50,[[5]],[[51]],[[3]],['high holistic'],['right'],['inverted'],['U0020.bmp'],['male'],[],['male'],[[1]],[[0.07558387]],MY
51,[[5]],[[52]],[[17]],['low holistic'],['left'],['inverted'],['U0346.bmp'],['female'],[],['female'],[[1]],[[0.32120359]],MY
52,[[5]],[[53]],[[7]],['low holistic'],['left'],['inverted'],['U0107.bmp'],['female'],[],['female'],[[1]],[[0.94856037]],MY
53,[[5]],[[54]],[[5]],['high holistic'],['right'],['inverted'],['U0076.bmp'],['female'],[],['male'],[[0]],[[0.15890355]],MY
54,[[5]],[[55]],[[7]],['low holistic'],['left'],['upright'],['U0107.bmp'],['female'],[],['female'],[[1]],[[0.11214711]],MY
55,[[5]],[[56]],[[8]],['high holistic'],['right'],['upright'],['U0137.bmp'],['female'],[],['male'],[[0]],[[0.19678663]],MY
56,[[5]],[[57]],[[11]],['high holistic'],['right'],['inverted'],['U0164.bmp'],['female'],[],['male'],[[0]],[[0.03591454]],MY
57,[[5]],[[58]],[[12]],['high holistic'],['right'],['inverted'],['U0178.bmp'],['male'],[],['female'],[[0]],[[0.12419872]],MY
58,[[5]],[[59]],[[8]],['low holistic'],['fovea'],['upright'],['U0137.bmp'],['male'],[],['male'],[[1]],[[0.19738186]],MY
59,[[5]],[[60]],[[8]],['high holistic'],['right'],['inverted'],['U0137.bmp'],['female'],[],['female'],[[1]],[[0.49571584]],MY
60,[[5]],[[61]],[[11]],['high holistic'],['right'],['upright'],['U0164.bmp'],['female'],[],['male'],[[0]],[[0.61073091]],MY
61,[[5]],[[62]],[[14]],['high holistic'],['right'],['inverted'],['U0228.bmp'],['male'],[],['female'],[[0]],[[0.09117714]],MY
62,[[5]],[[63]],[[20]],['low holistic'],['right'],['inverted'],['U0362.bmp'],['male'],[],['male'],[[1]],[[0.23241625]],MY
63,[[5]],[[64]],[[15]],['low holistic'],['left'],['inverted'],['U0312.bmp'],['male'],[],['female'],[[0]],[[1.42292968]],MY
64,[[5]],[[65]],[[9]],['low holistic'],['left'],['upright'],['U0155.bmp'],['male'],[],['male'],[[1]],[[0.20474762]],MY
65,[[5]],[[66]],[[17]],['high holistic'],['right'],['inverted'],['U0346.bmp'],['male'],[],['male'],[[1]],[[0.31055889]],MY
66,[[5]],[[67]],[[3]],['high holistic'],['left'],['inverted'],['U0020.bmp'],['male'],[],['male'],[[1]],[[0.42487864]],MY
67,[[5]],[[68]],[[2]],['high holistic'],['left'],['upright'],['U0014.bmp'],['male'],[],['male'],[[1]],[[0.44145739]],MY
68,[[5]],[[69]],[[2]],['high holistic'],['right'],['upright'],['U0014.bmp'],['male'],[],['male'],[[1]],[[0.14380737]],MY
69,[[5]],[[70]],[[4]],['low holistic'],['fovea'],['inverted'],['U0061.bmp'],['female'],[],['female'],[[1]],[[0.06564701]],MY
70,[[5]],[[71]],[[7]],['high holistic'],['left'],['upright'],['U0107.bmp'],['female'],[],['male'],[[0]],[[0.5674046]],MY
71,[[5]],[[72]],[[7]],['high holistic'],['right'],['inverted'],['U0107.bmp'],['female'],[],['female'],[[1]],[[0.28974553]],MY
72,[[5]],[[73]],[[1]],['high holistic'],['right'],['inverted'],['U0006.bmp'],['female'],[],['female'],[[1]],[[0.50089064]],MY
73,[[5]],[[74]],[[11]],['high holistic'],['right'],['inverted'],['U0164.bmp'],['female'],[],['female'],[[1]],[[0.29854526]],MY
74,[[5]],[[75]],[[2]],['low holistic'],['left'],['upright'],['U0014.bmp'],['male'],[],['female'],[[0]],[[0.35823466]],MY
75,[[5]],[[76]],[[3]],['low holistic'],['fovea'],['inverted'],['U0020.bmp'],['female'],[],['female'],[[1]],[[0.07882828]],MY
76,[[5]],[[77]],[[13]],['low holistic'],['right'],['inverted'],['U0181.bmp'],['male'],[],['male'],[[1]],[[0.18800922]],MY
77,[[5]],[[78]],[[18]],['low holistic'],['right'],['upright'],['U0359.bmp'],['male'],[],['male'],[[1]],[[0.26120778]],MY
78,[[5]],[[79]],[[20]],['low holistic'],['right'],['upright'],['U0362.bmp'],['male'],[],['male'],[[1]],[[0.12239061]],MY
79,[[5]],[[80]],[[12]],['low holistic'],['left'],['inverted'],['U0178.bmp'],['female'],[],['female'],[[1]],[[0.07743329]],MY
80,[[5]],[[81]],[[20]],['high holistic'],['left'],['upright'],['U0362.bmp'],['female'],[],['female'],[[1]],[[0.12162136]],MY
81,[[5]],[[82]],[[12]],['high holistic'],['right'],['inverted'],['U0178.bmp'],['male'],[],['female'],[[0]],[[0.2369905]],MY
82,[[5]],[[83]],[[11]],['low holistic'],['left'],['inverted'],['U0164.bmp'],['female'],[],['female'],[[1]],[[0.28441198]],MY
83,[[5]],[[84]],[[7]],['high holistic'],['right'],['inverted'],['U0107.bmp'],['female'],[],['female'],[[1]],[[0.00866943]],MY
84,[[5]],[[85]],[[9]],['high holistic'],['left'],['inverted'],['U0155.bmp'],['female'],[],['female'],[[1]],[[1.21757525]],MY
85,[[5]],[[86]],[[10]],['high holistic'],['right'],['upright'],['U0159.bmp'],['male'],[],['male'],[[1]],[[0.27917286]],MY
86,[[5]],[[87]],[[2]],['high holistic'],['right'],['upright'],['U0014.bmp'],['male'],[],['male'],[[1]],[[0.02762782]],MY
87,[[5]],[[88]],[[18]],['high holistic'],['left'],['inverted'],['U0359.bmp'],['male'],[],['female'],[[0]],[[0.36323463]],MY
88,[[5]],[[89]],[[2]],['high holistic'],['right'],['upright'],['U0014.bmp'],['male'],[],['female'],[[0]],[[0.16377366]],MY
89,[[5]],[[90]],[[9]],['high holistic'],['right'],['inverted'],['U0155.bmp'],['female'],[],['female'],[[1]],[[0.25330766]],MY
90,[[5]],[[91]],[[17]],['high holistic'],['left'],['upright'],['U0346.bmp'],['male'],[],['male'],[[1]],[[0.08526657]],MY
91,[[5]],[[92]],[[8]],['high holistic'],['fovea'],['inverted'],['U0137.bmp'],['female'],[],['female'],[[1]],[[0.3037608]],MY
92,[[5]],[[93]],[[13]],['low holistic'],['right'],['inverted'],['U0181.bmp'],['male'],[],['male'],[[1]],[[0.15694635]],MY
93,[[5]],[[94]],[[17]],['high holistic'],['left'],['upright'],['U0346.bmp'],['male'],[],['male'],[[1]],[[0.11733904]],MY
94,[[5]],[[95]],[[18]],['low holistic'],['left'],['upright'],['U0359.bmp'],['male'],[],['female'],[[0]],[[0.66432749]],MY
95,[[5]],[[96]],[[19]],['high holistic'],['right'],['upright'],['U0361.bmp'],['female'],[],['male'],[[0]],[[1.22312912]],MY
96,[[5]],[[97]],[[4]],['low holistic'],['left'],['inverted'],['U0061.bmp'],['female'],[],['female'],[[1]],[[0.22079536]],MY
97,[[5]],[[98]],[[6]],['high holistic'],['right'],['upright'],['U0106.bmp'],['female'],[],['male'],[[0]],[[0.19579523]],MY
98,[[5]],[[99]],[[18]],['high holistic'],['left'],['upright'],['U0359.bmp'],['male'],[],['female'],[[0]],[[0.0457155]],MY
99,[[5]],[[100]],[[12]],['high holistic'],['right'],['inverted'],['U0178.bmp'],['male'],[],['female'],[[0]],[[0.32218837]],MY
100,[[5]],[[101]],[[11]],['high holistic'],['right'],['inverted'],['U0164.bmp'],['female'],[],['male'],[[0]],[[0.34143811]],MY
101,[[5]],[[102]],[[13]],['low holistic'],['right'],['inverted'],['U0181.bmp'],['male'],[],['female'],[[0]],[[0.49596964]],MY
102,[[5]],[[103]],[[17]],['low holistic'],['right'],['inverted'],['U0346.bmp'],['female'],[],['female'],[[1]],[[0.33905843]],MY
103,[[5]],[[104]],[[11]],['high holistic'],['right'],['inverted'],['U0164.bmp'],['female'],[],['female'],[[1]],[[1.71114579]],MY
104,[[5]],[[105]],[[5]],['high holistic'],['right'],['inverted'],['U0076.bmp'],['female'],[],['male'],[[0]],[[0.26582627]],MY
105,[[5]],[[106]],[[10]],['low holistic'],['left'],['upright'],['U0159.bmp'],['female'],[],['female'],[[1]],[[0.19898124]],MY
106,[[5]],[[107]],[[9]],['low holistic'],['right'],['upright'],['U0155.bmp'],['male'],[],['male'],[[1]],[[0.39923552]],MY
107,[[5]],[[108]],[[20]],['low holistic'],['right'],['upright'],['U0362.bmp'],['male'],[],['male'],[[1]],[[0.0389431]],MY
108,[[5]],[[109]],[[13]],['high holistic'],['left'],['inverted'],['U0181.bmp'],['female'],[],['female'],[[1]],[[0.34217491]],MY
109,[[5]],[[110]],[[14]],['high holistic'],['left'],['inverted'],['U0228.bmp'],['male'],[],['female'],[[0]],[[0.0002576]],MY
110,[[5]],[[111]],[[15]],['high holistic'],['right'],['inverted'],['U0312.bmp'],['male'],[],['male'],[[1]],[[0.20978566]],MY
111,[[5]],[[112]],[[7]],['low holistic'],['left'],['upright'],['U0107.bmp'],['female'],[],['female'],[[1]],[[0.05504956]],MY
112,[[5]],[[113]],[[11]],['low holistic'],['right'],['upright'],['U0164.bmp'],['female'],[],['female'],[[1]],[[0.06205751]],MY
113,[[5]],[[114]],[[12]],['low holistic'],['left'],['inverted'],['U0178.bmp'],['female'],[],['female'],[[1]],[[0.06852256]],MY
114,[[5]],[[115]],[[4]],['high holistic'],['right'],['upright'],['U0061.bmp'],['female'],[],['male'],[[0]],[[0.10444612]],MY
115,[[5]],[[116]],[[12]],['high holistic'],['left'],['upright'],['U0178.bmp'],['male'],[],['female'],[[0]],[[1.04516079]],MY
116,[[5]],[[117]],[[14]],['high holistic'],['right'],['upright'],['U0228.bmp'],['male'],[],['male'],[[1]],[[0.36221371]],MY
117,[[5]],[[118]],[[9]],['high holistic'],['fovea'],['upright'],['U0155.bmp'],['female'],[],['female'],[[1]],[[1.09133419]],MY
118,[[5]],[[119]],[[17]],['high holistic'],['left'],['inverted'],['U0346.bmp'],['male'],[],['male'],[[1]],[[0.52773617]],MY
119,[[5]],[[120]],[[15]],['high holistic'],['left'],['inverted'],['U0312.bmp'],['male'],[],['male'],[[1]],[[0.4286439]],MY
120,[[5]],[[121]],[[8]],['high holistic'],['left'],['upright'],['U0137.bmp'],['female'],[],['male'],[[0]],[[0.28299145]],MY
121,[[5]],[[122]],[[10]],['low holistic'],['right'],['inverted'],['U0159.bmp'],['female'],[],['female'],[[1]],[[0.29589733]],MY
122,[[5]],[[123]],[[8]],['low holistic'],['right'],['inverted'],['U0137.bmp'],['male'],[],['female'],[[0]],[[0.38026914]],MY
123,[[5]],[[124]],[[16]],['high holistic'],['right'],['inverted'],['U0335.bmp'],['female'],[],['male'],[[0]],[[0.25175047]],MY
124,[[5]],[[125]],[[15]],['high holistic'],['left'],['inverted'],['U0312.bmp'],['male'],[],['male'],[[1]],[[0.63385359]],MY
125,[[5]],[[126]],[[9]],['low holistic'],['right'],['inverted'],['U0155.bmp'],['male'],[],['female'],[[0]],[[0.45808417]],MY
126,[[5]],[[127]],[[14]],['high holistic'],['right'],['inverted'],['U0228.bmp'],['male'],[],['female'],[[0]],[[2.95837344]],MY
127,[[5]],[[128]],[[19]],['high holistic'],['right'],['inverted'],['U0361.bmp'],['female'],[],['female'],[[1]],[[1.36011317]],MY
128,[[5]],[[129]],[[16]],['high holistic'],['right'],['inverted'],['U0335.bmp'],['female'],[],['male'],[[0]],[[0.2827087]],MY
129,[[5]],[[130]],[[15]],['high holistic'],['left'],['inverted'],['U0312.bmp'],['male'],[],['female'],[[0]],[[0.47034627]],MY
130,[[5]],[[131]],[[3]],['low holistic'],['right'],['upright'],['U0020.bmp'],['female'],[],['female'],[[1]],[[0.69552749]],MY
131,[[5]],[[132]],[[8]],['high holistic'],['fovea'],['inverted'],['U0137.bmp'],['female'],[],['female'],[[1]],[[0.24418391]],MY
132,[[5]],[[133]],[[12]],['low holistic'],['left'],['upright'],['U0178.bmp'],['female'],[],['female'],[[1]],[[0.00302242]],MY
133,[[5]],[[134]],[[10]],['high holistic'],['left'],['inverted'],['U0159.bmp'],['male'],[],['female'],[[0]],[[0.38718942]],MY
134,[[5]],[[135]],[[2]],['low holistic'],['fovea'],['upright'],['U0014.bmp'],['male'],[],['male'],[[1]],[[0.10800452]],MY
135,[[5]],[[136]],[[5]],['high holistic'],['right'],['upright'],['U0076.bmp'],['female'],[],['female'],[[1]],[[0.64012124]],MY
136,[[5]],[[137]],[[17]],['high holistic'],['left'],['upright'],['U0346.bmp'],['male'],[],['male'],[[1]],[[1.07041589]],MY
137,[[5]],[[138]],[[1]],['low holistic'],['right'],['inverted'],['U0006.bmp'],['female'],[],['male'],[[0]],[[0.41147331]],MY
138,[[5]],[[139]],[[18]],['low holistic'],['right'],['upright'],['U0359.bmp'],['male'],[],['female'],[[0]],[[0.33160203]],MY
139,[[5]],[[140]],[[2]],['low holistic'],['right'],['inverted'],['U0014.bmp'],['male'],[],['male'],[[1]],[[0.55007181]],MY
140,[[5]],[[141]],[[14]],['high holistic'],['left'],['inverted'],['U0228.bmp'],['male'],[],['male'],[[1]],[[1.30302868]],MY
141,[[5]],[[142]],[[11]],['high holistic'],['right'],['inverted'],['U0164.bmp'],['female'],[],['female'],[[1]],[[1.36379451]],MY
142,[[5]],[[143]],[[5]],['low holistic'],['left'],['upright'],['U0076.bmp'],['male'],[],['male'],[[1]],[[4.46927623]],MY
143,[[5]],[[144]],[[12]],['high holistic'],['left'],['inverted'],['U0178.bmp'],['male'],[],['female'],[[0]],[[0.12187523]],MY
144,[[5]],[[145]],[[3]],['high holistic'],['right'],['inverted'],['U0020.bmp'],['male'],[],['female'],[[0]],[[0.86860307]],MY
145,[[5]],[[146]],[[14]],['high holistic'],['left'],['upright'],['U0228.bmp'],['male'],[],['male'],[[1]],[[0.10485756]],MY
146,[[5]],[[147]],[[12]],['high holistic'],['right'],['upright'],['U0178.bmp'],['male'],[],['male'],[[1]],[[0.42159402]],MY
147,[[5]],[[148]],[[2]],['low holistic'],['left'],['upright'],['U0014.bmp'],['male'],[],['male'],[[1]],[[0.33171074]],MY
148,[[5]],[[149]],[[2]],['high holistic'],['left'],['inverted'],['U0014.bmp'],['male'],[],['female'],[[0]],[[0.71719956]],MY
149,[[5]],[[150]],[[4]],['high holistic'],['left'],['upright'],['U0061.bmp'],['female'],[],['female'],[[1]],[[0.27489352]],MY
150,[[5]],[[151]],[[1]],['high holistic'],['right'],['inverted'],['U0006.bmp'],['female'],[],['female'],[[1]],[[0.43148619]],MY
151,[[5]],[[152]],[[9]],['high holistic'],['right'],['inverted'],['U0155.bmp'],['female'],[],['male'],[[0]],[[0.69503363]],MY
152,[[5]],[[153]],[[17]],['high holistic'],['right'],['upright'],['U0346.bmp'],['male'],[],['male'],[[1]],[[0.21091498]],MY
153,[[5]],[[154]],[[13]],['low holistic'],['left'],['upright'],['U0181.bmp'],['male'],[],['male'],[[1]],[[0.04993006]],MY
154,[[5]],[[155]],[[11]],['low holistic'],['right'],['upright'],['U0164.bmp'],['female'],[],['female'],[[1]],[[0.11978849]],MY
155,[[5]],[[156]],[[18]],['high holistic'],['left'],['inverted'],['U0359.bmp'],['male'],[],['male'],[[1]],[[0.26782696]],MY
156,[[5]],[[157]],[[2]],['low holistic'],['right'],['upright'],['U0014.bmp'],['male'],[],['male'],[[1]],[[0.32064641]],MY
157,[[5]],[[158]],[[19]],['low holistic'],['left'],['upright'],['U0361.bmp'],['female'],[],['female'],[[1]],[[0.41103166]],MY
158,[[5]],[[159]],[[3]],['low holistic'],['left'],['inverted'],['U0020.bmp'],['female'],[],['female'],[[1]],[[0.23536107]],MY
159,[[5]],[[160]],[[11]],['low holistic'],['left'],['inverted'],['U0164.bmp'],['female'],[],['female'],[[1]],[[0.02601048]],MY
160,[[5]],[[161]],[[3]],['low holistic'],['left'],['upright'],['U0020.bmp'],['female'],[],['female'],[[1]],[[0.26585253]],MY
161,[[5]],[[162]],[[12]],['high holistic'],['right'],['upright'],['U0178.bmp'],['male'],[],['male'],[[1]],[[0.13358833]],MY
162,[[5]],[[163]],[[1]],['high holistic'],['fovea'],['inverted'],['U0006.bmp'],['female'],[],['male'],[[0]],[[0.17599528]],MY
163,[[5]],[[164]],[[16]],['low holistic'],['left'],['inverted'],['U0335.bmp'],['female'],[],['female'],[[1]],[[2.08954312]],MY
164,[[5]],[[165]],[[17]],['high holistic'],['left'],['inverted'],['U0346.bmp'],['male'],[],['male'],[[1]],[[0.34970437]],MY
165,[[5]],[[166]],[[19]],['high holistic'],['left'],['inverted'],['U0361.bmp'],['female'],[],['male'],[[0]],[[0.81653179]],MY
166,[[5]],[[167]],[[20]],['low holistic'],['right'],['inverted'],['U0362.bmp'],['male'],[],['male'],[[1]],[[0.27158034]],MY
167,[[5]],[[168]],[[11]],['high holistic'],['left'],['inverted'],['U0164.bmp'],['female'],[],['female'],[[1]],[[0.38883266]],MY
168,[[5]],[[169]],[[6]],['high holistic'],['fovea'],['upright'],['U0106.bmp'],['female'],[],['female'],[[1]],[[0.44504804]],MY
169,[[5]],[[170]],[[3]],['high holistic'],['right'],['inverted'],['U0020.bmp'],['male'],[],['female'],[[0]],[[0.41894278]],MY
170,[[5]],[[171]],[[11]],['low holistic'],['right'],['upright'],['U0164.bmp'],['female'],[],['female'],[[1]],[[0.34724979]],MY
171,[[5]],[[172]],[[12]],['high holistic'],['right'],['upright'],['U0178.bmp'],['male'],[],['male'],[[1]],[[0.28557588]],MY
172,[[5]],[[173]],[[16]],['high holistic'],['left'],['inverted'],['U0335.bmp'],['female'],[],['male'],[[0]],[[0.33636178]],MY
173,[[5]],[[174]],[[2]],['high holistic'],['right'],['upright'],['U0014.bmp'],['male'],[],['female'],[[0]],[[0.33176819]],MY
174,[[5]],[[175]],[[14]],['high holistic'],['right'],['inverted'],['U0228.bmp'],['male'],[],['female'],[[0]],[[0.27159864]],MY
175,[[5]],[[176]],[[11]],['high holistic'],['left'],['upright'],['U0164.bmp'],['female'],[],['male'],[[0]],[[0.26696883]],MY
176,[[5]],[[177]],[[4]],['low holistic'],['left'],['inverted'],['U0061.bmp'],['female'],[],['male'],[[0]],[[0.40986467]],MY
177,[[5]],[[178]],[[19]],['high holistic'],['right'],['inverted'],['U0361.bmp'],['female'],[],['male'],[[0]],[[0.19298941]],MY
178,[[5]],[[179]],[[12]],['high holistic'],['right'],['inverted'],['U0178.bmp'],['male'],[],['male'],[[1]],[[0.37690154]],MY
179,[[5]],[[180]],[[9]],['high holistic'],['left'],['inverted'],['U0155.bmp'],['female'],[],['male'],[[0]],[[0.80984352]],MY
180,[[5]],[[181]],[[19]],['high holistic'],['right'],['upright'],['U0361.bmp'],['female'],[],['male'],[[0]],[[0.09849077]],MY
181,[[5]],[[182]],[[14]],['low holistic'],['left'],['upright'],['U0228.bmp'],['male'],[],['male'],[[1]],[[0.20592182]],MY
182,[[5]],[[183]],[[10]],['high holistic'],['left'],['upright'],['U0159.bmp'],['male'],[],['male'],[[1]],[[0.12543484]],MY
183,[[5]],[[184]],[[17]],['low holistic'],['right'],['inverted'],['U0346.bmp'],['female'],[],['female'],[[1]],[[1.1694261]],MY
184,[[5]],[[185]],[[11]],['low holistic'],['left'],['inverted'],['U0164.bmp'],['female'],[],['female'],[[1]],[[0.073776]],MY
185,[[5]],[[186]],[[12]],['low holistic'],['right'],['inverted'],['U0178.bmp'],['female'],[],['female'],[[1]],[[0.23080149]],MY
186,[[5]],[[187]],[[14]],['low holistic'],['left'],['inverted'],['U0228.bmp'],['male'],[],['female'],[[0]],[[1.19762639]],MY
187,[[5]],[[188]],[[8]],['high holistic'],['right'],['upright'],['U0137.bmp'],['female'],[],['male'],[[0]],[[0.20507944]],MY
188,[[5]],[[189]],[[5]],['low holistic'],['left'],['inverted'],['U0076.bmp'],['male'],[],['male'],[[1]],[[0.45365134]],MY
189,[[5]],[[190]],[[12]],['low holistic'],['left'],['upright'],['U0178.bmp'],['female'],[],['female'],[[1]],[[0.03263047]],MY
190,[[5]],[[191]],[[18]],['high holistic'],['fovea'],['upright'],['U0359.bmp'],['male'],[],['male'],[[1]],[[0.39256149]],MY
191,[[5]],[[192]],[[9]],['high holistic'],['left'],['inverted'],['U0155.bmp'],['female'],[],['female'],[[1]],[[0.60214118]],MY
192,[[5]],[[193]],[[3]],['high holistic'],['fovea'],['inverted'],['U0020.bmp'],['male'],[],['female'],[[0]],[[0.25794894]],MY
193,[[5]],[[194]],[[9]],['low holistic'],['right'],['inverted'],['U0155.bmp'],['male'],[],['female'],[[0]],[[0.31020347]],MY
194,[[5]],[[195]],[[7]],['high holistic'],['right'],['upright'],['U0107.bmp'],['female'],[],['male'],[[0]],[[0.09918074]],MY
195,[[5]],[[196]],[[9]],['high holistic'],['right'],['upright'],['U0155.bmp'],['female'],[],['male'],[[0]],[[0.01461669]],MY
196,[[5]],[[197]],[[17]],['high holistic'],['fovea'],['inverted'],['U0346.bmp'],['male'],[],['male'],[[1]],[[0.15089835]],MY
197,[[5]],[[198]],[[9]],['low holistic'],['left'],['upright'],['U0155.bmp'],['male'],[],['male'],[[1]],[[0.24029804]],MY
198,[[5]],[[199]],[[8]],['high holistic'],['right'],['upright'],['U0137.bmp'],['female'],[],['male'],[[0]],[[0.03039858]],MY
199,[[5]],[[200]],[[8]],['high holistic'],['left'],['upright'],['U0137.bmp'],['female'],[],['male'],[[0]],[[0.27668871]],MY
200,[[5]],[[201]],[[3]],['low holistic'],['left'],['upright'],['U0020.bmp'],['female'],[],['female'],[[1]],[[0.25714956]],MY
201,[[5]],[[202]],[[6]],['high holistic'],['left'],['inverted'],['U0106.bmp'],['female'],[],['female'],[[1]],[[0.27042383]],MY
202,[[5]],[[203]],[[2]],['low holistic'],['left'],['inverted'],['U0014.bmp'],['male'],[],['male'],[[1]],[[0.27529019]],MY
203,[[5]],[[204]],[[9]],['high holistic'],['right'],['upright'],['U0155.bmp'],['female'],[],['female'],[[1]],[[0.27994559]],MY
204,[[5]],[[205]],[[6]],['low holistic'],['right'],['upright'],['U0106.bmp'],['male'],[],['male'],[[1]],[[0.18944386]],MY
205,[[5]],[[206]],[[6]],['high holistic'],['left'],['inverted'],['U0106.bmp'],['female'],[],['male'],[[0]],[[0.13398373]],MY
206,[[5]],[[207]],[[9]],['low holistic'],['right'],['upright'],['U0155.bmp'],['male'],[],['male'],[[1]],[[0.12774357]],MY
207,[[5]],[[208]],[[3]],['high holistic'],['left'],['inverted'],['U0020.bmp'],['male'],[],['female'],[[0]],[[0.30734891]],MY
208,[[5]],[[209]],[[10]],['low holistic'],['left'],['upright'],['U0159.bmp'],['female'],[],['female'],[[1]],[[0.36619787]],MY
209,[[5]],[[210]],[[15]],['low holistic'],['right'],['upright'],['U0312.bmp'],['male'],[],['male'],[[1]],[[0.36108063]],MY
210,[[5]],[[211]],[[5]],['high holistic'],['fovea'],['upright'],['U0076.bmp'],['female'],[],['female'],[[1]],[[0.2026395]],MY
211,[[5]],[[212]],[[16]],['high holistic'],['left'],['inverted'],['U0335.bmp'],['female'],[],['male'],[[0]],[[0.50578106]],MY
212,[[5]],[[213]],[[2]],['low holistic'],['right'],['upright'],['U0014.bmp'],['male'],[],['female'],[[0]],[[0.14145042]],MY
213,[[5]],[[214]],[[8]],['high holistic'],['right'],['upright'],['U0137.bmp'],['female'],[],['female'],[[1]],[[0.6954451]],MY
214,[[5]],[[215]],[[1]],['high holistic'],['right'],['upright'],['U0006.bmp'],['female'],[],['female'],[[1]],[[0.3315004]],MY
215,[[5]],[[216]],[[5]],['high holistic'],['left'],['inverted'],['U0076.bmp'],['female'],[],['male'],[[0]],[[0.08614438]],MY
216,[[5]],[[217]],[[1]],['high holistic'],['left'],['inverted'],['U0006.bmp'],['female'],[],['female'],[[1]],[[0.219178]],MY
217,[[5]],[[218]],[[4]],['high holistic'],['right'],['upright'],['U0061.bmp'],['female'],[],['male'],[[0]],[[0.87430768]],MY
218,[[5]],[[219]],[[3]],['high holistic'],['left'],['inverted'],['U0020.bmp'],['male'],[],['female'],[[0]],[[0.31304234]],MY
219,[[5]],[[220]],[[6]],['high holistic'],['fovea'],['inverted'],['U0106.bmp'],['female'],[],['female'],[[1]],[[0.37999684]],MY
220,[[5]],[[221]],[[4]],['low holistic'],['fovea'],['upright'],['U0061.bmp'],['female'],[],['female'],[[1]],[[0.54836972]],MY
221,[[5]],[[222]],[[3]],['low holistic'],['left'],['upright'],['U0020.bmp'],['female'],[],['female'],[[1]],[[0.46948564]],MY
222,[[5]],[[223]],[[12]],['high holistic'],['left'],['upright'],['U0178.bmp'],['male'],[],['female'],[[0]],[[1.27425692]],MY
223,[[5]],[[224]],[[19]],['high holistic'],['left'],['inverted'],['U0361.bmp'],['female'],[],['male'],[[0]],[[0.63314264]],MY
224,[[5]],[[225]],[[19]],['high holistic'],['left'],['upright'],['U0361.bmp'],['female'],[],['male'],[[0]],[[0.29439448]],MY
225,[[5]],[[226]],[[5]],['high holistic'],['left'],['inverted'],['U0076.bmp'],['female'],[],['male'],[[0]],[[0.1712734]],MY
226,[[5]],[[227]],[[10]],['high holistic'],['left'],['upright'],['U0159.bmp'],['male'],[],['male'],[[1]],[[0.18757178]],MY
227,[[5]],[[228]],[[8]],['low holistic'],['right'],['upright'],['U0137.bmp'],['male'],[],['male'],[[1]],[[0.10044187]],MY
228,[[5]],[[229]],[[11]],['high holistic'],['right'],['upright'],['U0164.bmp'],['female'],[],['male'],[[0]],[[0.50484011]],MY
229,[[5]],[[230]],[[6]],['high holistic'],['left'],['upright'],['U0106.bmp'],['female'],[],['male'],[[0]],[[0.63605605]],MY
230,[[5]],[[231]],[[2]],['high holistic'],['left'],['inverted'],['U0014.bmp'],['male'],[],['female'],[[0]],[[0.30727285]],MY
231,[[5]],[[232]],[[9]],['high holistic'],['right'],['inverted'],['U0155.bmp'],['female'],[],['male'],[[0]],[[3.66244099]],MY
232,[[5]],[[233]],[[4]],['low holistic'],['right'],['upright'],['U0061.bmp'],['female'],[],['female'],[[1]],[[0.34021511]],MY
233,[[5]],[[234]],[[1]],['low holistic'],['right'],['inverted'],['U0006.bmp'],['female'],[],['female'],[[1]],[[0.34989424]],MY
234,[[5]],[[235]],[[20]],['high holistic'],['right'],['inverted'],['U0362.bmp'],['female'],[],['male'],[[0]],[[0.12032631]],MY
235,[[5]],[[236]],[[9]],['low holistic'],['right'],['inverted'],['U0155.bmp'],['male'],[],['male'],[[1]],[[1.02818847]],MY
236,[[5]],[[237]],[[20]],['high holistic'],['right'],['inverted'],['U0362.bmp'],['female'],[],['female'],[[1]],[[0.93048402]],MY
237,[[5]],[[238]],[[16]],['high holistic'],['right'],['inverted'],['U0335.bmp'],['female'],[],['female'],[[1]],[[0.65272697]],MY
238,[[5]],[[239]],[[1]],['low holistic'],['right'],['upright'],['U0006.bmp'],['female'],[],['female'],[[1]],[[0.05124075]],MY
239,[[5]],[[240]],[[14]],['low holistic'],['right'],['upright'],['U0228.bmp'],['male'],[],['male'],[[1]],[[0.13702745]],MY
240,[[5]],[[241]],[[15]],['low holistic'],['right'],['inverted'],['U0312.bmp'],['male'],[],['male'],[[1]],[[0.49221046]],MY
241,[[5]],[[242]],[[13]],['low holistic'],['right'],['inverted'],['U0181.bmp'],['male'],[],['male'],[[1]],[[0.10429484]],MY
242,[[5]],[[243]],[[12]],['high holistic'],['left'],['inverted'],['U0178.bmp'],['male'],[],['female'],[[0]],[[0.32396629]],MY
243,[[5]],[[244]],[[5]],['high holistic'],['right'],['upright'],['U0076.bmp'],['female'],[],['male'],[[0]],[[0.18352568]],MY
244,[[5]],[[245]],[[16]],['low holistic'],['right'],['inverted'],['U0335.bmp'],['female'],[],['female'],[[1]],[[0.88008016]],MY
245,[[5]],[[246]],[[5]],['low holistic'],['right'],['inverted'],['U0076.bmp'],['male'],[],['male'],[[1]],[[0.17259001]],MY
246,[[5]],[[247]],[[8]],['high holistic'],['left'],['upright'],['U0137.bmp'],['female'],[],['female'],[[1]],[[0.51781457]],MY
247,[[5]],[[248]],[[18]],['high holistic'],['left'],['upright'],['U0359.bmp'],['male'],[],['male'],[[1]],[[0.20813628]],MY
248,[[5]],[[249]],[[18]],['high holistic'],['right'],['upright'],['U0359.bmp'],['male'],[],['male'],[[1]],[[0.31255335]],MY
249,[[5]],[[250]],[[9]],['low holistic'],['right'],['inverted'],['U0155.bmp'],['male'],[],['male'],[[1]],[[0.17177658]],MY
250,[[5]],[[251]],[[7]],['high holistic'],['right'],['inverted'],['U0107.bmp'],['female'],[],['female'],[[1]],[[0.09302437]],MY
251,[[5]],[[252]],[[13]],['high holistic'],['left'],['inverted'],['U0181.bmp'],['female'],[],['male'],[[0]],[[0.47356126]],MY
252,[[5]],[[253]],[[19]],['high holistic'],['left'],['upright'],['U0361.bmp'],['female'],[],['female'],[[1]],[[0.30366007]],MY
253,[[5]],[[254]],[[19]],['high holistic'],['right'],['upright'],['U0361.bmp'],['female'],[],['female'],[[1]],[[0.0015994]],MY
254,[[5]],[[255]],[[12]],['high holistic'],['left'],['inverted'],['U0178.bmp'],['male'],[],['female'],[[0]],[[0.67258034]],MY
255,[[5]],[[256]],[[7]],['low holistic'],['right'],['upright'],['U0107.bmp'],['female'],[],['female'],[[1]],[[0.20044295]],MY
256,[[5]],[[257]],[[18]],['high holistic'],['left'],['upright'],['U0359.bmp'],['male'],[],['male'],[[1]],[[0.06302555]],MY
257,[[5]],[[258]],[[9]],['high holistic'],['fovea'],['inverted'],['U0155.bmp'],['female'],[],['female'],[[1]],[[0.27656041]],MY
258,[[5]],[[259]],[[19]],['low holistic'],['left'],['inverted'],['U0361.bmp'],['female'],[],['female'],[[1]],[[0.20129601]],MY
259,[[5]],[[260]],[[1]],['low holistic'],['left'],['upright'],['U0006.bmp'],['female'],[],['female'],[[1]],[[0.00029248]],MY
260,[[5]],[[261]],[[11]],['low holistic'],['right'],['upright'],['U0164.bmp'],['female'],[],['female'],[[1]],[[2.55604252]],MY
261,[[5]],[[262]],[[15]],['low holistic'],['right'],['upright'],['U0312.bmp'],['male'],[],['male'],[[1]],[[0.2374974]],MY
262,[[5]],[[263]],[[4]],['low holistic'],['right'],['upright'],['U0061.bmp'],['female'],[],['female'],[[1]],[[0.37848694]],MY
263,[[5]],[[264]],[[7]],['low holistic'],['left'],['upright'],['U0107.bmp'],['female'],[],['female'],[[1]],[[0.00010114]],MY
264,[[5]],[[265]],[[4]],['low holistic'],['left'],['upright'],['U0061.bmp'],['female'],[],['male'],[[0]],[[0.0769187]],MY
265,[[5]],[[266]],[[7]],['low holistic'],['right'],['inverted'],['U0107.bmp'],['female'],[],['female'],[[1]],[[0.14525925]],MY
266,[[5]],[[267]],[[9]],['high holistic'],['left'],['upright'],['U0155.bmp'],['female'],[],['female'],[[1]],[[0.43511445]],MY
267,[[5]],[[268]],[[11]],['low holistic'],['left'],['inverted'],['U0164.bmp'],['female'],[],['female'],[[1]],[[0.00010585]],MY
268,[[5]],[[269]],[[1]],['high holistic'],['left'],['inverted'],['U0006.bmp'],['female'],[],['female'],[[1]],[[0.28206457]],MY
269,[[5]],[[270]],[[12]],['high holistic'],['right'],['upright'],['U0178.bmp'],['male'],[],['male'],[[1]],[[0.03860489]],MY
270,[[5]],[[271]],[[6]],['high holistic'],['right'],['inverted'],['U0106.bmp'],['female'],[],['male'],[[0]],[[0.22176165]],MY
271,[[5]],[[272]],[[5]],['low holistic'],['left'],['upright'],['U0076.bmp'],['male'],[],['male'],[[1]],[[0.00010774]],MY
272,[[5]],[[273]],[[5]],['high holistic'],['left'],['upright'],['U0076.bmp'],['female'],[],['male'],[[0]],[[0.04502447]],MY
273,[[5]],[[274]],[[4]],['low holistic'],['fovea'],['upright'],['U0061.bmp'],['female'],[],['female'],[[1]],[[0.03396356]],MY
274,[[5]],[[275]],[[20]],['low holistic'],['left'],['upright'],['U0362.bmp'],['male'],[],['male'],[[1]],[[0.32080151]],MY
275,[[5]],[[276]],[[19]],['low holistic'],['left'],['upright'],['U0361.bmp'],['female'],[],['female'],[[1]],[[2.42909072]],MY
276,[[5]],[[277]],[[17]],['high holistic'],['left'],['inverted'],['U0346.bmp'],['male'],[],['female'],[[0]],[[9.78261232e-05]],MY
277,[[5]],[[278]],[[15]],['high holistic'],['fovea'],['inverted'],['U0312.bmp'],['male'],[],['female'],[[0]],[[0.00016617]],MY
278,[[5]],[[279]],[[4]],['high holistic'],['right'],['inverted'],['U0061.bmp'],['female'],[],['female'],[[1]],[[0.00011918]],MY
279,[[5]],[[280]],[[8]],['low holistic'],['left'],['inverted'],['U0137.bmp'],['male'],[],['male'],[[1]],[[2.67464069]],MY
280,[[5]],[[281]],[[4]],['high holistic'],['left'],['upright'],['U0061.bmp'],['female'],[],['female'],[[1]],[[1.61461556]],MY
281,[[5]],[[282]],[[1]],['high holistic'],['fovea'],['inverted'],['U0006.bmp'],['female'],[],['male'],[[0]],[[0.72786219]],MY
282,[[5]],[[283]],[[7]],['low holistic'],['right'],['upright'],['U0107.bmp'],['female'],[],['female'],[[1]],[[0.46734026]],MY
283,[[5]],[[284]],[[14]],['high holistic'],['right'],['inverted'],['U0228.bmp'],['male'],[],['female'],[[0]],[[0.14258282]],MY
284,[[5]],[[285]],[[13]],['low holistic'],['left'],['upright'],['U0181.bmp'],['male'],[],['male'],[[1]],[[0.17042684]],MY
285,[[5]],[[286]],[[11]],['low holistic'],['right'],['inverted'],['U0164.bmp'],['female'],[],['female'],[[1]],[[0.07591788]],MY
286,[[5]],[[287]],[[9]],['high holistic'],['left'],['inverted'],['U0155.bmp'],['female'],[],['female'],[[1]],[[0.96725234]],MY
287,[[5]],[[288]],[[6]],['high holistic'],['left'],['inverted'],['U0106.bmp'],['female'],[],['female'],[[1]],[[0.15319593]],MY
288,[[5]],[[289]],[[11]],['high holistic'],['right'],['inverted'],['U0164.bmp'],['female'],[],['male'],[[0]],[[0.29152865]],MY
289,[[5]],[[290]],[[16]],['low holistic'],['left'],['upright'],['U0335.bmp'],['female'],[],['female'],[[1]],[[0.19886159]],MY
290,[[5]],[[291]],[[16]],['high holistic'],['left'],['inverted'],['U0335.bmp'],['female'],[],['male'],[[0]],[[0.09455419]],MY
291,[[5]],[[292]],[[12]],['low holistic'],['right'],['inverted'],['U0178.bmp'],['female'],[],['female'],[[1]],[[0.1003793]],MY
292,[[5]],[[293]],[[15]],['low holistic'],['right'],['inverted'],['U0312.bmp'],['male'],[],['male'],[[1]],[[0.13469319]],MY
293,[[5]],[[294]],[[13]],['low holistic'],['left'],['upright'],['U0181.bmp'],['male'],[],['male'],[[1]],[[0.02582391]],MY
294,[[5]],[[295]],[[3]],['high holistic'],['left'],['upright'],['U0020.bmp'],['male'],[],['male'],[[1]],[[0.07394598]],MY
295,[[5]],[[296]],[[11]],['low holistic'],['right'],['inverted'],['U0164.bmp'],['female'],[],['female'],[[1]],[[0.00016183]],MY
296,[[5]],[[297]],[[7]],['high holistic'],['right'],['upright'],['U0107.bmp'],['female'],[],['male'],[[0]],[[0.31149282]],MY
297,[[5]],[[298]],[[2]],['low holistic'],['right'],['upright'],['U0014.bmp'],['male'],[],['male'],[[1]],[[0.44281447]],MY
298,[[5]],[[299]],[[3]],['low holistic'],['right'],['inverted'],['U0020.bmp'],['female'],[],['female'],[[1]],[[0.19378395]],MY
299,[[5]],[[300]],[[4]],['low holistic'],['right'],['inverted'],['U0061.bmp'],['female'],[],['male'],[[0]],[[0.08018975]],MY
300,[[5]],[[301]],[[14]],['high holistic'],['left'],['upright'],['U0228.bmp'],['male'],[],['male'],[[1]],[[0.10061297]],MY
301,[[5]],[[302]],[[9]],['low holistic'],['right'],['upright'],['U0155.bmp'],['male'],[],['male'],[[1]],[[0.0001063]],MY
302,[[5]],[[303]],[[14]],['high holistic'],['left'],['upright'],['U0228.bmp'],['male'],[],['male'],[[1]],[[0.00034067]],MY
303,[[5]],[[304]],[[6]],['low holistic'],['right'],['inverted'],['U0106.bmp'],['male'],[],['female'],[[0]],[[0.46556603]],MY
304,[[5]],[[305]],[[1]],['low holistic'],['left'],['upright'],['U0006.bmp'],['female'],[],['female'],[[1]],[[0.26246293]],MY
305,[[5]],[[306]],[[11]],['low holistic'],['fovea'],['inverted'],['U0164.bmp'],['female'],[],['female'],[[1]],[[0.10724493]],MY
306,[[5]],[[307]],[[6]],['high holistic'],['left'],['inverted'],['U0106.bmp'],['female'],[],['male'],[[0]],[[0.04088681]],MY
307,[[5]],[[308]],[[19]],['high holistic'],['right'],['upright'],['U0361.bmp'],['female'],[],['male'],[[0]],[[0.0768736]],MY
308,[[5]],[[309]],[[19]],['low holistic'],['left'],['inverted'],['U0361.bmp'],['female'],[],['female'],[[1]],[[0.0002628]],MY
309,[[5]],[[310]],[[8]],['high holistic'],['left'],['upright'],['U0137.bmp'],['female'],[],['male'],[[0]],[[0.00989525]],MY
310,[[5]],[[311]],[[1]],['low holistic'],['left'],['inverted'],['U0006.bmp'],['female'],[],['female'],[[1]],[[0.06781867]],MY
311,[[5]],[[312]],[[14]],['high holistic'],['left'],['upright'],['U0228.bmp'],['male'],[],['male'],[[1]],[[0.24818303]],MY
312,[[5]],[[313]],[[17]],['high holistic'],['right'],['upright'],['U0346.bmp'],['male'],[],['male'],[[1]],[[0.00673261]],MY
313,[[5]],[[314]],[[20]],['high holistic'],['right'],['inverted'],['U0362.bmp'],['female'],[],['male'],[[0]],[[0.87698772]],MY
314,[[5]],[[315]],[[2]],['low holistic'],['right'],['upright'],['U0014.bmp'],['male'],[],['male'],[[1]],[[0.00034286]],MY
315,[[5]],[[316]],[[10]],['low holistic'],['right'],['inverted'],['U0159.bmp'],['female'],[],['female'],[[1]],[[0.04186137]],MY
316,[[5]],[[317]],[[12]],['high holistic'],['left'],['upright'],['U0178.bmp'],['male'],[],['male'],[[1]],[[0.11294064]],MY
317,[[5]],[[318]],[[14]],['high holistic'],['left'],['inverted'],['U0228.bmp'],['male'],[],['female'],[[0]],[[0.077036]],MY
318,[[5]],[[319]],[[15]],['high holistic'],['right'],['upright'],['U0312.bmp'],['male'],[],['male'],[[1]],[[0.01875913]],MY
319,[[5]],[[320]],[[14]],['high holistic'],['left'],['upright'],['U0228.bmp'],['male'],[],['male'],[[1]],[[0.05030876]],MY
320,[[5]],[[321]],[[15]],['high holistic'],['right'],['upright'],['U0312.bmp'],['male'],[],['male'],[[1]],[[0.01438282]],MY
321,[[5]],[[322]],[[8]],['high holistic'],['left'],['inverted'],['U0137.bmp'],['female'],[],['male'],[[0]],[[0.42925001]],MY
322,[[5]],[[323]],[[12]],['low holistic'],['right'],['upright'],['U0178.bmp'],['female'],[],['female'],[[1]],[[0.04555859]],MY
323,[[5]],[[324]],[[3]],['low holistic'],['left'],['inverted'],['U0020.bmp'],['female'],[],['male'],[[0]],[[0.06731159]],MY
324,[[5]],[[325]],[[2]],['high holistic'],['right'],['upright'],['U0014.bmp'],['male'],[],['male'],[[1]],[[9.83383507e-05]],MY
325,[[5]],[[326]],[[20]],['high holistic'],['right'],['inverted'],['U0362.bmp'],['female'],[],['male'],[[0]],[[0.05633119]],MY
326,[[5]],[[327]],[[6]],['low holistic'],['left'],['upright'],['U0106.bmp'],['male'],[],['male'],[[1]],[[0.2290702]],MY
327,[[5]],[[328]],[[12]],['low holistic'],['right'],['upright'],['U0178.bmp'],['female'],[],['female'],[[1]],[[0.01289966]],MY
328,[[5]],[[329]],[[20]],['high holistic'],['right'],['upright'],['U0362.bmp'],['female'],[],['male'],[[0]],[[0.3255599]],MY
329,[[5]],[[330]],[[4]],['low holistic'],['right'],['inverted'],['U0061.bmp'],['female'],[],['male'],[[0]],[[0.25530245]],MY
330,[[5]],[[331]],[[4]],['low holistic'],['left'],['upright'],['U0061.bmp'],['female'],[],['female'],[[1]],[[0.02134263]],MY
331,[[5]],[[332]],[[7]],['low holistic'],['right'],['inverted'],['U0107.bmp'],['female'],[],['female'],[[1]],[[0.0771541]],MY
332,[[5]],[[333]],[[19]],['high holistic'],['left'],['inverted'],['U0361.bmp'],['female'],[],['female'],[[1]],[[0.01841311]],MY
333,[[5]],[[334]],[[8]],['high holistic'],['right'],['upright'],['U0137.bmp'],['female'],[],['male'],[[0]],[[0.07987496]],MY
334,[[5]],[[335]],[[6]],['low holistic'],['right'],['upright'],['U0106.bmp'],['male'],[],['male'],[[1]],[[0.35802153]],MY
335,[[5]],[[336]],[[4]],['high holistic'],['right'],['upright'],['U0061.bmp'],['female'],[],['female'],[[1]],[[1.5512566]],MY
336,[[5]],[[337]],[[8]],['low holistic'],['right'],['upright'],['U0137.bmp'],['male'],[],['male'],[[1]],[[0.62505394]],MY
337,[[5]],[[338]],[[8]],['high holistic'],['right'],['upright'],['U0137.bmp'],['female'],[],['female'],[[1]],[[0.93495246]],MY
338,[[5]],[[339]],[[3]],['high holistic'],['left'],['inverted'],['U0020.bmp'],['male'],[],['female'],[[0]],[[0.53980789]],MY
339,[[5]],[[340]],[[9]],['low holistic'],['right'],['upright'],['U0155.bmp'],['male'],[],['male'],[[1]],[[0.1650427]],MY
340,[[5]],[[341]],[[2]],['high holistic'],['right'],['upright'],['U0014.bmp'],['male'],[],['male'],[[1]],[[0.41307284]],MY
341,[[5]],[[342]],[[13]],['low holistic'],['fovea'],['inverted'],['U0181.bmp'],['male'],[],['male'],[[1]],[[0.26940974]],MY
342,[[5]],[[343]],[[1]],['high holistic'],['left'],['inverted'],['U0006.bmp'],['female'],[],['female'],[[1]],[[0.33859788]],MY
343,[[5]],[[344]],[[12]],['low holistic'],['left'],['inverted'],['U0178.bmp'],['female'],[],['female'],[[1]],[[0.37122048]],MY
344,[[5]],[[345]],[[16]],['high holistic'],['left'],['upright'],['U0335.bmp'],['female'],[],['female'],[[1]],[[0.63653775]],MY
345,[[5]],[[346]],[[5]],['high holistic'],['right'],['upright'],['U0076.bmp'],['female'],[],['female'],[[1]],[[0.30803685]],MY
346,[[5]],[[347]],[[9]],['low holistic'],['right'],['upright'],['U0155.bmp'],['male'],[],['male'],[[1]],[[0.18430264]],MY
347,[[5]],[[348]],[[12]],['high holistic'],['left'],['upright'],['U0178.bmp'],['male'],[],['male'],[[1]],[[0.19166494]],MY
348,[[5]],[[349]],[[2]],['low holistic'],['left'],['upright'],['U0014.bmp'],['male'],[],['male'],[[1]],[[0.29676083]],MY
349,[[5]],[[350]],[[10]],['high holistic'],['left'],['upright'],['U0159.bmp'],['male'],[],['male'],[[1]],[[0.12496284]],MY
350,[[5]],[[351]],[[13]],['high holistic'],['left'],['upright'],['U0181.bmp'],['female'],[],['male'],[[0]],[[0.60691393]],MY
351,[[5]],[[352]],[[5]],['high holistic'],['right'],['upright'],['U0076.bmp'],['female'],[],['female'],[[1]],[[0.31882055]],MY
352,[[5]],[[353]],[[17]],['high holistic'],['right'],['upright'],['U0346.bmp'],['male'],[],['male'],[[1]],[[0.20247157]],MY
353,[[5]],[[354]],[[20]],['low holistic'],['left'],['upright'],['U0362.bmp'],['male'],[],['male'],[[1]],[[0.32303714]],MY
354,[[5]],[[355]],[[17]],['low holistic'],['right'],['upright'],['U0346.bmp'],['female'],[],['male'],[[0]],[[0.31650691]],MY
355,[[5]],[[356]],[[11]],['low holistic'],['right'],['inverted'],['U0164.bmp'],['female'],[],['female'],[[1]],[[1.15218658]],MY
356,[[5]],[[357]],[[6]],['high holistic'],['left'],['inverted'],['U0106.bmp'],['female'],[],['male'],[[0]],[[0.25134121]],MY
357,[[5]],[[358]],[[15]],['low holistic'],['right'],['upright'],['U0312.bmp'],['male'],[],['male'],[[1]],[[1.56776933]],MY
358,[[5]],[[359]],[[5]],['low holistic'],['left'],['inverted'],['U0076.bmp'],['male'],[],['female'],[[0]],[[0.35337932]],MY
359,[[5]],[[360]],[[20]],['low holistic'],['right'],['inverted'],['U0362.bmp'],['male'],[],['male'],[[1]],[[1.5157925]],MY
360,[[5]],[[361]],[[13]],['low holistic'],['right'],['upright'],['U0181.bmp'],['male'],[],['male'],[[1]],[[0.25547089]],MY
361,[[5]],[[362]],[[13]],['low holistic'],['left'],['inverted'],['U0181.bmp'],['male'],[],['male'],[[1]],[[0.06096793]],MY
362,[[5]],[[363]],[[4]],['low holistic'],['fovea'],['upright'],['U0061.bmp'],['female'],[],['female'],[[1]],[[0.07428156]],MY
363,[[5]],[[364]],[[2]],['low holistic'],['left'],['upright'],['U0014.bmp'],['male'],[],['male'],[[1]],[[0.9352187]],MY
364,[[5]],[[365]],[[6]],['high holistic'],['fovea'],['inverted'],['U0106.bmp'],['female'],[],['female'],[[1]],[[0.45699337]],MY
365,[[5]],[[366]],[[18]],['high holistic'],['left'],['inverted'],['U0359.bmp'],['male'],[],['female'],[[0]],[[0.41516977]],MY
366,[[5]],[[367]],[[19]],['low holistic'],['right'],['inverted'],['U0361.bmp'],['female'],[],['female'],[[1]],[[0.42999722]],MY
367,[[5]],[[368]],[[14]],['high holistic'],['right'],['upright'],['U0228.bmp'],['male'],[],['male'],[[1]],[[0.10210858]],MY
368,[[5]],[[369]],[[15]],['high holistic'],['right'],['upright'],['U0312.bmp'],['male'],[],['male'],[[1]],[[0.3145317]],MY
369,[[5]],[[370]],[[5]],['high holistic'],['fovea'],['upright'],['U0076.bmp'],['female'],[],['female'],[[1]],[[0.31707966]],MY
370,[[5]],[[371]],[[12]],['low holistic'],['right'],['upright'],['U0178.bmp'],['female'],[],['female'],[[1]],[[0.33573304]],MY
371,[[5]],[[372]],[[17]],['low holistic'],['left'],['inverted'],['U0346.bmp'],['female'],[],['female'],[[1]],[[0.44191211]],MY
372,[[5]],[[373]],[[9]],['low holistic'],['left'],['inverted'],['U0155.bmp'],['male'],[],['male'],[[1]],[[0.24239134]],MY
373,[[5]],[[374]],[[20]],['high holistic'],['fovea'],['inverted'],['U0362.bmp'],['female'],[],['female'],[[1]],[[0.38327377]],MY
374,[[5]],[[375]],[[2]],['high holistic'],['right'],['upright'],['U0014.bmp'],['male'],[],['male'],[[1]],[[0.23866473]],MY
375,[[5]],[[376]],[[7]],['low holistic'],['left'],['inverted'],['U0107.bmp'],['female'],[],['female'],[[1]],[[0.16640982]],MY
376,[[5]],[[377]],[[11]],['low holistic'],['left'],['inverted'],['U0164.bmp'],['female'],[],['female'],[[1]],[[0.20697892]],MY
377,[[5]],[[378]],[[2]],['low holistic'],['right'],['upright'],['U0014.bmp'],['male'],[],['male'],[[1]],[[0.07933344]],MY
378,[[5]],[[379]],[[15]],['high holistic'],['right'],['inverted'],['U0312.bmp'],['male'],[],['female'],[[0]],[[0.47553733]],MY
379,[[5]],[[380]],[[12]],['high holistic'],['right'],['inverted'],['U0178.bmp'],['male'],[],['male'],[[1]],[[0.28772314]],MY
380,[[5]],[[381]],[[11]],['low holistic'],['right'],['upright'],['U0164.bmp'],['female'],[],['female'],[[1]],[[0.20525913]],MY
381,[[5]],[[382]],[[17]],['high holistic'],['left'],['inverted'],['U0346.bmp'],['male'],[],['female'],[[0]],[[0.16462622]],MY
382,[[5]],[[383]],[[18]],['low holistic'],['right'],['upright'],['U0359.bmp'],['male'],[],['male'],[[1]],[[0.23008308]],MY
383,[[5]],[[384]],[[16]],['high holistic'],['left'],['inverted'],['U0335.bmp'],['female'],[],['female'],[[1]],[[0.42172538]],MY
384,[[5]],[[385]],[[7]],['low holistic'],['fovea'],['upright'],['U0107.bmp'],['female'],[],['female'],[[1]],[[0.355447]],MY
385,[[5]],[[386]],[[10]],['high holistic'],['right'],['inverted'],['U0159.bmp'],['male'],[],['male'],[[1]],[[0.67776965]],MY
386,[[5]],[[387]],[[16]],['high holistic'],['left'],['inverted'],['U0335.bmp'],['female'],[],['male'],[[0]],[[0.51473588]],MY
387,[[5]],[[388]],[[3]],['high holistic'],['left'],['inverted'],['U0020.bmp'],['male'],[],['male'],[[1]],[[0.46951646]],MY
388,[[5]],[[389]],[[3]],['low holistic'],['right'],['inverted'],['U0020.bmp'],['female'],[],['female'],[[1]],[[0.67443851]],MY
389,[[5]],[[390]],[[6]],['high holistic'],['right'],['inverted'],['U0106.bmp'],['female'],[],['female'],[[1]],[[0.17555333]],MY
390,[[5]],[[391]],[[11]],['high holistic'],['left'],['upright'],['U0164.bmp'],['female'],[],['female'],[[1]],[[0.44132074]],MY
391,[[5]],[[392]],[[20]],['high holistic'],['left'],['upright'],['U0362.bmp'],['female'],[],['female'],[[1]],[[0.16810769]],MY
392,[[5]],[[393]],[[15]],['high holistic'],['right'],['inverted'],['U0312.bmp'],['male'],[],['female'],[[0]],[[0.20844081]],MY
393,[[5]],[[394]],[[7]],['high holistic'],['right'],['inverted'],['U0107.bmp'],['female'],[],['female'],[[1]],[[0.14367745]],MY
394,[[5]],[[395]],[[6]],['high holistic'],['left'],['inverted'],['U0106.bmp'],['female'],[],['female'],[[1]],[[0.27583437]],MY
395,[[5]],[[396]],[[18]],['high holistic'],['right'],['inverted'],['U0359.bmp'],['male'],[],['male'],[[1]],[[0.55110491]],MY
396,[[5]],[[397]],[[19]],['low holistic'],['left'],['inverted'],['U0361.bmp'],['female'],[],['female'],[[1]],[[0.71315268]],MY
397,[[5]],[[398]],[[13]],['high holistic'],['left'],['upright'],['U0181.bmp'],['female'],[],['female'],[[1]],[[1.32633841]],MY
398,[[5]],[[399]],[[6]],['high holistic'],['right'],['inverted'],['U0106.bmp'],['female'],[],['female'],[[1]],[[0.12798259]],MY
399,[[5]],[[400]],[[2]],['low holistic'],['right'],['upright'],['U0014.bmp'],['male'],[],['male'],[[1]],[[0.07539788]],MY
400,[[5]],[[401]],[[17]],['low holistic'],['left'],['inverted'],['U0346.bmp'],['female'],[],['female'],[[1]],[[0.14373166]],MY
401,[[5]],[[402]],[[12]],['high holistic'],['left'],['upright'],['U0178.bmp'],['male'],[],['male'],[[1]],[[0.14715673]],MY
402,[[5]],[[403]],[[19]],['high holistic'],['right'],['inverted'],['U0361.bmp'],['female'],[],['female'],[[1]],[[0.1176067]],MY
403,[[5]],[[404]],[[2]],['low holistic'],['left'],['inverted'],['U0014.bmp'],['male'],[],['male'],[[1]],[[0.14401088]],MY
404,[[5]],[[405]],[[12]],['low holistic'],['right'],['inverted'],['U0178.bmp'],['female'],[],['female'],[[1]],[[0.28377393]],MY
405,[[5]],[[406]],[[6]],['high holistic'],['left'],['upright'],['U0106.bmp'],['female'],[],['male'],[[0]],[[0.1673739]],MY
406,[[5]],[[407]],[[17]],['high holistic'],['right'],['upright'],['U0346.bmp'],['male'],[],['female'],[[0]],[[0.07372315]],MY
407,[[5]],[[408]],[[4]],['low holistic'],['right'],['inverted'],['U0061.bmp'],['female'],[],['female'],[[1]],[[0.67630732]],MY
408,[[5]],[[409]],[[9]],['low holistic'],['right'],['upright'],['U0155.bmp'],['male'],[],['male'],[[1]],[[0.17826341]],MY
409,[[5]],[[410]],[[8]],['high holistic'],['left'],['inverted'],['U0137.bmp'],['female'],[],['female'],[[1]],[[0.37000064]],MY
410,[[5]],[[411]],[[17]],['high holistic'],['left'],['inverted'],['U0346.bmp'],['male'],[],['female'],[[0]],[[0.11505509]],MY
411,[[5]],[[412]],[[14]],['high holistic'],['left'],['inverted'],['U0228.bmp'],['male'],[],['male'],[[1]],[[0.43917844]],MY
412,[[5]],[[413]],[[5]],['high holistic'],['right'],['upright'],['U0076.bmp'],['female'],[],['female'],[[1]],[[0.22153162]],MY
413,[[5]],[[414]],[[7]],['low holistic'],['fovea'],['inverted'],['U0107.bmp'],['female'],[],['female'],[[1]],[[0.22132501]],MY
414,[[5]],[[415]],[[3]],['high holistic'],['left'],['inverted'],['U0020.bmp'],['male'],[],['female'],[[0]],[[0.33846921]],MY
415,[[5]],[[416]],[[14]],['high holistic'],['left'],['inverted'],['U0228.bmp'],['male'],[],['male'],[[1]],[[0.32673583]],MY
416,[[5]],[[417]],[[12]],['low holistic'],['left'],['upright'],['U0178.bmp'],['female'],[],['female'],[[1]],[[0.09735758]],MY
417,[[5]],[[418]],[[4]],['low holistic'],['left'],['upright'],['U0061.bmp'],['female'],[],['female'],[[1]],[[0.34886797]],MY
418,[[5]],[[419]],[[3]],['high holistic'],['left'],['upright'],['U0020.bmp'],['male'],[],['male'],[[1]],[[0.358951]],MY
419,[[5]],[[420]],[[10]],['low holistic'],['right'],['upright'],['U0159.bmp'],['female'],[],['female'],[[1]],[[0.19319293]],MY
420,[[5]],[[421]],[[19]],['low holistic'],['left'],['inverted'],['U0361.bmp'],['female'],[],['female'],[[1]],[[0.12986698]],MY
421,[[5]],[[422]],[[12]],['low holistic'],['right'],['upright'],['U0178.bmp'],['female'],[],['female'],[[1]],[[0.02064316]],MY
422,[[5]],[[423]],[[1]],['low holistic'],['right'],['upright'],['U0006.bmp'],['female'],[],['female'],[[1]],[[9.88943502e-05]],MY
423,[[5]],[[424]],[[2]],['high holistic'],['left'],['inverted'],['U0014.bmp'],['male'],[],['male'],[[1]],[[0.42755348]],MY
424,[[5]],[[425]],[[17]],['low holistic'],['left'],['upright'],['U0346.bmp'],['female'],[],['female'],[[1]],[[0.28872836]],MY
425,[[5]],[[426]],[[10]],['low holistic'],['left'],['inverted'],['U0159.bmp'],['female'],[],['female'],[[1]],[[0.00026926]],MY
426,[[5]],[[427]],[[8]],['high holistic'],['right'],['inverted'],['U0137.bmp'],['female'],[],['male'],[[0]],[[0.16695507]],MY
427,[[5]],[[428]],[[16]],['low holistic'],['left'],['inverted'],['U0335.bmp'],['female'],[],['female'],[[1]],[[0.13413316]],MY
428,[[5]],[[429]],[[8]],['high holistic'],['right'],['inverted'],['U0137.bmp'],['female'],[],['female'],[[1]],[[0.01860179]],MY
429,[[5]],[[430]],[[11]],['low holistic'],['left'],['upright'],['U0164.bmp'],['female'],[],['male'],[[0]],[[0.0722163]],MY
430,[[5]],[[431]],[[15]],['low holistic'],['left'],['inverted'],['U0312.bmp'],['male'],[],['female'],[[0]],[[0.07099686]],MY
431,[[5]],[[432]],[[18]],['high holistic'],['right'],['inverted'],['U0359.bmp'],['male'],[],['male'],[[1]],[[2.17888505]],MY
432,[[5]],[[433]],[[7]],['high holistic'],['right'],['inverted'],['U0107.bmp'],['female'],[],['male'],[[0]],[[0.59520044]],MY
433,[[5]],[[434]],[[14]],['high holistic'],['left'],['upright'],['U0228.bmp'],['male'],[],['male'],[[1]],[[0.31680578]],MY
434,[[5]],[[435]],[[20]],['high holistic'],['left'],['inverted'],['U0362.bmp'],['female'],[],['female'],[[1]],[[0.19064472]],MY
435,[[5]],[[436]],[[2]],['high holistic'],['left'],['upright'],['U0014.bmp'],['male'],[],['male'],[[1]],[[0.13530792]],MY
436,[[5]],[[437]],[[12]],['high holistic'],['right'],['inverted'],['U0178.bmp'],['male'],[],['female'],[[0]],[[0.72270246]],MY
437,[[5]],[[438]],[[9]],['low holistic'],['right'],['inverted'],['U0155.bmp'],['male'],[],['female'],[[0]],[[0.30148234]],MY
438,[[5]],[[439]],[[7]],['high holistic'],['right'],['upright'],['U0107.bmp'],['female'],[],['male'],[[0]],[[0.10333044]],MY
439,[[5]],[[440]],[[6]],['high holistic'],['right'],['inverted'],['U0106.bmp'],['female'],[],['female'],[[1]],[[0.46796243]],MY
440,[[5]],[[441]],[[16]],['high holistic'],['right'],['upright'],['U0335.bmp'],['female'],[],['male'],[[0]],[[0.22661805]],MY
441,[[5]],[[442]],[[20]],['high holistic'],['right'],['inverted'],['U0362.bmp'],['female'],[],['male'],[[0]],[[0.09566624]],MY
442,[[5]],[[443]],[[4]],['low holistic'],['right'],['inverted'],['U0061.bmp'],['female'],[],['male'],[[0]],[[0.00026147]],MY
443,[[5]],[[444]],[[16]],['low holistic'],['fovea'],['upright'],['U0335.bmp'],['female'],[],['female'],[[1]],[[0.02764018]],MY
444,[[5]],[[445]],[[4]],['high holistic'],['right'],['upright'],['U0061.bmp'],['female'],[],['female'],[[1]],[[0.3068337]],MY
445,[[5]],[[446]],[[20]],['low holistic'],['right'],['upright'],['U0362.bmp'],['male'],[],['male'],[[1]],[[0.25384547]],MY
446,[[5]],[[447]],[[17]],['low holistic'],['left'],['inverted'],['U0346.bmp'],['female'],[],['female'],[[1]],[[0.15684596]],MY
447,[[5]],[[448]],[[9]],['low holistic'],['left'],['inverted'],['U0155.bmp'],['male'],[],['male'],[[1]],[[0.31724132]],MY
448,[[5]],[[449]],[[15]],['low holistic'],['right'],['upright'],['U0312.bmp'],['male'],[],['male'],[[1]],[[0.04126746]],MY
449,[[5]],[[450]],[[10]],['low holistic'],['right'],['upright'],['U0159.bmp'],['female'],[],['female'],[[1]],[[0.11027947]],MY
450,[[5]],[[451]],[[17]],['low holistic'],['right'],['inverted'],['U0346.bmp'],['female'],[],['female'],[[1]],[[1.22568346]],MY
451,[[5]],[[452]],[[8]],['low holistic'],['right'],['inverted'],['U0137.bmp'],['male'],[],['male'],[[1]],[[0.6021762]],MY
452,[[5]],[[453]],[[2]],['low holistic'],['left'],['upright'],['U0014.bmp'],['male'],[],['male'],[[1]],[[0.08991592]],MY
453,[[5]],[[454]],[[12]],['high holistic'],['right'],['inverted'],['U0178.bmp'],['male'],[],['female'],[[0]],[[0.06875517]],MY
454,[[5]],[[455]],[[19]],['low holistic'],['left'],['inverted'],['U0361.bmp'],['female'],[],['female'],[[1]],[[0.49745434]],MY
455,[[5]],[[456]],[[4]],['low holistic'],['left'],['inverted'],['U0061.bmp'],['female'],[],['female'],[[1]],[[0.08662913]],MY
456,[[5]],[[457]],[[9]],['high holistic'],['right'],['upright'],['U0155.bmp'],['female'],[],['male'],[[0]],[[0.2358116]],MY
457,[[5]],[[458]],[[15]],['low holistic'],['right'],['upright'],['U0312.bmp'],['male'],[],['male'],[[1]],[[0.14587805]],MY
458,[[5]],[[459]],[[1]],['high holistic'],['left'],['upright'],['U0006.bmp'],['female'],[],['male'],[[0]],[[0.1782289]],MY
459,[[5]],[[460]],[[19]],['high holistic'],['left'],['inverted'],['U0361.bmp'],['female'],[],['male'],[[0]],[[0.0766363]],MY
460,[[5]],[[461]],[[16]],['high holistic'],['right'],['upright'],['U0335.bmp'],['female'],[],['female'],[[1]],[[0.36197286]],MY
461,[[5]],[[462]],[[12]],['high holistic'],['right'],['upright'],['U0178.bmp'],['male'],[],['male'],[[1]],[[0.15494624]],MY
462,[[5]],[[463]],[[4]],['low holistic'],['left'],['inverted'],['U0061.bmp'],['female'],[],['male'],[[0]],[[2.85894204]],MY
463,[[5]],[[464]],[[10]],['high holistic'],['right'],['upright'],['U0159.bmp'],['male'],[],['male'],[[1]],[[0.17654182]],MY
464,[[5]],[[465]],[[11]],['low holistic'],['right'],['inverted'],['U0164.bmp'],['female'],[],['female'],[[1]],[[0.15389652]],MY
465,[[5]],[[466]],[[20]],['low holistic'],['right'],['inverted'],['U0362.bmp'],['male'],[],['male'],[[1]],[[0.31556809]],MY
466,[[5]],[[467]],[[18]],['low holistic'],['right'],['inverted'],['U0359.bmp'],['male'],[],['male'],[[1]],[[0.8238567]],MY
467,[[5]],[[468]],[[20]],['low holistic'],['left'],['inverted'],['U0362.bmp'],['male'],[],['male'],[[1]],[[0.18229561]],MY
468,[[5]],[[469]],[[14]],['low holistic'],['left'],['upright'],['U0228.bmp'],['male'],[],['male'],[[1]],[[0.09363573]],MY
469,[[5]],[[470]],[[9]],['high holistic'],['left'],['inverted'],['U0155.bmp'],['female'],[],['male'],[[0]],[[0.85919366]],MY
470,[[5]],[[471]],[[19]],['high holistic'],['right'],['inverted'],['U0361.bmp'],['female'],[],['female'],[[1]],[[0.44074541]],MY
471,[[5]],[[472]],[[10]],['low holistic'],['left'],['inverted'],['U0159.bmp'],['female'],[],['female'],[[1]],[[0.18923673]],MY
472,[[5]],[[473]],[[5]],['low holistic'],['left'],['inverted'],['U0076.bmp'],['male'],[],['male'],[[1]],[[1.20498197]],MY
473,[[5]],[[474]],[[8]],['low holistic'],['left'],['upright'],['U0137.bmp'],['male'],[],['male'],[[1]],[[0.22837091]],MY
474,[[5]],[[475]],[[15]],['low holistic'],['left'],['inverted'],['U0312.bmp'],['male'],[],['male'],[[1]],[[0.09049323]],MY
475,[[5]],[[476]],[[12]],['low holistic'],['left'],['upright'],['U0178.bmp'],['female'],[],['female'],[[1]],[[0.00030773]],MY
476,[[5]],[[477]],[[16]],['low holistic'],['left'],['inverted'],['U0335.bmp'],['female'],[],['female'],[[1]],[[0.10435316]],MY
477,[[5]],[[478]],[[20]],['high holistic'],['right'],['inverted'],['U0362.bmp'],['female'],[],['female'],[[1]],[[0.17879291]],MY
478,[[5]],[[479]],[[20]],['high holistic'],['left'],['upright'],['U0362.bmp'],['female'],[],['female'],[[1]],[[0.16253285]],MY
479,[[5]],[[480]],[[11]],['high holistic'],['right'],['inverted'],['U0164.bmp'],['female'],[],['male'],[[0]],[[0.35640974]],MY
480,[[5]],[[481]],[[20]],['high holistic'],['left'],['upright'],['U0362.bmp'],['female'],[],['female'],[[1]],[[0.0452273]],MY
481,[[5]],[[482]],[[3]],['low holistic'],['right'],['upright'],['U0020.bmp'],['female'],[],['male'],[[0]],[[0.42880945]],MY
482,[[5]],[[483]],[[2]],['high holistic'],['right'],['inverted'],['U0014.bmp'],['male'],[],['male'],[[1]],[[0.41918675]],MY
483,[[5]],[[484]],[[7]],['high holistic'],['right'],['upright'],['U0107.bmp'],['female'],[],['female'],[[1]],[[0.12996039]],MY
484,[[5]],[[485]],[[12]],['low holistic'],['right'],['inverted'],['U0178.bmp'],['female'],[],['female'],[[1]],[[0.13218362]],MY
485,[[5]],[[486]],[[11]],['low holistic'],['left'],['inverted'],['U0164.bmp'],['female'],[],['female'],[[1]],[[0.00018134]],MY
486,[[5]],[[487]],[[19]],['low holistic'],['fovea'],['upright'],['U0361.bmp'],['female'],[],['female'],[[1]],[[0.00014868]],MY
487,[[5]],[[488]],[[11]],['low holistic'],['left'],['inverted'],['U0164.bmp'],['female'],[],['female'],[[1]],[[0.00010515]],MY
488,[[5]],[[489]],[[9]],['low holistic'],['right'],['inverted'],['U0155.bmp'],['male'],[],['male'],[[1]],[[2.11737697]],MY
489,[[5]],[[490]],[[11]],['low holistic'],['right'],['upright'],['U0164.bmp'],['female'],[],['female'],[[1]],[[0.04151407]],MY
490,[[5]],[[491]],[[15]],['low holistic'],['left'],['upright'],['U0312.bmp'],['male'],[],['male'],[[1]],[[0.16679852]],MY
491,[[5]],[[492]],[[1]],['low holistic'],['right'],['inverted'],['U0006.bmp'],['female'],[],['female'],[[1]],[[0.20785336]],MY
492,[[5]],[[493]],[[17]],['high holistic'],['left'],['upright'],['U0346.bmp'],['male'],[],['male'],[[1]],[[0.21364165]],MY
493,[[5]],[[494]],[[3]],['high holistic'],['right'],['upright'],['U0020.bmp'],['male'],[],['female'],[[0]],[[0.52554717]],MY
494,[[5]],[[495]],[[10]],['high holistic'],['left'],['inverted'],['U0159.bmp'],['male'],[],['male'],[[1]],[[0.29636717]],MY
495,[[5]],[[496]],[[6]],['high holistic'],['right'],['upright'],['U0106.bmp'],['female'],[],['female'],[[1]],[[0.21363544]],MY
496,[[5]],[[497]],[[8]],['low holistic'],['right'],['inverted'],['U0137.bmp'],['male'],[],['male'],[[1]],[[0.15421068]],MY
497,[[5]],[[498]],[[14]],['low holistic'],['right'],['inverted'],['U0228.bmp'],['male'],[],['male'],[[1]],[[0.22920772]],MY
498,[[5]],[[499]],[[4]],['low holistic'],['right'],['upright'],['U0061.bmp'],['female'],[],['female'],[[1]],[[0.03465383]],MY
499,[[5]],[[500]],[[6]],['low holistic'],['right'],['upright'],['U0106.bmp'],['male'],[],['male'],[[1]],[[0.10473699]],MY
500,[[5]],[[501]],[[4]],['low holistic'],['right'],['inverted'],['U0061.bmp'],['female'],[],['female'],[[1]],[[0.11760594]],MY
501,[[5]],[[502]],[[4]],['high holistic'],['left'],['inverted'],['U0061.bmp'],['female'],[],['female'],[[1]],[[0.51977753]],MY
502,[[5]],[[503]],[[7]],['high holistic'],['right'],['upright'],['U0107.bmp'],['female'],[],['male'],[[0]],[[0.15490849]],MY
503,[[5]],[[504]],[[18]],['low holistic'],['right'],['inverted'],['U0359.bmp'],['male'],[],['male'],[[1]],[[0.35542263]],MY
504,[[5]],[[505]],[[10]],['low holistic'],['fovea'],['inverted'],['U0159.bmp'],['female'],[],['female'],[[1]],[[0.04658384]],MY
505,[[5]],[[506]],[[9]],['low holistic'],['right'],['inverted'],['U0155.bmp'],['male'],[],['male'],[[1]],[[0.17966427]],MY
506,[[5]],[[507]],[[4]],['high holistic'],['left'],['upright'],['U0061.bmp'],['female'],[],['female'],[[1]],[[0.29248035]],MY
507,[[5]],[[508]],[[20]],['low holistic'],['left'],['upright'],['U0362.bmp'],['male'],[],['male'],[[1]],[[0.21663971]],MY
508,[[5]],[[509]],[[9]],['high holistic'],['right'],['upright'],['U0155.bmp'],['female'],[],['male'],[[0]],[[0.27062438]],MY
509,[[5]],[[510]],[[17]],['low holistic'],['left'],['upright'],['U0346.bmp'],['female'],[],['female'],[[1]],[[0.17123838]],MY
510,[[5]],[[511]],[[13]],['low holistic'],['left'],['upright'],['U0181.bmp'],['male'],[],['male'],[[1]],[[0.29153408]],MY
511,[[5]],[[512]],[[8]],['high holistic'],['left'],['upright'],['U0137.bmp'],['female'],[],['female'],[[1]],[[0.44885525]],MY
512,[[5]],[[513]],[[18]],['high holistic'],['left'],['inverted'],['U0359.bmp'],['male'],[],['female'],[[0]],[[0.22307405]],MY
513,[[5]],[[514]],[[16]],['high holistic'],['right'],['inverted'],['U0335.bmp'],['female'],[],['female'],[[1]],[[0.33962194]],MY
514,[[5]],[[515]],[[10]],['low holistic'],['left'],['upright'],['U0159.bmp'],['female'],[],['female'],[[1]],[[0.08693542]],MY
515,[[5]],[[516]],[[17]],['high holistic'],['left'],['inverted'],['U0346.bmp'],['male'],[],['female'],[[0]],[[0.12296498]],MY
516,[[5]],[[517]],[[18]],['low holistic'],['left'],['inverted'],['U0359.bmp'],['male'],[],['male'],[[1]],[[0.24564031]],MY
517,[[5]],[[518]],[[9]],['high holistic'],['right'],['inverted'],['U0155.bmp'],['female'],[],['female'],[[1]],[[0.17873553]],MY
518,[[5]],[[519]],[[7]],['high holistic'],['left'],['inverted'],['U0107.bmp'],['female'],[],['female'],[[1]],[[0.20336555]],MY
519,[[5]],[[520]],[[12]],['low holistic'],['left'],['inverted'],['U0178.bmp'],['female'],[],['female'],[[1]],[[0.01933744]],MY
520,[[5]],[[521]],[[19]],['low holistic'],['fovea'],['upright'],['U0361.bmp'],['female'],[],['female'],[[1]],[[0.07483475]],MY
521,[[5]],[[522]],[[15]],['high holistic'],['right'],['upright'],['U0312.bmp'],['male'],[],['male'],[[1]],[[0.01442978]],MY
522,[[5]],[[523]],[[8]],['high holistic'],['right'],['upright'],['U0137.bmp'],['female'],[],['female'],[[1]],[[0.78233491]],MY
523,[[5]],[[524]],[[15]],['high holistic'],['left'],['inverted'],['U0312.bmp'],['male'],[],['male'],[[1]],[[0.17558618]],MY
524,[[5]],[[525]],[[20]],['high holistic'],['left'],['inverted'],['U0362.bmp'],['female'],[],['female'],[[1]],[[0.33381679]],MY
525,[[5]],[[526]],[[11]],['low holistic'],['left'],['inverted'],['U0164.bmp'],['female'],[],['female'],[[1]],[[0.02512675]],MY
526,[[5]],[[527]],[[11]],['high holistic'],['right'],['upright'],['U0164.bmp'],['female'],[],['male'],[[0]],[[0.000213]],MY
527,[[5]],[[528]],[[7]],['low holistic'],['left'],['upright'],['U0107.bmp'],['female'],[],['female'],[[1]],[[0.03192222]],MY
528,[[5]],[[529]],[[2]],['high holistic'],['left'],['inverted'],['U0014.bmp'],['male'],[],['male'],[[1]],[[0.33484156]],MY
529,[[5]],[[530]],[[4]],['low holistic'],['left'],['upright'],['U0061.bmp'],['female'],[],['female'],[[1]],[[0.22508128]],MY
530,[[5]],[[531]],[[2]],['low holistic'],['right'],['upright'],['U0014.bmp'],['male'],[],['male'],[[1]],[[0.02731065]],MY
531,[[5]],[[532]],[[10]],['high holistic'],['left'],['upright'],['U0159.bmp'],['male'],[],['male'],[[1]],[[0.9570311]],MY
532,[[5]],[[533]],[[1]],['low holistic'],['right'],['inverted'],['U0006.bmp'],['female'],[],['male'],[[0]],[[0.30345012]],MY
533,[[5]],[[534]],[[19]],['low holistic'],['right'],['inverted'],['U0361.bmp'],['female'],[],['male'],[[0]],[[0.13133829]],MY
534,[[5]],[[535]],[[13]],['low holistic'],['right'],['inverted'],['U0181.bmp'],['male'],[],['male'],[[1]],[[0.0001169]],MY
535,[[5]],[[536]],[[1]],['low holistic'],['left'],['inverted'],['U0006.bmp'],['female'],[],['female'],[[1]],[[0.04438688]],MY
536,[[5]],[[537]],[[1]],['high holistic'],['right'],['inverted'],['U0006.bmp'],['female'],[],['female'],[[1]],[[0.09886527]],MY
537,[[5]],[[538]],[[5]],['high holistic'],['left'],['inverted'],['U0076.bmp'],['female'],[],['female'],[[1]],[[0.11741155]],MY
538,[[5]],[[539]],[[10]],['low holistic'],['right'],['upright'],['U0159.bmp'],['female'],[],['male'],[[0]],[[0.00010687]],MY
539,[[5]],[[540]],[[3]],['low holistic'],['fovea'],['upright'],['U0020.bmp'],['female'],[],['male'],[[0]],[[1.08982238]],MY
540,[[5]],[[541]],[[1]],['high holistic'],['fovea'],['inverted'],['U0006.bmp'],['female'],[],['female'],[[1]],[[0.53220548]],MY
541,[[5]],[[542]],[[15]],['high holistic'],['right'],['upright'],['U0312.bmp'],['male'],[],['female'],[[0]],[[0.17409627]],MY
542,[[5]],[[543]],[[8]],['low holistic'],['fovea'],['upright'],['U0137.bmp'],['male'],[],['male'],[[1]],[[0.24704095]],MY
543,[[5]],[[544]],[[16]],['low holistic'],['fovea'],['inverted'],['U0335.bmp'],['female'],[],['female'],[[1]],[[0.32613877]],MY
544,[[5]],[[545]],[[9]],['low holistic'],['right'],['inverted'],['U0155.bmp'],['male'],[],['male'],[[1]],[[0.35149506]],MY
545,[[5]],[[546]],[[9]],['high holistic'],['fovea'],['upright'],['U0155.bmp'],['female'],[],['male'],[[0]],[[0.95452123]],MY
546,[[5]],[[547]],[[1]],['high holistic'],['left'],['inverted'],['U0006.bmp'],['female'],[],['female'],[[1]],[[0.29991192]],MY
547,[[5]],[[548]],[[1]],['low holistic'],['fovea'],['upright'],['U0006.bmp'],['female'],[],['female'],[[1]],[[0.00011787]],MY
548,[[5]],[[549]],[[2]],['low holistic'],['right'],['upright'],['U0014.bmp'],['male'],[],['male'],[[1]],[[0.07057642]],MY
549,[[5]],[[550]],[[12]],['high holistic'],['left'],['inverted'],['U0178.bmp'],['male'],[],['female'],[[0]],[[0.40426061]],MY
550,[[5]],[[551]],[[5]],['low holistic'],['right'],['upright'],['U0076.bmp'],['male'],[],['male'],[[1]],[[0.15620693]],MY
551,[[5]],[[552]],[[17]],['high holistic'],['left'],['upright'],['U0346.bmp'],['male'],[],['male'],[[1]],[[0.43827851]],MY
552,[[5]],[[553]],[[18]],['low holistic'],['left'],['upright'],['U0359.bmp'],['male'],[],['male'],[[1]],[[0.45781559]],MY
553,[[5]],[[554]],[[20]],['high holistic'],['left'],['inverted'],['U0362.bmp'],['female'],[],['male'],[[0]],[[3.13729821]],MY
554,[[5]],[[555]],[[10]],['low holistic'],['right'],['upright'],['U0159.bmp'],['female'],[],['male'],[[0]],[[2.11427802]],MY
555,[[5]],[[556]],[[5]],['low holistic'],['right'],['upright'],['U0076.bmp'],['male'],[],['male'],[[1]],[[0.94789598]],MY
556,[[5]],[[557]],[[5]],['low holistic'],['right'],['upright'],['U0076.bmp'],['male'],[],['male'],[[1]],[[0.00034784]],MY
557,[[5]],[[558]],[[11]],['low holistic'],['right'],['upright'],['U0164.bmp'],['female'],[],['male'],[[0]],[[9.50265619]],MY
558,[[5]],[[559]],[[16]],['high holistic'],['left'],['inverted'],['U0335.bmp'],['female'],[],['female'],[[1]],[[1.57890251]],MY
559,[[5]],[[560]],[[7]],['high holistic'],['left'],['inverted'],['U0107.bmp'],['female'],[],['female'],[[1]],[[0.19443439]],MY
560,[[5]],[[561]],[[10]],['low holistic'],['left'],['upright'],['U0159.bmp'],['female'],[],['female'],[[1]],[[0.00010627]],MY
561,[[5]],[[562]],[[13]],['high holistic'],['left'],['upright'],['U0181.bmp'],['female'],[],['female'],[[1]],[[0.01693089]],MY
562,[[5]],[[563]],[[19]],['high holistic'],['right'],['upright'],['U0361.bmp'],['female'],[],['male'],[[0]],[[0.09679538]],MY
563,[[5]],[[564]],[[4]],['low holistic'],['fovea'],['upright'],['U0061.bmp'],['female'],[],['female'],[[1]],[[0.0930156]],MY
564,[[5]],[[565]],[[15]],['low holistic'],['right'],['inverted'],['U0312.bmp'],['male'],[],['female'],[[0]],[[0.09567865]],MY
565,[[5]],[[566]],[[12]],['high holistic'],['left'],['upright'],['U0178.bmp'],['male'],[],['male'],[[1]],[[0.14151797]],MY
566,[[5]],[[567]],[[9]],['high holistic'],['left'],['inverted'],['U0155.bmp'],['female'],[],['male'],[[0]],[[0.26969293]],MY
567,[[5]],[[568]],[[18]],['high holistic'],['left'],['inverted'],['U0359.bmp'],['male'],[],['female'],[[0]],[[0.16192853]],MY
568,[[5]],[[569]],[[8]],['low holistic'],['left'],['inverted'],['U0137.bmp'],['male'],[],['female'],[[0]],[[0.12396884]],MY
569,[[5]],[[570]],[[4]],['high holistic'],['left'],['upright'],['U0061.bmp'],['female'],[],['female'],[[1]],[[0.07779628]],MY
570,[[5]],[[571]],[[13]],['high holistic'],['left'],['upright'],['U0181.bmp'],['female'],[],['female'],[[1]],[[0.10797923]],MY
571,[[5]],[[572]],[[13]],['low holistic'],['left'],['upright'],['U0181.bmp'],['male'],[],['male'],[[1]],[[0.08634733]],MY
572,[[5]],[[573]],[[7]],['high holistic'],['right'],['upright'],['U0107.bmp'],['female'],[],['male'],[[0]],[[0.39415062]],MY
573,[[5]],[[574]],[[17]],['high holistic'],['left'],['upright'],['U0346.bmp'],['male'],[],['male'],[[1]],[[0.14669723]],MY
574,[[5]],[[575]],[[20]],['low holistic'],['fovea'],['inverted'],['U0362.bmp'],['male'],[],['male'],[[1]],[[0.0450771]],MY
575,[[5]],[[576]],[[20]],['low holistic'],['right'],['upright'],['U0362.bmp'],['male'],[],['male'],[[1]],[[9.8827295e-05]],MY
576,[[5]],[[577]],[[3]],['high holistic'],['right'],['inverted'],['U0020.bmp'],['male'],[],['female'],[[0]],[[0.63382781]],MY
577,[[5]],[[578]],[[5]],['low holistic'],['left'],['upright'],['U0076.bmp'],['male'],[],['male'],[[1]],[[0.12963449]],MY
578,[[5]],[[579]],[[1]],['low holistic'],['left'],['upright'],['U0006.bmp'],['female'],[],['female'],[[1]],[[0.30810968]],MY
579,[[5]],[[580]],[[13]],['high holistic'],['right'],['upright'],['U0181.bmp'],['female'],[],['female'],[[1]],[[0.31944421]],MY
580,[[5]],[[581]],[[3]],['low holistic'],['fovea'],['inverted'],['U0020.bmp'],['female'],[],['female'],[[1]],[[1.13824748]],MY
581,[[5]],[[582]],[[9]],['high holistic'],['fovea'],['inverted'],['U0155.bmp'],['female'],[],['male'],[[0]],[[0.4926433]],MY
582,[[5]],[[583]],[[18]],['high holistic'],['right'],['upright'],['U0359.bmp'],['male'],[],['male'],[[1]],[[0.20738209]],MY
583,[[5]],[[584]],[[11]],['high holistic'],['right'],['inverted'],['U0164.bmp'],['female'],[],['female'],[[1]],[[0.32689917]],MY
584,[[5]],[[585]],[[8]],['low holistic'],['left'],['inverted'],['U0137.bmp'],['male'],[],['male'],[[1]],[[0.24070305]],MY
585,[[5]],[[586]],[[5]],['high holistic'],['left'],['upright'],['U0076.bmp'],['female'],[],['female'],[[1]],[[0.26863248]],MY
586,[[5]],[[587]],[[9]],['low holistic'],['left'],['upright'],['U0155.bmp'],['male'],[],['male'],[[1]],[[0.25267684]],MY
587,[[5]],[[588]],[[20]],['low holistic'],['left'],['inverted'],['U0362.bmp'],['male'],[],['female'],[[0]],[[0.20193338]],MY
588,[[5]],[[589]],[[3]],['low holistic'],['right'],['upright'],['U0020.bmp'],['female'],[],['male'],[[0]],[[0.19199425]],MY
589,[[5]],[[590]],[[10]],['high holistic'],['right'],['upright'],['U0159.bmp'],['male'],[],['male'],[[1]],[[0.20265395]],MY
590,[[5]],[[591]],[[18]],['high holistic'],['left'],['upright'],['U0359.bmp'],['male'],[],['male'],[[1]],[[0.18454162]],MY
591,[[5]],[[592]],[[1]],['low holistic'],['left'],['inverted'],['U0006.bmp'],['female'],[],['female'],[[1]],[[0.06531853]],MY
592,[[5]],[[593]],[[14]],['low holistic'],['right'],['inverted'],['U0228.bmp'],['male'],[],['male'],[[1]],[[0.49491525]],MY
593,[[5]],[[594]],[[20]],['high holistic'],['left'],['inverted'],['U0362.bmp'],['female'],[],['female'],[[1]],[[0.27427028]],MY
594,[[5]],[[595]],[[6]],['high holistic'],['left'],['inverted'],['U0106.bmp'],['female'],[],['female'],[[1]],[[0.27188117]],MY
595,[[5]],[[596]],[[3]],['high holistic'],['left'],['upright'],['U0020.bmp'],['male'],[],['male'],[[1]],[[0.17185931]],MY
596,[[5]],[[597]],[[14]],['low holistic'],['right'],['inverted'],['U0228.bmp'],['male'],[],['male'],[[1]],[[0.23549491]],MY
597,[[5]],[[598]],[[19]],['high holistic'],['right'],['inverted'],['U0361.bmp'],['female'],[],['female'],[[1]],[[0.34525376]],MY
598,[[5]],[[599]],[[13]],['low holistic'],['right'],['upright'],['U0181.bmp'],['male'],[],['male'],[[1]],[[0.33969177]],MY
599,[[5]],[[600]],[[18]],['high holistic'],['left'],['inverted'],['U0359.bmp'],['male'],[],['male'],[[1]],[[0.30224859]],MY
600,[[5]],[[601]],[[4]],['low holistic'],['right'],['upright'],['U0061.bmp'],['female'],[],['female'],[[1]],[[0.15318488]],MY
601,[[5]],[[602]],[[16]],['high holistic'],['left'],['upright'],['U0335.bmp'],['female'],[],['female'],[[1]],[[0.05213622]],MY
602,[[5]],[[603]],[[7]],['low holistic'],['right'],['upright'],['U0107.bmp'],['female'],[],['female'],[[1]],[[0.0001067]],MY
603,[[5]],[[604]],[[9]],['low holistic'],['right'],['upright'],['U0155.bmp'],['male'],[],['male'],[[1]],[[0.00010773]],MY
604,[[5]],[[605]],[[4]],['low holistic'],['right'],['upright'],['U0061.bmp'],['female'],[],['male'],[[0]],[[0.00010812]],MY
605,[[5]],[[606]],[[17]],['high holistic'],['left'],['inverted'],['U0346.bmp'],['male'],[],['male'],[[1]],[[0.5691076]],MY
606,[[5]],[[607]],[[13]],['high holistic'],['right'],['inverted'],['U0181.bmp'],['female'],[],['female'],[[1]],[[0.16040741]],MY
607,[[5]],[[608]],[[15]],['high holistic'],['right'],['inverted'],['U0312.bmp'],['male'],[],['female'],[[0]],[[0.34511724]],MY
608,[[5]],[[609]],[[17]],['high holistic'],['right'],['inverted'],['U0346.bmp'],['male'],[],['female'],[[0]],[[0.19500592]],MY
609,[[5]],[[610]],[[2]],['high holistic'],['right'],['upright'],['U0014.bmp'],['male'],[],['male'],[[1]],[[0.29124243]],MY
610,[[5]],[[611]],[[20]],['low holistic'],['left'],['inverted'],['U0362.bmp'],['male'],[],['male'],[[1]],[[0.40735307]],MY
611,[[5]],[[612]],[[10]],['high holistic'],['left'],['upright'],['U0159.bmp'],['male'],[],['male'],[[1]],[[0.32762713]],MY
612,[[5]],[[613]],[[16]],['low holistic'],['right'],['upright'],['U0335.bmp'],['female'],[],['female'],[[1]],[[0.19366363]],MY
613,[[5]],[[614]],[[15]],['high holistic'],['left'],['upright'],['U0312.bmp'],['male'],[],['female'],[[0]],[[0.63277881]],MY
614,[[5]],[[615]],[[17]],['low holistic'],['right'],['upright'],['U0346.bmp'],['female'],[],['female'],[[1]],[[0.31259809]],MY
615,[[5]],[[616]],[[4]],['high holistic'],['right'],['upright'],['U0061.bmp'],['female'],[],['female'],[[1]],[[0.09917619]],MY
616,[[5]],[[617]],[[10]],['low holistic'],['right'],['upright'],['U0159.bmp'],['female'],[],['female'],[[1]],[[0.0792258]],MY
617,[[5]],[[618]],[[13]],['low holistic'],['left'],['inverted'],['U0181.bmp'],['male'],[],['male'],[[1]],[[0.04415397]],MY
618,[[5]],[[619]],[[19]],['low holistic'],['right'],['inverted'],['U0361.bmp'],['female'],[],['male'],[[0]],[[0.08952389]],MY
619,[[5]],[[620]],[[17]],['low holistic'],['left'],['upright'],['U0346.bmp'],['female'],[],['female'],[[1]],[[0.01252025]],MY
620,[[5]],[[621]],[[18]],['low holistic'],['left'],['upright'],['U0359.bmp'],['male'],[],['female'],[[0]],[[0.30993836]],MY
621,[[5]],[[622]],[[12]],['high holistic'],['left'],['upright'],['U0178.bmp'],['male'],[],['male'],[[1]],[[0.22417204]],MY
622,[[5]],[[623]],[[12]],['low holistic'],['right'],['upright'],['U0178.bmp'],['female'],[],['female'],[[1]],[[0.10343621]],MY
623,[[5]],[[624]],[[18]],['low holistic'],['left'],['upright'],['U0359.bmp'],['male'],[],['male'],[[1]],[[0.24184554]],MY
624,[[5]],[[625]],[[1]],['high holistic'],['left'],['inverted'],['U0006.bmp'],['female'],[],['male'],[[0]],[[0.38485656]],MY
625,[[5]],[[626]],[[18]],['low holistic'],['left'],['upright'],['U0359.bmp'],['male'],[],['male'],[[1]],[[0.19192175]],MY
626,[[5]],[[627]],[[9]],['high holistic'],['right'],['inverted'],['U0155.bmp'],['female'],[],['male'],[[0]],[[0.11167576]],MY
627,[[5]],[[628]],[[1]],['high holistic'],['fovea'],['upright'],['U0006.bmp'],['female'],[],['female'],[[1]],[[0.09226527]],MY
628,[[5]],[[629]],[[15]],['low holistic'],['right'],['inverted'],['U0312.bmp'],['male'],[],['female'],[[0]],[[0.60769198]],MY
629,[[5]],[[630]],[[4]],['high holistic'],['left'],['upright'],['U0061.bmp'],['female'],[],['female'],[[1]],[[0.10232738]],MY
630,[[5]],[[631]],[[3]],['high holistic'],['left'],['inverted'],['U0020.bmp'],['male'],[],['female'],[[0]],[[0.26599668]],MY
631,[[5]],[[632]],[[13]],['high holistic'],['left'],['upright'],['U0181.bmp'],['female'],[],['female'],[[1]],[[0.44692736]],MY
632,[[5]],[[633]],[[6]],['high holistic'],['left'],['upright'],['U0106.bmp'],['female'],[],['male'],[[0]],[[0.38883577]],MY
633,[[5]],[[634]],[[7]],['high holistic'],['right'],['upright'],['U0107.bmp'],['female'],[],['male'],[[0]],[[0.36402152]],MY
634,[[5]],[[635]],[[9]],['low holistic'],['left'],['upright'],['U0155.bmp'],['male'],[],['male'],[[1]],[[0.1990467]],MY
635,[[5]],[[636]],[[9]],['low holistic'],['left'],['inverted'],['U0155.bmp'],['male'],[],['male'],[[1]],[[0.00016187]],MY
636,[[5]],[[637]],[[8]],['low holistic'],['fovea'],['upright'],['U0137.bmp'],['male'],[],['male'],[[1]],[[0.02820674]],MY
637,[[5]],[[638]],[[13]],['low holistic'],['right'],['inverted'],['U0181.bmp'],['male'],[],['male'],[[1]],[[0.03661359]],MY
638,[[5]],[[639]],[[4]],['high holistic'],['right'],['upright'],['U0061.bmp'],['female'],[],['female'],[[1]],[[0.09955212]],MY
639,[[5]],[[640]],[[4]],['high holistic'],['left'],['upright'],['U0061.bmp'],['female'],[],['female'],[[1]],[[0.24664074]],MY
640,[[5]],[[641]],[[2]],['high holistic'],['fovea'],['inverted'],['U0014.bmp'],['male'],[],['male'],[[1]],[[0.14005759]],MY
641,[[5]],[[642]],[[7]],['high holistic'],['right'],['upright'],['U0107.bmp'],['female'],[],['male'],[[0]],[[0.05267489]],MY
642,[[5]],[[643]],[[16]],['low holistic'],['left'],['inverted'],['U0335.bmp'],['female'],[],['female'],[[1]],[[0.06009712]],MY
643,[[5]],[[644]],[[5]],['high holistic'],['left'],['upright'],['U0076.bmp'],['female'],[],['male'],[[0]],[[0.16839537]],MY
644,[[5]],[[645]],[[15]],['low holistic'],['left'],['upright'],['U0312.bmp'],['male'],[],['male'],[[1]],[[0.058546]],MY
645,[[5]],[[646]],[[14]],['low holistic'],['left'],['upright'],['U0228.bmp'],['male'],[],['male'],[[1]],[[0.08845721]],MY
646,[[5]],[[647]],[[17]],['low holistic'],['left'],['upright'],['U0346.bmp'],['female'],[],['female'],[[1]],[[0.14040746]],MY
647,[[5]],[[648]],[[17]],['high holistic'],['right'],['upright'],['U0346.bmp'],['male'],[],['female'],[[0]],[[0.0467668]],MY
648,[[5]],[[649]],[[6]],['high holistic'],['fovea'],['inverted'],['U0106.bmp'],['female'],[],['female'],[[1]],[[0.08429749]],MY
649,[[5]],[[650]],[[7]],['high holistic'],['left'],['upright'],['U0107.bmp'],['female'],[],['female'],[[1]],[[0.12026822]],MY
650,[[5]],[[651]],[[11]],['high holistic'],['left'],['upright'],['U0164.bmp'],['female'],[],['female'],[[1]],[[0.61364867]],MY
651,[[5]],[[652]],[[7]],['low holistic'],['right'],['inverted'],['U0107.bmp'],['female'],[],['female'],[[1]],[[0.10759611]],MY
652,[[5]],[[653]],[[17]],['low holistic'],['left'],['inverted'],['U0346.bmp'],['female'],[],['female'],[[1]],[[0.03843135]],MY
653,[[5]],[[654]],[[17]],['low holistic'],['left'],['inverted'],['U0346.bmp'],['female'],[],['female'],[[1]],[[0.00010526]],MY
654,[[5]],[[655]],[[12]],['high holistic'],['right'],['inverted'],['U0178.bmp'],['male'],[],['female'],[[0]],[[0.00010768]],MY
655,[[5]],[[656]],[[6]],['low holistic'],['fovea'],['inverted'],['U0106.bmp'],['male'],[],['male'],[[1]],[[0.02834681]],MY
656,[[5]],[[657]],[[14]],['high holistic'],['right'],['upright'],['U0228.bmp'],['male'],[],['male'],[[1]],[[9.93832946e-05]],MY
657,[[5]],[[658]],[[5]],['high holistic'],['left'],['upright'],['U0076.bmp'],['female'],[],['female'],[[1]],[[0.04197259]],MY
658,[[5]],[[659]],[[10]],['high holistic'],['left'],['upright'],['U0159.bmp'],['male'],[],['male'],[[1]],[[0.02579798]],MY
659,[[5]],[[660]],[[8]],['low holistic'],['right'],['inverted'],['U0137.bmp'],['male'],[],['female'],[[0]],[[0.21533575]],MY
660,[[5]],[[661]],[[11]],['high holistic'],['left'],['upright'],['U0164.bmp'],['female'],[],['male'],[[0]],[[0.14248451]],MY
661,[[5]],[[662]],[[20]],['low holistic'],['right'],['inverted'],['U0362.bmp'],['male'],[],['female'],[[0]],[[0.02388902]],MY
662,[[5]],[[663]],[[16]],['high holistic'],['right'],['upright'],['U0335.bmp'],['female'],[],['female'],[[1]],[[0.80029361]],MY
663,[[5]],[[664]],[[20]],['high holistic'],['right'],['inverted'],['U0362.bmp'],['female'],[],['female'],[[1]],[[9.8627992e-05]],MY
664,[[5]],[[665]],[[5]],['low holistic'],['left'],['upright'],['U0076.bmp'],['male'],[],['male'],[[1]],[[0.10224886]],MY
665,[[5]],[[666]],[[11]],['high holistic'],['left'],['inverted'],['U0164.bmp'],['female'],[],['male'],[[0]],[[0.49796913]],MY
666,[[5]],[[667]],[[2]],['low holistic'],['right'],['upright'],['U0014.bmp'],['male'],[],['male'],[[1]],[[0.23909266]],MY
667,[[5]],[[668]],[[16]],['high holistic'],['left'],['upright'],['U0335.bmp'],['female'],[],['female'],[[1]],[[0.49102094]],MY
668,[[5]],[[669]],[[13]],['low holistic'],['left'],['upright'],['U0181.bmp'],['male'],[],['male'],[[1]],[[0.15956648]],MY
669,[[5]],[[670]],[[18]],['high holistic'],['left'],['upright'],['U0359.bmp'],['male'],[],['male'],[[1]],[[1.38575921]],MY
670,[[5]],[[671]],[[20]],['low holistic'],['left'],['inverted'],['U0362.bmp'],['male'],[],['male'],[[1]],[[2.26494887]],MY
671,[[5]],[[672]],[[19]],['high holistic'],['left'],['upright'],['U0361.bmp'],['female'],[],['male'],[[0]],[[1.83021664]],MY
672,[[5]],[[673]],[[9]],['high holistic'],['right'],['inverted'],['U0155.bmp'],['female'],[],['male'],[[0]],[[0.60469131]],MY
673,[[5]],[[674]],[[1]],['low holistic'],['left'],['upright'],['U0006.bmp'],['female'],[],['female'],[[1]],[[0.18809497]],MY
674,[[5]],[[675]],[[11]],['high holistic'],['left'],['inverted'],['U0164.bmp'],['female'],[],['male'],[[0]],[[0.25948216]],MY
675,[[5]],[[676]],[[5]],['low holistic'],['left'],['upright'],['U0076.bmp'],['male'],[],['female'],[[0]],[[0.60977447]],MY
676,[[5]],[[677]],[[5]],['high holistic'],['right'],['inverted'],['U0076.bmp'],['female'],[],['female'],[[1]],[[0.16120806]],MY
677,[[5]],[[678]],[[7]],['low holistic'],['fovea'],['upright'],['U0107.bmp'],['female'],[],['female'],[[1]],[[9.76966694e-05]],MY
678,[[5]],[[679]],[[2]],['low holistic'],['right'],['upright'],['U0014.bmp'],['male'],[],['male'],[[1]],[[0.05893517]],MY
679,[[5]],[[680]],[[15]],['low holistic'],['left'],['upright'],['U0312.bmp'],['male'],[],['male'],[[1]],[[0.18399043]],MY
680,[[5]],[[681]],[[15]],['low holistic'],['right'],['inverted'],['U0312.bmp'],['male'],[],['female'],[[0]],[[0.24745993]],MY
681,[[5]],[[682]],[[11]],['high holistic'],['right'],['upright'],['U0164.bmp'],['female'],[],['female'],[[1]],[[1.40548041]],MY
682,[[5]],[[683]],[[7]],['low holistic'],['right'],['inverted'],['U0107.bmp'],['female'],[],['female'],[[1]],[[1.34770964]],MY
683,[[5]],[[684]],[[17]],['low holistic'],['left'],['upright'],['U0346.bmp'],['female'],[],['female'],[[1]],[[0.00755956]],MY
684,[[5]],[[685]],[[12]],['high holistic'],['left'],['inverted'],['U0178.bmp'],['male'],[],['female'],[[0]],[[0.08556436]],MY
685,[[5]],[[686]],[[20]],['high holistic'],['right'],['upright'],['U0362.bmp'],['female'],[],['male'],[[0]],[[0.17103064]],MY
686,[[5]],[[687]],[[18]],['low holistic'],['right'],['upright'],['U0359.bmp'],['male'],[],['male'],[[1]],[[0.00016366]],MY
687,[[5]],[[688]],[[8]],['high holistic'],['left'],['inverted'],['U0137.bmp'],['female'],[],['male'],[[0]],[[0.00029516]],MY
688,[[5]],[[689]],[[11]],['high holistic'],['left'],['inverted'],['U0164.bmp'],['female'],[],['male'],[[0]],[[0.09090982]],MY
689,[[5]],[[690]],[[7]],['low holistic'],['right'],['upright'],['U0107.bmp'],['female'],[],['female'],[[1]],[[0.10161735]],MY
690,[[5]],[[691]],[[13]],['high holistic'],['left'],['upright'],['U0181.bmp'],['female'],[],['female'],[[1]],[[0.00010008]],MY
691,[[5]],[[692]],[[16]],['high holistic'],['right'],['inverted'],['U0335.bmp'],['female'],[],['female'],[[1]],[[0.25755502]],MY
692,[[5]],[[693]],[[15]],['low holistic'],['left'],['upright'],['U0312.bmp'],['male'],[],['male'],[[1]],[[0.0001014]],MY
693,[[5]],[[694]],[[3]],['low holistic'],['right'],['inverted'],['U0020.bmp'],['female'],[],['female'],[[1]],[[0.02312249]],MY
694,[[5]],[[695]],[[17]],['low holistic'],['right'],['inverted'],['U0346.bmp'],['female'],[],['female'],[[1]],[[0.06924892]],MY
695,[[5]],[[696]],[[1]],['high holistic'],['fovea'],['inverted'],['U0006.bmp'],['female'],[],['male'],[[0]],[[0.00017352]],MY
696,[[5]],[[697]],[[9]],['high holistic'],['right'],['upright'],['U0155.bmp'],['female'],[],['female'],[[1]],[[0.18740481]],MY
697,[[5]],[[698]],[[15]],['high holistic'],['fovea'],['inverted'],['U0312.bmp'],['male'],[],['male'],[[1]],[[0.32243913]],MY
698,[[5]],[[699]],[[16]],['low holistic'],['right'],['upright'],['U0335.bmp'],['female'],[],['female'],[[1]],[[0.12423023]],MY
699,[[5]],[[700]],[[8]],['high holistic'],['right'],['inverted'],['U0137.bmp'],['female'],[],['female'],[[1]],[[0.09600845]],MY
700,[[5]],[[701]],[[15]],['low holistic'],['left'],['upright'],['U0312.bmp'],['male'],[],['male'],[[1]],[[0.03447549]],MY
701,[[5]],[[702]],[[18]],['high holistic'],['left'],['inverted'],['U0359.bmp'],['male'],[],['male'],[[1]],[[1.09009956]],MY
702,[[5]],[[703]],[[5]],['low holistic'],['left'],['inverted'],['U0076.bmp'],['male'],[],['male'],[[1]],[[0.22200144]],MY
703,[[5]],[[704]],[[3]],['low holistic'],['left'],['upright'],['U0020.bmp'],['female'],[],['female'],[[1]],[[0.07553697]],MY
704,[[5]],[[705]],[[5]],['low holistic'],['left'],['upright'],['U0076.bmp'],['male'],[],['male'],[[1]],[[0.1775976]],MY
705,[[5]],[[706]],[[8]],['low holistic'],['left'],['inverted'],['U0137.bmp'],['male'],[],['male'],[[1]],[[0.41792235]],MY
706,[[5]],[[707]],[[6]],['high holistic'],['left'],['inverted'],['U0106.bmp'],['female'],[],['male'],[[0]],[[0.40826747]],MY
707,[[5]],[[708]],[[19]],['low holistic'],['right'],['upright'],['U0361.bmp'],['female'],[],['female'],[[1]],[[0.20753512]],MY
708,[[5]],[[709]],[[2]],['high holistic'],['left'],['upright'],['U0014.bmp'],['male'],[],['male'],[[1]],[[0.59147714]],MY
709,[[5]],[[710]],[[12]],['high holistic'],['fovea'],['upright'],['U0178.bmp'],['male'],[],['male'],[[1]],[[0.85388612]],MY
710,[[5]],[[711]],[[4]],['high holistic'],['left'],['upright'],['U0061.bmp'],['female'],[],['female'],[[1]],[[0.06750098]],MY
711,[[5]],[[712]],[[17]],['high holistic'],['right'],['upright'],['U0346.bmp'],['male'],[],['male'],[[1]],[[0.22389374]],MY
712,[[5]],[[713]],[[4]],['low holistic'],['fovea'],['upright'],['U0061.bmp'],['female'],[],['female'],[[1]],[[0.02321107]],MY
713,[[5]],[[714]],[[11]],['low holistic'],['left'],['inverted'],['U0164.bmp'],['female'],[],['female'],[[1]],[[0.04739013]],MY
714,[[5]],[[715]],[[20]],['low holistic'],['left'],['inverted'],['U0362.bmp'],['male'],[],['female'],[[0]],[[0.31702639]],MY
715,[[5]],[[716]],[[8]],['high holistic'],['right'],['inverted'],['U0137.bmp'],['female'],[],['female'],[[1]],[[0.15842243]],MY
716,[[5]],[[717]],[[1]],['high holistic'],['right'],['upright'],['U0006.bmp'],['female'],[],['female'],[[1]],[[0.00015899]],MY
717,[[5]],[[718]],[[5]],['high holistic'],['right'],['upright'],['U0076.bmp'],['female'],[],['female'],[[1]],[[0.23950465]],MY
718,[[5]],[[719]],[[8]],['high holistic'],['left'],['upright'],['U0137.bmp'],['female'],[],['female'],[[1]],[[0.22148227]],MY
719,[[5]],[[720]],[[7]],['high holistic'],['left'],['inverted'],['U0107.bmp'],['female'],[],['female'],[[1]],[[0.35780714]],MY
720,[[5]],[[721]],[[5]],['low holistic'],['right'],['inverted'],['U0076.bmp'],['male'],[],['male'],[[1]],[[0.12558206]],MY
721,[[5]],[[722]],[[19]],['low holistic'],['left'],['inverted'],['U0361.bmp'],['female'],[],['female'],[[1]],[[0.19296102]],MY
722,[[5]],[[723]],[[14]],['low holistic'],['left'],['upright'],['U0228.bmp'],['male'],[],['male'],[[1]],[[0.05613092]],MY
723,[[5]],[[724]],[[20]],['high holistic'],['left'],['inverted'],['U0362.bmp'],['female'],[],['female'],[[1]],[[0.27672402]],MY
724,[[5]],[[725]],[[9]],['high holistic'],['right'],['inverted'],['U0155.bmp'],['female'],[],['male'],[[0]],[[0.20938413]],MY
725,[[5]],[[726]],[[19]],['low holistic'],['right'],['inverted'],['U0361.bmp'],['female'],[],['male'],[[0]],[[0.00044873]],MY
726,[[5]],[[727]],[[1]],['high holistic'],['left'],['inverted'],['U0006.bmp'],['female'],[],['female'],[[1]],[[0.04846321]],MY
727,[[5]],[[728]],[[13]],['high holistic'],['left'],['inverted'],['U0181.bmp'],['female'],[],['female'],[[1]],[[0.03806508]],MY
728,[[5]],[[729]],[[17]],['high holistic'],['right'],['inverted'],['U0346.bmp'],['male'],[],['female'],[[0]],[[0.045297]],MY
729,[[5]],[[730]],[[5]],['low holistic'],['left'],['inverted'],['U0076.bmp'],['male'],[],['female'],[[0]],[[0.36381918]],MY
730,[[5]],[[731]],[[19]],['low holistic'],['left'],['upright'],['U0361.bmp'],['female'],[],['female'],[[1]],[[0.26081159]],MY
731,[[5]],[[732]],[[16]],['low holistic'],['left'],['inverted'],['U0335.bmp'],['female'],[],['female'],[[1]],[[0.12195836]],MY
732,[[5]],[[733]],[[17]],['low holistic'],['right'],['upright'],['U0346.bmp'],['female'],[],['female'],[[1]],[[0.19625587]],MY
733,[[5]],[[734]],[[12]],['high holistic'],['right'],['inverted'],['U0178.bmp'],['male'],[],['female'],[[0]],[[0.00023404]],MY
734,[[5]],[[735]],[[16]],['high holistic'],['fovea'],['inverted'],['U0335.bmp'],['female'],[],['male'],[[0]],[[0.38888506]],MY
735,[[5]],[[736]],[[7]],['high holistic'],['right'],['upright'],['U0107.bmp'],['female'],[],['female'],[[1]],[[0.22764764]],MY
736,[[5]],[[737]],[[5]],['high holistic'],['right'],['upright'],['U0076.bmp'],['female'],[],['female'],[[1]],[[0.06507742]],MY
737,[[5]],[[738]],[[7]],['low holistic'],['right'],['inverted'],['U0107.bmp'],['female'],[],['female'],[[1]],[[9.92184505e-05]],MY
738,[[5]],[[739]],[[12]],['high holistic'],['right'],['inverted'],['U0178.bmp'],['male'],[],['female'],[[0]],[[0.05498651]],MY
739,[[5]],[[740]],[[17]],['low holistic'],['left'],['upright'],['U0346.bmp'],['female'],[],['female'],[[1]],[[0.02778088]],MY
740,[[5]],[[741]],[[6]],['high holistic'],['right'],['upright'],['U0106.bmp'],['female'],[],['female'],[[1]],[[0.13980774]],MY
741,[[5]],[[742]],[[9]],['low holistic'],['right'],['inverted'],['U0155.bmp'],['male'],[],['male'],[[1]],[[0.21366285]],MY
742,[[5]],[[743]],[[18]],['low holistic'],['right'],['upright'],['U0359.bmp'],['male'],[],['male'],[[1]],[[0.24345078]],MY
743,[[5]],[[744]],[[13]],['high holistic'],['left'],['upright'],['U0181.bmp'],['female'],[],['male'],[[0]],[[0.26577458]],MY
744,[[5]],[[745]],[[20]],['low holistic'],['left'],['inverted'],['U0362.bmp'],['male'],[],['female'],[[0]],[[0.32611921]],MY
745,[[5]],[[746]],[[5]],['low holistic'],['fovea'],['inverted'],['U0076.bmp'],['male'],[],['male'],[[1]],[[3.5145624]],MY
746,[[5]],[[747]],[[17]],['high holistic'],['left'],['upright'],['U0346.bmp'],['male'],[],['male'],[[1]],[[0.08389896]],MY
747,[[5]],[[748]],[[14]],['high holistic'],['right'],['upright'],['U0228.bmp'],['male'],[],['male'],[[1]],[[0.03230765]],MY
748,[[5]],[[749]],[[5]],['low holistic'],['left'],['upright'],['U0076.bmp'],['male'],[],['male'],[[1]],[[0.08866108]],MY
749,[[5]],[[750]],[[10]],['low holistic'],['left'],['upright'],['U0159.bmp'],['female'],[],['female'],[[1]],[[0.34621981]],MY
750,[[5]],[[751]],[[8]],['low holistic'],['left'],['upright'],['U0137.bmp'],['male'],[],['male'],[[1]],[[0.95542989]],MY
751,[[5]],[[752]],[[12]],['low holistic'],['left'],['inverted'],['U0178.bmp'],['female'],[],['female'],[[1]],[[1.35955221]],MY
752,[[5]],[[753]],[[17]],['low holistic'],['left'],['upright'],['U0346.bmp'],['female'],[],['female'],[[1]],[[0.12123284]],MY
753,[[5]],[[754]],[[3]],['low holistic'],['right'],['upright'],['U0020.bmp'],['female'],[],['female'],[[1]],[[4.33123639]],MY
754,[[5]],[[755]],[[17]],['high holistic'],['right'],['inverted'],['U0346.bmp'],['male'],[],['male'],[[1]],[[0.37361899]],MY
755,[[5]],[[756]],[[17]],['low holistic'],['right'],['inverted'],['U0346.bmp'],['female'],[],['female'],[[1]],[[0.10043085]],MY
756,[[5]],[[757]],[[8]],['low holistic'],['right'],['inverted'],['U0137.bmp'],['male'],[],['male'],[[1]],[[1.46596328]],MY
757,[[5]],[[758]],[[9]],['low holistic'],['right'],['upright'],['U0155.bmp'],['male'],[],['male'],[[1]],[[0.01485955]],MY
758,[[5]],[[759]],[[12]],['high holistic'],['right'],['upright'],['U0178.bmp'],['male'],[],['male'],[[1]],[[9.93888825e-05]],MY
759,[[5]],[[760]],[[15]],['high holistic'],['right'],['upright'],['U0312.bmp'],['male'],[],['male'],[[1]],[[1.45249952]],MY
760,[[5]],[[761]],[[15]],['low holistic'],['left'],['upright'],['U0312.bmp'],['male'],[],['male'],[[1]],[[0.0675562]],MY
761,[[5]],[[762]],[[16]],['low holistic'],['left'],['upright'],['U0335.bmp'],['female'],[],['female'],[[1]],[[0.18302266]],MY
762,[[5]],[[763]],[[8]],['low holistic'],['left'],['inverted'],['U0137.bmp'],['male'],[],['female'],[[0]],[[0.30210309]],MY
763,[[5]],[[764]],[[9]],['high holistic'],['left'],['upright'],['U0155.bmp'],['female'],[],['female'],[[1]],[[0.10585939]],MY
764,[[5]],[[765]],[[20]],['low holistic'],['left'],['upright'],['U0362.bmp'],['male'],[],['male'],[[1]],[[0.32568632]],MY
765,[[5]],[[766]],[[12]],['low holistic'],['left'],['inverted'],['U0178.bmp'],['female'],[],['female'],[[1]],[[0.16192736]],MY
766,[[5]],[[767]],[[17]],['low holistic'],['right'],['upright'],['U0346.bmp'],['female'],[],['male'],[[0]],[[0.31424657]],MY
767,[[5]],[[768]],[[6]],['low holistic'],['left'],['inverted'],['U0106.bmp'],['male'],[],['female'],[[0]],[[0.02850777]],MY
768,[[5]],[[769]],[[13]],['low holistic'],['left'],['inverted'],['U0181.bmp'],['male'],[],['male'],[[1]],[[0.25817648]],MY
769,[[5]],[[770]],[[12]],['low holistic'],['right'],['upright'],['U0178.bmp'],['female'],[],['male'],[[0]],[[0.00021667]],MY
770,[[5]],[[771]],[[20]],['high holistic'],['left'],['upright'],['U0362.bmp'],['female'],[],['male'],[[0]],[[0.51121002]],MY
771,[[5]],[[772]],[[2]],['high holistic'],['right'],['inverted'],['U0014.bmp'],['male'],[],['male'],[[1]],[[0.57891773]],MY
772,[[5]],[[773]],[[11]],['high holistic'],['left'],['inverted'],['U0164.bmp'],['female'],[],['male'],[[0]],[[0.95477758]],MY
773,[[5]],[[774]],[[11]],['low holistic'],['left'],['inverted'],['U0164.bmp'],['female'],[],['female'],[[1]],[[0.1023954]],MY
774,[[5]],[[775]],[[2]],['high holistic'],['right'],['inverted'],['U0014.bmp'],['male'],[],['male'],[[1]],[[0.80123136]],MY
775,[[5]],[[776]],[[19]],['low holistic'],['right'],['upright'],['U0361.bmp'],['female'],[],['female'],[[1]],[[0.79242062]],MY
776,[[5]],[[777]],[[18]],['high holistic'],['right'],['upright'],['U0359.bmp'],['male'],[],['female'],[[0]],[[0.35323641]],MY
777,[[5]],[[778]],[[9]],['low holistic'],['right'],['upright'],['U0155.bmp'],['male'],[],['male'],[[1]],[[0.00013332]],MY
778,[[5]],[[779]],[[16]],['low holistic'],['right'],['inverted'],['U0335.bmp'],['female'],[],['female'],[[1]],[[0.30513662]],MY
779,[[5]],[[780]],[[3]],['high holistic'],['left'],['upright'],['U0020.bmp'],['male'],[],['female'],[[0]],[[0.38233159]],MY
780,[[5]],[[781]],[[13]],['high holistic'],['right'],['inverted'],['U0181.bmp'],['female'],[],['female'],[[1]],[[0.23267122]],MY
781,[[5]],[[782]],[[6]],['high holistic'],['left'],['inverted'],['U0106.bmp'],['female'],[],['female'],[[1]],[[0.00036147]],MY
782,[[5]],[[783]],[[9]],['low holistic'],['right'],['inverted'],['U0155.bmp'],['male'],[],['male'],[[1]],[[0.09426172]],MY
783,[[5]],[[784]],[[17]],['low holistic'],['right'],['upright'],['U0346.bmp'],['female'],[],['female'],[[1]],[[0.42503235]],MY
784,[[5]],[[785]],[[4]],['low holistic'],['right'],['upright'],['U0061.bmp'],['female'],[],['female'],[[1]],[[0.02377134]],MY
785,[[5]],[[786]],[[7]],['high holistic'],['right'],['inverted'],['U0107.bmp'],['female'],[],['female'],[[1]],[[0.0150183]],MY
786,[[5]],[[787]],[[10]],['high holistic'],['left'],['inverted'],['U0159.bmp'],['male'],[],['female'],[[0]],[[1.07045043]],MY
787,[[5]],[[788]],[[7]],['high holistic'],['left'],['upright'],['U0107.bmp'],['female'],[],['male'],[[0]],[[0.09042787]],MY
788,[[5]],[[789]],[[16]],['low holistic'],['right'],['upright'],['U0335.bmp'],['female'],[],['female'],[[1]],[[0.20005123]],MY
789,[[5]],[[790]],[[20]],['low holistic'],['left'],['upright'],['U0362.bmp'],['male'],[],['male'],[[1]],[[0.05449413]],MY
790,[[5]],[[791]],[[4]],['low holistic'],['right'],['upright'],['U0061.bmp'],['female'],[],['female'],[[1]],[[0.13031887]],MY
791,[[5]],[[792]],[[5]],['low holistic'],['left'],['upright'],['U0076.bmp'],['male'],[],['male'],[[1]],[[0.09460911]],MY
792,[[5]],[[793]],[[15]],['high holistic'],['right'],['upright'],['U0312.bmp'],['male'],[],['male'],[[1]],[[0.43524998]],MY
793,[[5]],[[794]],[[8]],['low holistic'],['right'],['inverted'],['U0137.bmp'],['male'],[],['male'],[[1]],[[0.29597276]],MY
794,[[5]],[[795]],[[20]],['low holistic'],['right'],['upright'],['U0362.bmp'],['male'],[],['male'],[[1]],[[0.47478154]],MY
795,[[5]],[[796]],[[20]],['low holistic'],['right'],['inverted'],['U0362.bmp'],['male'],[],['male'],[[1]],[[0.18575935]],MY
796,[[5]],[[797]],[[13]],['high holistic'],['left'],['upright'],['U0181.bmp'],['female'],[],['female'],[[1]],[[0.36850504]],MY
797,[[5]],[[798]],[[18]],['low holistic'],['left'],['inverted'],['U0359.bmp'],['male'],[],['female'],[[0]],[[0.28970077]],MY
798,[[5]],[[799]],[[9]],['low holistic'],['left'],['inverted'],['U0155.bmp'],['male'],[],['female'],[[0]],[[9.86363739e-05]],MY
