,SUBID,TRIAL,MOONEYID,MOONEYCATEGORY,LOC,COND,MOONEY_NAME,MOONEY_GENDER,ECCENTRICITY,RESPONSE,ACCURACY,RT,SUBINIT
0,[[14]],[[1]],[[15]],['low holistic'],['fovea'],['inverted'],['U0312.bmp'],['male'],[[0]],['male'],[[1]],[[0.38327558]],ND
1,[[14]],[[2]],[[2]],['high holistic'],['right'],['inverted'],['U0014.bmp'],['male'],[[12]],['male'],[[1]],[[0.22290394]],ND
2,[[14]],[[3]],[[6]],['high holistic'],['left'],['upright'],['U0106.bmp'],['female'],[[2]],['female'],[[1]],[[0.25432494]],ND
3,[[14]],[[4]],[[10]],['high holistic'],['left'],['inverted'],['U0159.bmp'],['male'],[[6]],['female'],[[0]],[[0.57174448]],ND
4,[[14]],[[5]],[[10]],['low holistic'],['left'],['upright'],['U0159.bmp'],['female'],[[2]],['female'],[[1]],[[0.26919914]],ND
5,[[14]],[[6]],[[1]],['high holistic'],['left'],['upright'],['U0006.bmp'],['female'],[[8]],['female'],[[1]],[[0.29774019]],ND
6,[[14]],[[7]],[[7]],['high holistic'],['fovea'],['inverted'],['U0107.bmp'],['female'],[[0]],['male'],[[0]],[[0.17623342]],ND
7,[[14]],[[8]],[[16]],['low holistic'],['right'],['inverted'],['U0335.bmp'],['female'],[[6]],['female'],[[1]],[[0.54373702]],ND
8,[[14]],[[9]],[[11]],['high holistic'],['right'],['upright'],['U0164.bmp'],['female'],[[6]],['female'],[[1]],[[0.32251174]],ND
9,[[14]],[[10]],[[2]],['low holistic'],['right'],['upright'],['U0014.bmp'],['male'],[[4]],['female'],[[0]],[[0.63095092]],ND
10,[[14]],[[11]],[[9]],['high holistic'],['left'],['upright'],['U0155.bmp'],['female'],[[8]],['female'],[[1]],[[0.50087896]],ND
11,[[14]],[[12]],[[7]],['low holistic'],['left'],['upright'],['U0107.bmp'],['female'],[[2]],['female'],[[1]],[[0.06504324]],ND
12,[[14]],[[13]],[[11]],['low holistic'],['left'],['upright'],['U0164.bmp'],['female'],[[8]],['female'],[[1]],[[0.2471281]],ND
13,[[14]],[[14]],[[15]],['low holistic'],['left'],['upright'],['U0312.bmp'],['male'],[[8]],['male'],[[1]],[[0.21183001]],ND
14,[[14]],[[15]],[[6]],['high holistic'],['left'],['inverted'],['U0106.bmp'],['female'],[[6]],['female'],[[1]],[[0.74052159]],ND
15,[[14]],[[16]],[[15]],['low holistic'],['right'],['inverted'],['U0312.bmp'],['male'],[[10]],['male'],[[1]],[[0.39796998]],ND
16,[[14]],[[17]],[[16]],['high holistic'],['right'],['upright'],['U0335.bmp'],['female'],[[6]],['female'],[[1]],[[0.39903118]],ND
17,[[14]],[[18]],[[18]],['high holistic'],['right'],['upright'],['U0359.bmp'],['male'],[[12]],['male'],[[1]],[[0.83163193]],ND
18,[[14]],[[19]],[[2]],['high holistic'],['left'],['upright'],['U0014.bmp'],['male'],[[4]],['male'],[[1]],[[0.39070207]],ND
19,[[14]],[[20]],[[2]],['low holistic'],['left'],['upright'],['U0014.bmp'],['male'],[[6]],['female'],[[0]],[[0.45455868]],ND
20,[[14]],[[21]],[[20]],['high holistic'],['left'],['upright'],['U0362.bmp'],['female'],[[2]],['female'],[[1]],[[0.36616452]],ND
21,[[14]],[[22]],[[6]],['high holistic'],['right'],['inverted'],['U0106.bmp'],['female'],[[10]],['female'],[[1]],[[0.463921]],ND
22,[[14]],[[23]],[[8]],['low holistic'],['left'],['inverted'],['U0137.bmp'],['male'],[[4]],['female'],[[0]],[[0.49192584]],ND
23,[[14]],[[24]],[[16]],['high holistic'],['right'],['inverted'],['U0335.bmp'],['female'],[[10]],['female'],[[1]],[[0.51281633]],ND
24,[[14]],[[25]],[[4]],['low holistic'],['fovea'],['upright'],['U0061.bmp'],['female'],[[0]],['female'],[[1]],[[0.26870587]],ND
25,[[14]],[[26]],[[15]],['high holistic'],['fovea'],['inverted'],['U0312.bmp'],['male'],[[0]],['male'],[[1]],[[0.57048542]],ND
26,[[14]],[[27]],[[3]],['high holistic'],['right'],['upright'],['U0020.bmp'],['male'],[[6]],['male'],[[1]],[[0.39420409]],ND
27,[[14]],[[28]],[[7]],['high holistic'],['left'],['inverted'],['U0107.bmp'],['female'],[[12]],['female'],[[1]],[[0.37841291]],ND
28,[[14]],[[29]],[[2]],['high holistic'],['fovea'],['inverted'],['U0014.bmp'],['male'],[[0]],['female'],[[0]],[[0.21184061]],ND
29,[[14]],[[30]],[[7]],['high holistic'],['right'],['inverted'],['U0107.bmp'],['female'],[[6]],['female'],[[1]],[[0.42877594]],ND
30,[[14]],[[31]],[[2]],['high holistic'],['left'],['upright'],['U0014.bmp'],['male'],[[2]],['male'],[[1]],[[0.34687515]],ND
31,[[14]],[[32]],[[9]],['high holistic'],['left'],['upright'],['U0155.bmp'],['female'],[[4]],['female'],[[1]],[[0.38894439]],ND
32,[[14]],[[33]],[[13]],['high holistic'],['left'],['inverted'],['U0181.bmp'],['female'],[[8]],['female'],[[1]],[[0.72585767]],ND
33,[[14]],[[34]],[[18]],['high holistic'],['left'],['upright'],['U0359.bmp'],['male'],[[10]],['male'],[[1]],[[0.42670091]],ND
34,[[14]],[[35]],[[17]],['low holistic'],['left'],['inverted'],['U0346.bmp'],['female'],[[12]],['female'],[[1]],[[0.62459118]],ND
35,[[14]],[[36]],[[17]],['low holistic'],['right'],['upright'],['U0346.bmp'],['female'],[[6]],['female'],[[1]],[[0.80070586]],ND
36,[[14]],[[37]],[[11]],['high holistic'],['right'],['inverted'],['U0164.bmp'],['female'],[[4]],['female'],[[1]],[[0.59082125]],ND
37,[[14]],[[38]],[[11]],['low holistic'],['right'],['upright'],['U0164.bmp'],['female'],[[10]],['female'],[[1]],[[0.40848664]],ND
38,[[14]],[[39]],[[6]],['low holistic'],['right'],['inverted'],['U0106.bmp'],['male'],[[10]],['female'],[[0]],[[1.04014474]],ND
39,[[14]],[[40]],[[14]],['low holistic'],['left'],['inverted'],['U0228.bmp'],['male'],[[8]],['female'],[[0]],[[1.05375722]],ND
40,[[14]],[[41]],[[8]],['high holistic'],['left'],['upright'],['U0137.bmp'],['female'],[[4]],['female'],[[1]],[[0.3309141]],ND
41,[[14]],[[42]],[[5]],['high holistic'],['right'],['inverted'],['U0076.bmp'],['female'],[[6]],['male'],[[0]],[[1.63829651]],ND
42,[[14]],[[43]],[[11]],['low holistic'],['right'],['upright'],['U0164.bmp'],['female'],[[6]],['female'],[[1]],[[0.40523302]],ND
43,[[14]],[[44]],[[18]],['low holistic'],['left'],['inverted'],['U0359.bmp'],['male'],[[10]],['female'],[[0]],[[0.79755908]],ND
44,[[14]],[[45]],[[12]],['high holistic'],['left'],['upright'],['U0178.bmp'],['male'],[[8]],['female'],[[0]],[[0.34831516]],ND
45,[[14]],[[46]],[[6]],['low holistic'],['right'],['inverted'],['U0106.bmp'],['male'],[[8]],['female'],[[0]],[[0.42436525]],ND
46,[[14]],[[47]],[[17]],['low holistic'],['fovea'],['inverted'],['U0346.bmp'],['female'],[[0]],['female'],[[1]],[[0.91800346]],ND
47,[[14]],[[48]],[[15]],['low holistic'],['right'],['upright'],['U0312.bmp'],['male'],[[6]],['male'],[[1]],[[0.32977059]],ND
48,[[14]],[[49]],[[17]],['high holistic'],['left'],['inverted'],['U0346.bmp'],['male'],[[2]],['female'],[[0]],[[0.6364402]],ND
49,[[14]],[[50]],[[7]],['high holistic'],['right'],['inverted'],['U0107.bmp'],['female'],[[12]],['female'],[[1]],[[1.38629002]],ND
50,[[14]],[[51]],[[17]],['low holistic'],['right'],['inverted'],['U0346.bmp'],['female'],[[4]],['female'],[[1]],[[0.82052565]],ND
51,[[14]],[[52]],[[20]],['low holistic'],['right'],['upright'],['U0362.bmp'],['male'],[[4]],['male'],[[1]],[[0.35596384]],ND
52,[[14]],[[53]],[[20]],['high holistic'],['left'],['upright'],['U0362.bmp'],['female'],[[6]],['female'],[[1]],[[0.92529993]],ND
53,[[14]],[[54]],[[20]],['low holistic'],['right'],['upright'],['U0362.bmp'],['male'],[[4]],['male'],[[1]],[[0.33700293]],ND
54,[[14]],[[55]],[[1]],['low holistic'],['right'],['upright'],['U0006.bmp'],['female'],[[4]],['female'],[[1]],[[0.4434309]],ND
55,[[14]],[[56]],[[1]],['high holistic'],['right'],['inverted'],['U0006.bmp'],['female'],[[12]],['male'],[[0]],[[0.44920859]],ND
56,[[14]],[[57]],[[11]],['low holistic'],['right'],['inverted'],['U0164.bmp'],['female'],[[10]],['female'],[[1]],[[0.34217407]],ND
57,[[14]],[[58]],[[4]],['high holistic'],['right'],['inverted'],['U0061.bmp'],['female'],[[6]],['female'],[[1]],[[0.8022903]],ND
58,[[14]],[[59]],[[17]],['high holistic'],['left'],['upright'],['U0346.bmp'],['male'],[[6]],['male'],[[1]],[[0.36141924]],ND
59,[[14]],[[60]],[[6]],['low holistic'],['right'],['inverted'],['U0106.bmp'],['male'],[[2]],['female'],[[0]],[[0.45865729]],ND
60,[[14]],[[61]],[[9]],['low holistic'],['left'],['inverted'],['U0155.bmp'],['male'],[[6]],['male'],[[1]],[[0.56953162]],ND
61,[[14]],[[62]],[[20]],['low holistic'],['right'],['upright'],['U0362.bmp'],['male'],[[2]],['male'],[[1]],[[0.27343027]],ND
62,[[14]],[[63]],[[7]],['low holistic'],['left'],['inverted'],['U0107.bmp'],['female'],[[4]],['female'],[[1]],[[0.46272291]],ND
63,[[14]],[[64]],[[4]],['high holistic'],['right'],['inverted'],['U0061.bmp'],['female'],[[10]],['female'],[[1]],[[0.55006694]],ND
64,[[14]],[[65]],[[5]],['low holistic'],['left'],['upright'],['U0076.bmp'],['male'],[[8]],['male'],[[1]],[[0.24698365]],ND
65,[[14]],[[66]],[[13]],['low holistic'],['left'],['upright'],['U0181.bmp'],['male'],[[10]],['male'],[[1]],[[0.29420794]],ND
66,[[14]],[[67]],[[5]],['low holistic'],['right'],['upright'],['U0076.bmp'],['male'],[[4]],['male'],[[1]],[[0.20237252]],ND
67,[[14]],[[68]],[[20]],['low holistic'],['right'],['inverted'],['U0362.bmp'],['male'],[[6]],['male'],[[1]],[[0.22473174]],ND
68,[[14]],[[69]],[[14]],['high holistic'],['right'],['inverted'],['U0228.bmp'],['male'],[[4]],['female'],[[0]],[[0.22586472]],ND
69,[[14]],[[70]],[[2]],['high holistic'],['fovea'],['upright'],['U0014.bmp'],['male'],[[0]],['male'],[[1]],[[0.2173151]],ND
70,[[14]],[[71]],[[12]],['high holistic'],['left'],['inverted'],['U0178.bmp'],['male'],[[2]],['female'],[[0]],[[0.36813191]],ND
71,[[14]],[[72]],[[1]],['low holistic'],['right'],['inverted'],['U0006.bmp'],['female'],[[6]],['male'],[[0]],[[0.98542241]],ND
72,[[14]],[[73]],[[9]],['high holistic'],['right'],['inverted'],['U0155.bmp'],['female'],[[4]],['female'],[[1]],[[0.2416388]],ND
73,[[14]],[[74]],[[3]],['low holistic'],['left'],['inverted'],['U0020.bmp'],['female'],[[4]],['female'],[[1]],[[0.30342295]],ND
74,[[14]],[[75]],[[7]],['high holistic'],['fovea'],['inverted'],['U0107.bmp'],['female'],[[0]],['female'],[[1]],[[0.3874648]],ND
75,[[14]],[[76]],[[9]],['high holistic'],['left'],['inverted'],['U0155.bmp'],['female'],[[8]],['female'],[[1]],[[0.38837086]],ND
76,[[14]],[[77]],[[15]],['high holistic'],['left'],['inverted'],['U0312.bmp'],['male'],[[2]],['male'],[[1]],[[0.45274799]],ND
77,[[14]],[[78]],[[17]],['low holistic'],['left'],['upright'],['U0346.bmp'],['female'],[[8]],['female'],[[1]],[[0.7851269]],ND
78,[[14]],[[79]],[[5]],['low holistic'],['fovea'],['inverted'],['U0076.bmp'],['male'],[[0]],['male'],[[1]],[[0.37001928]],ND
79,[[14]],[[80]],[[12]],['high holistic'],['left'],['upright'],['U0178.bmp'],['male'],[[6]],['female'],[[0]],[[0.22790893]],ND
80,[[14]],[[81]],[[9]],['low holistic'],['left'],['upright'],['U0155.bmp'],['male'],[[2]],['male'],[[1]],[[0.18000081]],ND
81,[[14]],[[82]],[[12]],['low holistic'],['right'],['inverted'],['U0178.bmp'],['female'],[[6]],['female'],[[1]],[[0.45149409]],ND
82,[[14]],[[83]],[[3]],['high holistic'],['fovea'],['upright'],['U0020.bmp'],['male'],[[0]],['male'],[[1]],[[0.25078085]],ND
83,[[14]],[[84]],[[9]],['high holistic'],['left'],['upright'],['U0155.bmp'],['female'],[[6]],['female'],[[1]],[[0.35924499]],ND
84,[[14]],[[85]],[[18]],['high holistic'],['right'],['inverted'],['U0359.bmp'],['male'],[[8]],['male'],[[1]],[[0.2973729]],ND
85,[[14]],[[86]],[[6]],['low holistic'],['right'],['inverted'],['U0106.bmp'],['male'],[[10]],['male'],[[1]],[[0.22057038]],ND
86,[[14]],[[87]],[[17]],['high holistic'],['left'],['inverted'],['U0346.bmp'],['male'],[[4]],['male'],[[1]],[[0.37213163]],ND
87,[[14]],[[88]],[[8]],['low holistic'],['right'],['upright'],['U0137.bmp'],['male'],[[6]],['male'],[[1]],[[0.15085693]],ND
88,[[14]],[[89]],[[7]],['high holistic'],['fovea'],['upright'],['U0107.bmp'],['female'],[[0]],['female'],[[1]],[[0.3507568]],ND
89,[[14]],[[90]],[[10]],['high holistic'],['right'],['upright'],['U0159.bmp'],['male'],[[6]],['male'],[[1]],[[0.41851]],ND
90,[[14]],[[91]],[[10]],['low holistic'],['right'],['upright'],['U0159.bmp'],['female'],[[4]],['female'],[[1]],[[0.31176774]],ND
91,[[14]],[[92]],[[4]],['low holistic'],['right'],['upright'],['U0061.bmp'],['female'],[[10]],['female'],[[1]],[[0.32430422]],ND
92,[[14]],[[93]],[[17]],['high holistic'],['right'],['upright'],['U0346.bmp'],['male'],[[2]],['male'],[[1]],[[0.3438815]],ND
93,[[14]],[[94]],[[13]],['low holistic'],['right'],['upright'],['U0181.bmp'],['male'],[[6]],['male'],[[1]],[[0.19368284]],ND
94,[[14]],[[95]],[[5]],['high holistic'],['right'],['upright'],['U0076.bmp'],['female'],[[10]],['female'],[[1]],[[0.38601802]],ND
95,[[14]],[[96]],[[3]],['low holistic'],['fovea'],['inverted'],['U0020.bmp'],['female'],[[0]],['female'],[[1]],[[0.23414188]],ND
96,[[14]],[[97]],[[8]],['low holistic'],['left'],['inverted'],['U0137.bmp'],['male'],[[6]],['male'],[[1]],[[0.21663119]],ND
97,[[14]],[[98]],[[12]],['low holistic'],['right'],['upright'],['U0178.bmp'],['female'],[[6]],['female'],[[1]],[[0.16882506]],ND
98,[[14]],[[99]],[[5]],['high holistic'],['left'],['inverted'],['U0076.bmp'],['female'],[[12]],['female'],[[1]],[[0.49070139]],ND
99,[[14]],[[100]],[[8]],['high holistic'],['right'],['inverted'],['U0137.bmp'],['female'],[[8]],['female'],[[1]],[[0.54268792]],ND
100,[[14]],[[101]],[[8]],['low holistic'],['left'],['upright'],['U0137.bmp'],['male'],[[8]],['male'],[[1]],[[0.20156997]],ND
101,[[14]],[[102]],[[5]],['low holistic'],['right'],['inverted'],['U0076.bmp'],['male'],[[8]],['male'],[[1]],[[0.34427361]],ND
102,[[14]],[[103]],[[1]],['high holistic'],['right'],['upright'],['U0006.bmp'],['female'],[[10]],['female'],[[1]],[[0.26842526]],ND
103,[[14]],[[104]],[[15]],['high holistic'],['right'],['upright'],['U0312.bmp'],['male'],[[2]],['female'],[[0]],[[0.46431069]],ND
104,[[14]],[[105]],[[5]],['low holistic'],['right'],['upright'],['U0076.bmp'],['male'],[[8]],['male'],[[1]],[[0.2529285]],ND
105,[[14]],[[106]],[[14]],['high holistic'],['right'],['inverted'],['U0228.bmp'],['male'],[[6]],['female'],[[0]],[[0.19665482]],ND
106,[[14]],[[107]],[[3]],['high holistic'],['left'],['inverted'],['U0020.bmp'],['male'],[[10]],['female'],[[0]],[[0.25254492]],ND
107,[[14]],[[108]],[[9]],['low holistic'],['right'],['upright'],['U0155.bmp'],['male'],[[10]],['male'],[[1]],[[0.19346854]],ND
108,[[14]],[[109]],[[3]],['low holistic'],['right'],['upright'],['U0020.bmp'],['female'],[[12]],['female'],[[1]],[[0.12291054]],ND
109,[[14]],[[110]],[[9]],['low holistic'],['fovea'],['inverted'],['U0155.bmp'],['male'],[[0]],['male'],[[1]],[[0.1817547]],ND
110,[[14]],[[111]],[[16]],['low holistic'],['left'],['inverted'],['U0335.bmp'],['female'],[[10]],['female'],[[1]],[[0.31042947]],ND
111,[[14]],[[112]],[[11]],['high holistic'],['right'],['upright'],['U0164.bmp'],['female'],[[8]],['female'],[[1]],[[0.46455861]],ND
112,[[14]],[[113]],[[7]],['low holistic'],['right'],['upright'],['U0107.bmp'],['female'],[[4]],['female'],[[1]],[[0.21601828]],ND
113,[[14]],[[114]],[[18]],['high holistic'],['left'],['inverted'],['U0359.bmp'],['male'],[[2]],['female'],[[0]],[[0.29457498]],ND
114,[[14]],[[115]],[[20]],['high holistic'],['fovea'],['inverted'],['U0362.bmp'],['female'],[[0]],['female'],[[1]],[[0.76312243]],ND
115,[[14]],[[116]],[[15]],['high holistic'],['left'],['upright'],['U0312.bmp'],['male'],[[12]],['female'],[[0]],[[0.22841748]],ND
116,[[14]],[[117]],[[15]],['high holistic'],['left'],['inverted'],['U0312.bmp'],['male'],[[12]],['female'],[[0]],[[0.31499238]],ND
117,[[14]],[[118]],[[5]],['high holistic'],['fovea'],['upright'],['U0076.bmp'],['female'],[[0]],['female'],[[1]],[[0.23069622]],ND
118,[[14]],[[119]],[[9]],['low holistic'],['left'],['inverted'],['U0155.bmp'],['male'],[[4]],['male'],[[1]],[[0.50151485]],ND
119,[[14]],[[120]],[[12]],['high holistic'],['left'],['upright'],['U0178.bmp'],['male'],[[10]],['female'],[[0]],[[0.20171851]],ND
120,[[14]],[[121]],[[7]],['high holistic'],['right'],['upright'],['U0107.bmp'],['female'],[[2]],['female'],[[1]],[[0.24141211]],ND
121,[[14]],[[122]],[[13]],['low holistic'],['fovea'],['inverted'],['U0181.bmp'],['male'],[[0]],['male'],[[1]],[[0.33538799]],ND
122,[[14]],[[123]],[[1]],['high holistic'],['fovea'],['upright'],['U0006.bmp'],['female'],[[0]],['female'],[[1]],[[0.23309734]],ND
123,[[14]],[[124]],[[5]],['high holistic'],['left'],['upright'],['U0076.bmp'],['female'],[[12]],['female'],[[1]],[[0.63297406]],ND
124,[[14]],[[125]],[[13]],['low holistic'],['right'],['upright'],['U0181.bmp'],['male'],[[2]],['male'],[[1]],[[0.1987026]],ND
125,[[14]],[[126]],[[18]],['low holistic'],['right'],['upright'],['U0359.bmp'],['male'],[[2]],['female'],[[0]],[[0.49498943]],ND
126,[[14]],[[127]],[[9]],['low holistic'],['right'],['upright'],['U0155.bmp'],['male'],[[8]],['male'],[[1]],[[0.15530692]],ND
127,[[14]],[[128]],[[18]],['high holistic'],['right'],['upright'],['U0359.bmp'],['male'],[[6]],['female'],[[0]],[[0.34321596]],ND
128,[[14]],[[129]],[[9]],['low holistic'],['left'],['upright'],['U0155.bmp'],['male'],[[8]],['male'],[[1]],[[0.23310817]],ND
129,[[14]],[[130]],[[19]],['low holistic'],['left'],['upright'],['U0361.bmp'],['female'],[[6]],['female'],[[1]],[[0.21519934]],ND
130,[[14]],[[131]],[[11]],['high holistic'],['left'],['upright'],['U0164.bmp'],['female'],[[6]],['female'],[[1]],[[0.35168446]],ND
131,[[14]],[[132]],[[2]],['high holistic'],['right'],['upright'],['U0014.bmp'],['male'],[[6]],['male'],[[1]],[[0.23466203]],ND
132,[[14]],[[133]],[[5]],['low holistic'],['left'],['inverted'],['U0076.bmp'],['male'],[[10]],['male'],[[1]],[[0.27236224]],ND
133,[[14]],[[134]],[[8]],['high holistic'],['right'],['inverted'],['U0137.bmp'],['female'],[[2]],['male'],[[0]],[[0.6230374]],ND
134,[[14]],[[135]],[[20]],['high holistic'],['left'],['inverted'],['U0362.bmp'],['female'],[[4]],['female'],[[1]],[[0.34821643]],ND
135,[[14]],[[136]],[[12]],['low holistic'],['right'],['upright'],['U0178.bmp'],['female'],[[2]],['female'],[[1]],[[0.19066205]],ND
136,[[14]],[[137]],[[20]],['low holistic'],['right'],['inverted'],['U0362.bmp'],['male'],[[12]],['male'],[[1]],[[0.27958348]],ND
137,[[14]],[[138]],[[3]],['high holistic'],['left'],['upright'],['U0020.bmp'],['male'],[[12]],['male'],[[1]],[[0.2763257]],ND
138,[[14]],[[139]],[[19]],['low holistic'],['left'],['upright'],['U0361.bmp'],['female'],[[10]],['female'],[[1]],[[0.15317688]],ND
139,[[14]],[[140]],[[19]],['low holistic'],['right'],['inverted'],['U0361.bmp'],['female'],[[8]],['female'],[[1]],[[0.57839547]],ND
140,[[14]],[[141]],[[19]],['low holistic'],['right'],['inverted'],['U0361.bmp'],['female'],[[8]],['female'],[[1]],[[0.66668395]],ND
141,[[14]],[[142]],[[11]],['high holistic'],['left'],['upright'],['U0164.bmp'],['female'],[[10]],['female'],[[1]],[[0.33889968]],ND
142,[[14]],[[143]],[[8]],['low holistic'],['right'],['upright'],['U0137.bmp'],['male'],[[12]],['male'],[[1]],[[0.18676992]],ND
143,[[14]],[[144]],[[4]],['high holistic'],['right'],['inverted'],['U0061.bmp'],['female'],[[12]],['male'],[[0]],[[0.64514182]],ND
144,[[14]],[[145]],[[14]],['low holistic'],['right'],['inverted'],['U0228.bmp'],['male'],[[4]],['male'],[[1]],[[0.79436778]],ND
145,[[14]],[[146]],[[8]],['low holistic'],['right'],['inverted'],['U0137.bmp'],['male'],[[6]],['male'],[[1]],[[0.25835961]],ND
146,[[14]],[[147]],[[17]],['high holistic'],['left'],['upright'],['U0346.bmp'],['male'],[[8]],['female'],[[0]],[[0.00016574]],ND
147,[[14]],[[148]],[[6]],['low holistic'],['left'],['upright'],['U0106.bmp'],['male'],[[4]],['female'],[[0]],[[0.12890455]],ND
148,[[14]],[[149]],[[7]],['high holistic'],['left'],['upright'],['U0107.bmp'],['female'],[[4]],['female'],[[1]],[[0.25192912]],ND
149,[[14]],[[150]],[[17]],['high holistic'],['left'],['inverted'],['U0346.bmp'],['male'],[[8]],['female'],[[0]],[[0.05024149]],ND
150,[[14]],[[151]],[[14]],['high holistic'],['left'],['inverted'],['U0228.bmp'],['male'],[[2]],['female'],[[0]],[[0.02269766]],ND
151,[[14]],[[152]],[[1]],['low holistic'],['left'],['inverted'],['U0006.bmp'],['female'],[[2]],['female'],[[1]],[[0.07914829]],ND
152,[[14]],[[153]],[[9]],['low holistic'],['right'],['inverted'],['U0155.bmp'],['male'],[[4]],['male'],[[1]],[[0.0492578]],ND
153,[[14]],[[154]],[[15]],['low holistic'],['left'],['inverted'],['U0312.bmp'],['male'],[[4]],['male'],[[1]],[[0.11391398]],ND
154,[[14]],[[155]],[[19]],['low holistic'],['right'],['upright'],['U0361.bmp'],['female'],[[10]],['female'],[[1]],[[0.14959859]],ND
155,[[14]],[[156]],[[8]],['high holistic'],['left'],['inverted'],['U0137.bmp'],['female'],[[4]],['female'],[[1]],[[0.2561012]],ND
156,[[14]],[[157]],[[1]],['high holistic'],['left'],['inverted'],['U0006.bmp'],['female'],[[4]],['male'],[[0]],[[0.18131825]],ND
157,[[14]],[[158]],[[20]],['high holistic'],['left'],['inverted'],['U0362.bmp'],['female'],[[12]],['female'],[[1]],[[0.35543586]],ND
158,[[14]],[[159]],[[13]],['high holistic'],['left'],['upright'],['U0181.bmp'],['female'],[[12]],['female'],[[1]],[[0.44708878]],ND
159,[[14]],[[160]],[[19]],['high holistic'],['left'],['inverted'],['U0361.bmp'],['female'],[[10]],['male'],[[0]],[[0.2132401]],ND
160,[[14]],[[161]],[[10]],['high holistic'],['left'],['inverted'],['U0159.bmp'],['male'],[[12]],['female'],[[0]],[[0.39593922]],ND
161,[[14]],[[162]],[[2]],['high holistic'],['right'],['inverted'],['U0014.bmp'],['male'],[[8]],['male'],[[1]],[[0.19663537]],ND
162,[[14]],[[163]],[[19]],['low holistic'],['left'],['upright'],['U0361.bmp'],['female'],[[8]],['female'],[[1]],[[0.10760161]],ND
163,[[14]],[[164]],[[19]],['low holistic'],['left'],['upright'],['U0361.bmp'],['female'],[[10]],['female'],[[1]],[[0.00036135]],ND
164,[[14]],[[165]],[[6]],['high holistic'],['right'],['inverted'],['U0106.bmp'],['female'],[[4]],['male'],[[0]],[[0.14254288]],ND
165,[[14]],[[166]],[[15]],['high holistic'],['right'],['inverted'],['U0312.bmp'],['male'],[[8]],['male'],[[1]],[[0.31476913]],ND
166,[[14]],[[167]],[[17]],['high holistic'],['left'],['upright'],['U0346.bmp'],['male'],[[8]],['male'],[[1]],[[0.06189716]],ND
167,[[14]],[[168]],[[14]],['high holistic'],['right'],['upright'],['U0228.bmp'],['male'],[[6]],['female'],[[0]],[[0.2670751]],ND
168,[[14]],[[169]],[[5]],['low holistic'],['right'],['inverted'],['U0076.bmp'],['male'],[[12]],['male'],[[1]],[[0.07995618]],ND
169,[[14]],[[170]],[[13]],['low holistic'],['left'],['upright'],['U0181.bmp'],['male'],[[12]],['male'],[[1]],[[0.17376244]],ND
170,[[14]],[[171]],[[18]],['low holistic'],['left'],['inverted'],['U0359.bmp'],['male'],[[6]],['female'],[[0]],[[0.25493127]],ND
171,[[14]],[[172]],[[6]],['high holistic'],['left'],['inverted'],['U0106.bmp'],['female'],[[12]],['female'],[[1]],[[0.4996115]],ND
172,[[14]],[[173]],[[14]],['low holistic'],['left'],['inverted'],['U0228.bmp'],['male'],[[8]],['male'],[[1]],[[0.39997117]],ND
173,[[14]],[[174]],[[13]],['high holistic'],['left'],['upright'],['U0181.bmp'],['female'],[[2]],['female'],[[1]],[[0.48684939]],ND
174,[[14]],[[175]],[[20]],['low holistic'],['right'],['inverted'],['U0362.bmp'],['male'],[[6]],['male'],[[1]],[[0.05244664]],ND
175,[[14]],[[176]],[[1]],['low holistic'],['left'],['inverted'],['U0006.bmp'],['female'],[[2]],['female'],[[1]],[[0.00918256]],ND
176,[[14]],[[177]],[[5]],['high holistic'],['right'],['inverted'],['U0076.bmp'],['female'],[[8]],['male'],[[0]],[[0.00034554]],ND
177,[[14]],[[178]],[[6]],['high holistic'],['left'],['inverted'],['U0106.bmp'],['female'],[[12]],['female'],[[1]],[[0.12983526]],ND
178,[[14]],[[179]],[[10]],['low holistic'],['left'],['upright'],['U0159.bmp'],['female'],[[2]],['female'],[[1]],[[0.18025175]],ND
179,[[14]],[[180]],[[15]],['low holistic'],['left'],['inverted'],['U0312.bmp'],['male'],[[6]],['male'],[[1]],[[0.14214794]],ND
180,[[14]],[[181]],[[20]],['low holistic'],['left'],['upright'],['U0362.bmp'],['male'],[[12]],['male'],[[1]],[[0.05402528]],ND
181,[[14]],[[182]],[[4]],['high holistic'],['right'],['inverted'],['U0061.bmp'],['female'],[[12]],['female'],[[1]],[[0.11754629]],ND
182,[[14]],[[183]],[[2]],['low holistic'],['left'],['inverted'],['U0014.bmp'],['male'],[[6]],['female'],[[0]],[[0.16107704]],ND
183,[[14]],[[184]],[[4]],['low holistic'],['right'],['inverted'],['U0061.bmp'],['female'],[[6]],['female'],[[1]],[[0.13798728]],ND
184,[[14]],[[185]],[[16]],['high holistic'],['right'],['inverted'],['U0335.bmp'],['female'],[[6]],['male'],[[0]],[[0.38887064]],ND
185,[[14]],[[186]],[[3]],['high holistic'],['right'],['upright'],['U0020.bmp'],['male'],[[2]],['female'],[[0]],[[0.09206608]],ND
186,[[14]],[[187]],[[15]],['high holistic'],['left'],['inverted'],['U0312.bmp'],['male'],[[4]],['female'],[[0]],[[0.00010837]],ND
187,[[14]],[[188]],[[16]],['low holistic'],['left'],['inverted'],['U0335.bmp'],['female'],[[2]],['female'],[[1]],[[0.1604324]],ND
188,[[14]],[[189]],[[4]],['high holistic'],['left'],['inverted'],['U0061.bmp'],['female'],[[12]],['female'],[[1]],[[0.02619123]],ND
189,[[14]],[[190]],[[3]],['high holistic'],['left'],['inverted'],['U0020.bmp'],['male'],[[6]],['female'],[[0]],[[0.01113219]],ND
190,[[14]],[[191]],[[15]],['low holistic'],['right'],['inverted'],['U0312.bmp'],['male'],[[2]],['male'],[[1]],[[0.00015201]],ND
191,[[14]],[[192]],[[13]],['low holistic'],['fovea'],['inverted'],['U0181.bmp'],['male'],[[0]],['male'],[[1]],[[0.02573158]],ND
192,[[14]],[[193]],[[12]],['low holistic'],['left'],['upright'],['U0178.bmp'],['female'],[[2]],['female'],[[1]],[[0.00010508]],ND
193,[[14]],[[194]],[[6]],['high holistic'],['fovea'],['inverted'],['U0106.bmp'],['female'],[[0]],['female'],[[1]],[[0.06506656]],ND
194,[[14]],[[195]],[[14]],['low holistic'],['right'],['inverted'],['U0228.bmp'],['male'],[[10]],['male'],[[1]],[[0.1020015]],ND
195,[[14]],[[196]],[[14]],['low holistic'],['left'],['inverted'],['U0228.bmp'],['male'],[[10]],['male'],[[1]],[[0.1288731]],ND
196,[[14]],[[197]],[[6]],['low holistic'],['right'],['upright'],['U0106.bmp'],['male'],[[12]],['male'],[[1]],[[0.0851658]],ND
197,[[14]],[[198]],[[10]],['low holistic'],['fovea'],['inverted'],['U0159.bmp'],['female'],[[0]],['female'],[[1]],[[0.04200567]],ND
198,[[14]],[[199]],[[8]],['high holistic'],['right'],['upright'],['U0137.bmp'],['female'],[[10]],['male'],[[0]],[[0.05498121]],ND
199,[[14]],[[200]],[[5]],['high holistic'],['fovea'],['upright'],['U0076.bmp'],['female'],[[0]],['female'],[[1]],[[0.0001003]],ND
200,[[14]],[[201]],[[20]],['low holistic'],['left'],['upright'],['U0362.bmp'],['male'],[[8]],['male'],[[1]],[[0.00037706]],ND
201,[[14]],[[202]],[[5]],['high holistic'],['right'],['upright'],['U0076.bmp'],['female'],[[6]],['female'],[[1]],[[0.00010894]],ND
202,[[14]],[[203]],[[13]],['high holistic'],['fovea'],['inverted'],['U0181.bmp'],['female'],[[0]],['female'],[[1]],[[0.00017334]],ND
203,[[14]],[[204]],[[2]],['high holistic'],['left'],['upright'],['U0014.bmp'],['male'],[[4]],['male'],[[1]],[[0.00012619]],ND
204,[[14]],[[205]],[[15]],['high holistic'],['left'],['upright'],['U0312.bmp'],['male'],[[2]],['male'],[[1]],[[0.28401554]],ND
205,[[14]],[[206]],[[9]],['low holistic'],['right'],['upright'],['U0155.bmp'],['male'],[[8]],['male'],[[1]],[[0.0001017]],ND
206,[[14]],[[207]],[[11]],['low holistic'],['right'],['upright'],['U0164.bmp'],['female'],[[2]],['female'],[[1]],[[0.00039827]],ND
207,[[14]],[[208]],[[10]],['low holistic'],['fovea'],['inverted'],['U0159.bmp'],['female'],[[0]],['female'],[[1]],[[0.05830209]],ND
208,[[14]],[[209]],[[1]],['low holistic'],['right'],['inverted'],['U0006.bmp'],['female'],[[6]],['female'],[[1]],[[0.00013825]],ND
209,[[14]],[[210]],[[13]],['high holistic'],['left'],['upright'],['U0181.bmp'],['female'],[[4]],['female'],[[1]],[[0.15920685]],ND
210,[[14]],[[211]],[[7]],['low holistic'],['left'],['upright'],['U0107.bmp'],['female'],[[10]],['female'],[[1]],[[0.00011505]],ND
211,[[14]],[[212]],[[3]],['low holistic'],['left'],['inverted'],['U0020.bmp'],['female'],[[4]],['female'],[[1]],[[0.00225647]],ND
212,[[14]],[[213]],[[2]],['high holistic'],['right'],['inverted'],['U0014.bmp'],['male'],[[10]],['female'],[[0]],[[0.00010181]],ND
213,[[14]],[[214]],[[13]],['low holistic'],['right'],['upright'],['U0181.bmp'],['male'],[[2]],['male'],[[1]],[[0.00920652]],ND
214,[[14]],[[215]],[[12]],['low holistic'],['right'],['inverted'],['U0178.bmp'],['female'],[[10]],['female'],[[1]],[[0.00010095]],ND
215,[[14]],[[216]],[[20]],['low holistic'],['left'],['upright'],['U0362.bmp'],['male'],[[12]],['male'],[[1]],[[0.00011084]],ND
216,[[14]],[[217]],[[18]],['low holistic'],['right'],['upright'],['U0359.bmp'],['male'],[[6]],['male'],[[1]],[[0.07336258]],ND
217,[[14]],[[218]],[[20]],['high holistic'],['right'],['upright'],['U0362.bmp'],['female'],[[2]],['female'],[[1]],[[0.06985594]],ND
218,[[14]],[[219]],[[11]],['high holistic'],['left'],['inverted'],['U0164.bmp'],['female'],[[12]],['female'],[[1]],[[0.09939217]],ND
219,[[14]],[[220]],[[11]],['high holistic'],['right'],['inverted'],['U0164.bmp'],['female'],[[12]],['female'],[[1]],[[0.91866078]],ND
220,[[14]],[[221]],[[11]],['high holistic'],['right'],['upright'],['U0164.bmp'],['female'],[[6]],['female'],[[1]],[[0.00017357]],ND
221,[[14]],[[222]],[[19]],['low holistic'],['right'],['inverted'],['U0361.bmp'],['female'],[[12]],['female'],[[1]],[[0.02598716]],ND
222,[[14]],[[223]],[[9]],['low holistic'],['right'],['inverted'],['U0155.bmp'],['male'],[[8]],['female'],[[0]],[[0.00011029]],ND
223,[[14]],[[224]],[[1]],['low holistic'],['fovea'],['upright'],['U0006.bmp'],['female'],[[0]],['female'],[[1]],[[0.00010724]],ND
224,[[14]],[[225]],[[19]],['high holistic'],['left'],['inverted'],['U0361.bmp'],['female'],[[6]],['male'],[[0]],[[0.01847022]],ND
225,[[14]],[[226]],[[15]],['low holistic'],['left'],['inverted'],['U0312.bmp'],['male'],[[6]],['male'],[[1]],[[0.00016794]],ND
226,[[14]],[[227]],[[4]],['high holistic'],['right'],['upright'],['U0061.bmp'],['female'],[[4]],['male'],[[0]],[[0.04091482]],ND
227,[[14]],[[228]],[[9]],['low holistic'],['right'],['inverted'],['U0155.bmp'],['male'],[[12]],['female'],[[0]],[[0.07956219]],ND
228,[[14]],[[229]],[[8]],['high holistic'],['right'],['inverted'],['U0137.bmp'],['female'],[[8]],['female'],[[1]],[[0.0920794]],ND
229,[[14]],[[230]],[[16]],['high holistic'],['right'],['inverted'],['U0335.bmp'],['female'],[[2]],['male'],[[0]],[[0.0796422]],ND
230,[[14]],[[231]],[[3]],['high holistic'],['right'],['upright'],['U0020.bmp'],['male'],[[12]],['female'],[[0]],[[0.2952626]],ND
231,[[14]],[[232]],[[11]],['low holistic'],['left'],['upright'],['U0164.bmp'],['female'],[[6]],['female'],[[1]],[[0.00014564]],ND
232,[[14]],[[233]],[[5]],['low holistic'],['right'],['inverted'],['U0076.bmp'],['male'],[[10]],['male'],[[1]],[[0.06747669]],ND
233,[[14]],[[234]],[[18]],['high holistic'],['right'],['inverted'],['U0359.bmp'],['male'],[[2]],['male'],[[1]],[[0.04119434]],ND
234,[[14]],[[235]],[[9]],['low holistic'],['left'],['inverted'],['U0155.bmp'],['male'],[[2]],['male'],[[1]],[[0.09440516]],ND
235,[[14]],[[236]],[[2]],['high holistic'],['right'],['inverted'],['U0014.bmp'],['male'],[[4]],['male'],[[1]],[[0.05119007]],ND
236,[[14]],[[237]],[[3]],['high holistic'],['left'],['upright'],['U0020.bmp'],['male'],[[12]],['female'],[[0]],[[0.21792689]],ND
237,[[14]],[[238]],[[13]],['low holistic'],['left'],['inverted'],['U0181.bmp'],['male'],[[12]],['male'],[[1]],[[0.20972486]],ND
238,[[14]],[[239]],[[14]],['high holistic'],['right'],['inverted'],['U0228.bmp'],['male'],[[6]],['female'],[[0]],[[0.24906672]],ND
239,[[14]],[[240]],[[10]],['high holistic'],['left'],['upright'],['U0159.bmp'],['male'],[[8]],['male'],[[1]],[[0.34333052]],ND
240,[[14]],[[241]],[[9]],['high holistic'],['left'],['upright'],['U0155.bmp'],['female'],[[4]],['male'],[[0]],[[0.16908753]],ND
241,[[14]],[[242]],[[5]],['low holistic'],['right'],['upright'],['U0076.bmp'],['male'],[[8]],['male'],[[1]],[[0.00011907]],ND
242,[[14]],[[243]],[[6]],['low holistic'],['left'],['inverted'],['U0106.bmp'],['male'],[[6]],['female'],[[0]],[[0.13083984]],ND
243,[[14]],[[244]],[[16]],['high holistic'],['left'],['upright'],['U0335.bmp'],['female'],[[8]],['male'],[[0]],[[0.12134423]],ND
244,[[14]],[[245]],[[18]],['low holistic'],['left'],['upright'],['U0359.bmp'],['male'],[[8]],['male'],[[1]],[[0.06975569]],ND
245,[[14]],[[246]],[[11]],['low holistic'],['left'],['upright'],['U0164.bmp'],['female'],[[6]],['female'],[[1]],[[0.0001753]],ND
246,[[14]],[[247]],[[16]],['high holistic'],['left'],['inverted'],['U0335.bmp'],['female'],[[2]],['female'],[[1]],[[0.14639568]],ND
247,[[14]],[[248]],[[14]],['low holistic'],['right'],['inverted'],['U0228.bmp'],['male'],[[4]],['male'],[[1]],[[0.00030511]],ND
248,[[14]],[[249]],[[6]],['high holistic'],['left'],['inverted'],['U0106.bmp'],['female'],[[2]],['male'],[[0]],[[0.18875343]],ND
249,[[14]],[[250]],[[19]],['low holistic'],['left'],['inverted'],['U0361.bmp'],['female'],[[8]],['female'],[[1]],[[0.01999924]],ND
250,[[14]],[[251]],[[16]],['high holistic'],['left'],['inverted'],['U0335.bmp'],['female'],[[8]],['male'],[[0]],[[0.08391507]],ND
251,[[14]],[[252]],[[18]],['high holistic'],['right'],['upright'],['U0359.bmp'],['male'],[[8]],['female'],[[0]],[[0.10519211]],ND
252,[[14]],[[253]],[[4]],['low holistic'],['right'],['upright'],['U0061.bmp'],['female'],[[12]],['male'],[[0]],[[0.01212594]],ND
253,[[14]],[[254]],[[13]],['high holistic'],['right'],['inverted'],['U0181.bmp'],['female'],[[12]],['female'],[[1]],[[0.28470889]],ND
254,[[14]],[[255]],[[14]],['high holistic'],['right'],['upright'],['U0228.bmp'],['male'],[[2]],['male'],[[1]],[[0.02474251]],ND
255,[[14]],[[256]],[[15]],['low holistic'],['left'],['inverted'],['U0312.bmp'],['male'],[[2]],['male'],[[1]],[[0.02205267]],ND
256,[[14]],[[257]],[[10]],['low holistic'],['right'],['inverted'],['U0159.bmp'],['female'],[[2]],['female'],[[1]],[[0.07810775]],ND
257,[[14]],[[258]],[[14]],['low holistic'],['left'],['upright'],['U0228.bmp'],['male'],[[10]],['male'],[[1]],[[9.97064635e-05]],ND
258,[[14]],[[259]],[[18]],['low holistic'],['right'],['inverted'],['U0359.bmp'],['male'],[[12]],['male'],[[1]],[[0.28182702]],ND
259,[[14]],[[260]],[[2]],['high holistic'],['right'],['upright'],['U0014.bmp'],['male'],[[2]],['male'],[[1]],[[0.03985876]],ND
260,[[14]],[[261]],[[8]],['high holistic'],['right'],['inverted'],['U0137.bmp'],['female'],[[12]],['male'],[[0]],[[0.28922086]],ND
261,[[14]],[[262]],[[12]],['low holistic'],['left'],['inverted'],['U0178.bmp'],['female'],[[4]],['female'],[[1]],[[0.00011861]],ND
262,[[14]],[[263]],[[7]],['low holistic'],['right'],['inverted'],['U0107.bmp'],['female'],[[8]],['female'],[[1]],[[0.10263371]],ND
263,[[14]],[[264]],[[6]],['low holistic'],['right'],['upright'],['U0106.bmp'],['male'],[[2]],['male'],[[1]],[[0.03441334]],ND
264,[[14]],[[265]],[[6]],['low holistic'],['right'],['inverted'],['U0106.bmp'],['male'],[[2]],['male'],[[1]],[[0.06577431]],ND
265,[[14]],[[266]],[[7]],['high holistic'],['right'],['inverted'],['U0107.bmp'],['female'],[[4]],['male'],[[0]],[[0.00011597]],ND
266,[[14]],[[267]],[[6]],['high holistic'],['left'],['inverted'],['U0106.bmp'],['female'],[[10]],['female'],[[1]],[[0.11945446]],ND
267,[[14]],[[268]],[[17]],['low holistic'],['right'],['upright'],['U0346.bmp'],['female'],[[4]],['female'],[[1]],[[0.0349221]],ND
268,[[14]],[[269]],[[14]],['high holistic'],['left'],['upright'],['U0228.bmp'],['male'],[[2]],['male'],[[1]],[[0.16008562]],ND
269,[[14]],[[270]],[[9]],['high holistic'],['right'],['upright'],['U0155.bmp'],['female'],[[4]],['male'],[[0]],[[0.07382191]],ND
270,[[14]],[[271]],[[1]],['high holistic'],['left'],['upright'],['U0006.bmp'],['female'],[[6]],['female'],[[1]],[[0.00010123]],ND
271,[[14]],[[272]],[[9]],['high holistic'],['left'],['inverted'],['U0155.bmp'],['female'],[[6]],['female'],[[1]],[[0.01567219]],ND
272,[[14]],[[273]],[[15]],['high holistic'],['left'],['upright'],['U0312.bmp'],['male'],[[2]],['female'],[[0]],[[0.17496733]],ND
273,[[14]],[[274]],[[12]],['low holistic'],['left'],['upright'],['U0178.bmp'],['female'],[[12]],['female'],[[1]],[[0.03949728]],ND
274,[[14]],[[275]],[[20]],['low holistic'],['right'],['upright'],['U0362.bmp'],['male'],[[2]],['male'],[[1]],[[0.00010139]],ND
275,[[14]],[[276]],[[7]],['low holistic'],['left'],['upright'],['U0107.bmp'],['female'],[[10]],['female'],[[1]],[[0.00010727]],ND
276,[[14]],[[277]],[[2]],['low holistic'],['right'],['inverted'],['U0014.bmp'],['male'],[[4]],['male'],[[1]],[[0.01479099]],ND
277,[[14]],[[278]],[[18]],['high holistic'],['left'],['upright'],['U0359.bmp'],['male'],[[10]],['female'],[[0]],[[0.02210851]],ND
278,[[14]],[[279]],[[6]],['high holistic'],['right'],['upright'],['U0106.bmp'],['female'],[[4]],['female'],[[1]],[[0.29269853]],ND
279,[[14]],[[280]],[[6]],['high holistic'],['right'],['upright'],['U0106.bmp'],['female'],[[12]],['female'],[[1]],[[0.00010504]],ND
280,[[14]],[[281]],[[3]],['high holistic'],['left'],['inverted'],['U0020.bmp'],['male'],[[12]],['female'],[[0]],[[0.05648543]],ND
281,[[14]],[[282]],[[5]],['high holistic'],['right'],['inverted'],['U0076.bmp'],['female'],[[12]],['male'],[[0]],[[0.12553083]],ND
282,[[14]],[[283]],[[15]],['low holistic'],['right'],['upright'],['U0312.bmp'],['male'],[[4]],['male'],[[1]],[[0.0180652]],ND
283,[[14]],[[284]],[[1]],['high holistic'],['left'],['inverted'],['U0006.bmp'],['female'],[[12]],['female'],[[1]],[[0.04101734]],ND
284,[[14]],[[285]],[[15]],['low holistic'],['right'],['upright'],['U0312.bmp'],['male'],[[2]],['male'],[[1]],[[0.02999615]],ND
285,[[14]],[[286]],[[7]],['high holistic'],['right'],['upright'],['U0107.bmp'],['female'],[[12]],['male'],[[0]],[[0.0001657]],ND
286,[[14]],[[287]],[[8]],['low holistic'],['left'],['inverted'],['U0137.bmp'],['male'],[[12]],['female'],[[0]],[[0.0001068]],ND
287,[[14]],[[288]],[[6]],['high holistic'],['right'],['upright'],['U0106.bmp'],['female'],[[12]],['female'],[[1]],[[0.1739183]],ND
288,[[14]],[[289]],[[7]],['low holistic'],['left'],['inverted'],['U0107.bmp'],['female'],[[2]],['female'],[[1]],[[0.00022889]],ND
289,[[14]],[[290]],[[5]],['low holistic'],['right'],['upright'],['U0076.bmp'],['male'],[[8]],['male'],[[1]],[[0.00027679]],ND
290,[[14]],[[291]],[[16]],['high holistic'],['right'],['inverted'],['U0335.bmp'],['female'],[[10]],['male'],[[0]],[[0.05486539]],ND
291,[[14]],[[292]],[[12]],['low holistic'],['left'],['upright'],['U0178.bmp'],['female'],[[2]],['female'],[[1]],[[9.95937735e-05]],ND
292,[[14]],[[293]],[[14]],['low holistic'],['fovea'],['inverted'],['U0228.bmp'],['male'],[[0]],['male'],[[1]],[[4.97274203]],ND
293,[[14]],[[294]],[[12]],['high holistic'],['left'],['inverted'],['U0178.bmp'],['male'],[[12]],['female'],[[0]],[[0.13394263]],ND
294,[[14]],[[295]],[[11]],['low holistic'],['right'],['inverted'],['U0164.bmp'],['female'],[[4]],['female'],[[1]],[[9.88896936e-05]],ND
295,[[14]],[[296]],[[16]],['high holistic'],['left'],['upright'],['U0335.bmp'],['female'],[[4]],['male'],[[0]],[[0.00015537]],ND
296,[[14]],[[297]],[[4]],['low holistic'],['left'],['upright'],['U0061.bmp'],['female'],[[10]],['female'],[[1]],[[0.00010071]],ND
297,[[14]],[[298]],[[16]],['high holistic'],['right'],['inverted'],['U0335.bmp'],['female'],[[12]],['male'],[[0]],[[0.04092235]],ND
298,[[14]],[[299]],[[17]],['low holistic'],['right'],['upright'],['U0346.bmp'],['female'],[[2]],['female'],[[1]],[[0.00010093]],ND
299,[[14]],[[300]],[[16]],['high holistic'],['left'],['inverted'],['U0335.bmp'],['female'],[[10]],['female'],[[1]],[[0.11016184]],ND
300,[[14]],[[301]],[[3]],['high holistic'],['left'],['upright'],['U0020.bmp'],['male'],[[10]],['female'],[[0]],[[9.87034291e-05]],ND
301,[[14]],[[302]],[[16]],['low holistic'],['left'],['inverted'],['U0335.bmp'],['female'],[[4]],['female'],[[1]],[[0.01808787]],ND
302,[[14]],[[303]],[[3]],['low holistic'],['right'],['inverted'],['U0020.bmp'],['female'],[[12]],['male'],[[0]],[[0.10488107]],ND
303,[[14]],[[304]],[[8]],['high holistic'],['left'],['upright'],['U0137.bmp'],['female'],[[6]],['female'],[[1]],[[0.05920134]],ND
304,[[14]],[[305]],[[2]],['low holistic'],['right'],['upright'],['U0014.bmp'],['male'],[[6]],['female'],[[0]],[[0.12213826]],ND
305,[[14]],[[306]],[[16]],['high holistic'],['left'],['upright'],['U0335.bmp'],['female'],[[4]],['female'],[[1]],[[0.32655715]],ND
306,[[14]],[[307]],[[14]],['low holistic'],['right'],['inverted'],['U0228.bmp'],['male'],[[2]],['male'],[[1]],[[0.01628932]],ND
307,[[14]],[[308]],[[15]],['high holistic'],['fovea'],['inverted'],['U0312.bmp'],['male'],[[0]],['male'],[[1]],[[4.70365696]],ND
308,[[14]],[[309]],[[16]],['high holistic'],['right'],['inverted'],['U0335.bmp'],['female'],[[2]],['male'],[[0]],[[0.00032874]],ND
309,[[14]],[[310]],[[4]],['low holistic'],['fovea'],['upright'],['U0061.bmp'],['female'],[[0]],['female'],[[1]],[[0.01236661]],ND
310,[[14]],[[311]],[[2]],['high holistic'],['right'],['inverted'],['U0014.bmp'],['male'],[[10]],['male'],[[1]],[[0.10683735]],ND
311,[[14]],[[312]],[[20]],['high holistic'],['left'],['inverted'],['U0362.bmp'],['female'],[[8]],['female'],[[1]],[[0.00020949]],ND
312,[[14]],[[313]],[[13]],['high holistic'],['left'],['upright'],['U0181.bmp'],['female'],[[10]],['female'],[[1]],[[0.00034621]],ND
313,[[14]],[[314]],[[15]],['high holistic'],['right'],['upright'],['U0312.bmp'],['male'],[[8]],['male'],[[1]],[[0.00010048]],ND
314,[[14]],[[315]],[[1]],['low holistic'],['left'],['inverted'],['U0006.bmp'],['female'],[[6]],['female'],[[1]],[[0.00022558]],ND
315,[[14]],[[316]],[[5]],['low holistic'],['fovea'],['inverted'],['U0076.bmp'],['male'],[[0]],['male'],[[1]],[[0.00015582]],ND
316,[[14]],[[317]],[[10]],['high holistic'],['left'],['upright'],['U0159.bmp'],['male'],[[8]],['female'],[[0]],[[0.00010001]],ND
317,[[14]],[[318]],[[8]],['low holistic'],['fovea'],['upright'],['U0137.bmp'],['male'],[[0]],['male'],[[1]],[[0.00010912]],ND
318,[[14]],[[319]],[[6]],['low holistic'],['left'],['upright'],['U0106.bmp'],['male'],[[10]],['female'],[[0]],[[0.00011999]],ND
319,[[14]],[[320]],[[9]],['low holistic'],['right'],['upright'],['U0155.bmp'],['male'],[[8]],['male'],[[1]],[[1.59183041]],ND
320,[[14]],[[321]],[[19]],['low holistic'],['right'],['upright'],['U0361.bmp'],['female'],[[10]],['female'],[[1]],[[0.09585621]],ND
321,[[14]],[[322]],[[11]],['high holistic'],['right'],['inverted'],['U0164.bmp'],['female'],[[4]],['male'],[[0]],[[0.13215247]],ND
322,[[14]],[[323]],[[6]],['high holistic'],['right'],['inverted'],['U0106.bmp'],['female'],[[6]],['female'],[[1]],[[0.00015291]],ND
323,[[14]],[[324]],[[5]],['high holistic'],['left'],['upright'],['U0076.bmp'],['female'],[[2]],['female'],[[1]],[[0.00037816]],ND
324,[[14]],[[325]],[[12]],['high holistic'],['fovea'],['upright'],['U0178.bmp'],['male'],[[0]],['female'],[[0]],[[0.00048695]],ND
325,[[14]],[[326]],[[13]],['low holistic'],['left'],['inverted'],['U0181.bmp'],['male'],[[10]],['male'],[[1]],[[0.16669894]],ND
326,[[14]],[[327]],[[6]],['high holistic'],['left'],['inverted'],['U0106.bmp'],['female'],[[6]],['female'],[[1]],[[0.03211088]],ND
327,[[14]],[[328]],[[19]],['high holistic'],['right'],['inverted'],['U0361.bmp'],['female'],[[4]],['male'],[[0]],[[0.10082166]],ND
328,[[14]],[[329]],[[1]],['high holistic'],['left'],['upright'],['U0006.bmp'],['female'],[[10]],['female'],[[1]],[[0.00011709]],ND
329,[[14]],[[330]],[[5]],['low holistic'],['left'],['inverted'],['U0076.bmp'],['male'],[[8]],['female'],[[0]],[[0.01680117]],ND
330,[[14]],[[331]],[[16]],['high holistic'],['left'],['upright'],['U0335.bmp'],['female'],[[8]],['male'],[[0]],[[0.04927616]],ND
331,[[14]],[[332]],[[4]],['high holistic'],['left'],['inverted'],['U0061.bmp'],['female'],[[4]],['male'],[[0]],[[0.15060801]],ND
332,[[14]],[[333]],[[1]],['low holistic'],['left'],['upright'],['U0006.bmp'],['female'],[[2]],['female'],[[1]],[[0.00012172]],ND
333,[[14]],[[334]],[[11]],['low holistic'],['right'],['inverted'],['U0164.bmp'],['female'],[[2]],['female'],[[1]],[[0.00044243]],ND
334,[[14]],[[335]],[[14]],['low holistic'],['left'],['inverted'],['U0228.bmp'],['male'],[[6]],['female'],[[0]],[[0.19350952]],ND
335,[[14]],[[336]],[[3]],['high holistic'],['fovea'],['upright'],['U0020.bmp'],['male'],[[0]],['male'],[[1]],[[0.04966249]],ND
336,[[14]],[[337]],[[13]],['low holistic'],['right'],['upright'],['U0181.bmp'],['male'],[[6]],['male'],[[1]],[[0.00037046]],ND
337,[[14]],[[338]],[[11]],['high holistic'],['right'],['upright'],['U0164.bmp'],['female'],[[12]],['female'],[[1]],[[0.01569077]],ND
338,[[14]],[[339]],[[3]],['high holistic'],['right'],['inverted'],['U0020.bmp'],['male'],[[6]],['female'],[[0]],[[0.05454065]],ND
339,[[14]],[[340]],[[6]],['low holistic'],['right'],['inverted'],['U0106.bmp'],['male'],[[12]],['male'],[[1]],[[0.04596858]],ND
340,[[14]],[[341]],[[8]],['high holistic'],['right'],['upright'],['U0137.bmp'],['female'],[[4]],['female'],[[1]],[[0.05029463]],ND
341,[[14]],[[342]],[[19]],['low holistic'],['right'],['upright'],['U0361.bmp'],['female'],[[8]],['female'],[[1]],[[0.00010631]],ND
342,[[14]],[[343]],[[19]],['low holistic'],['right'],['inverted'],['U0361.bmp'],['female'],[[2]],['female'],[[1]],[[0.09802057]],ND
343,[[14]],[[344]],[[14]],['high holistic'],['left'],['upright'],['U0228.bmp'],['male'],[[8]],['female'],[[0]],[[0.00012145]],ND
344,[[14]],[[345]],[[7]],['low holistic'],['right'],['upright'],['U0107.bmp'],['female'],[[12]],['female'],[[1]],[[0.00010112]],ND
345,[[14]],[[346]],[[13]],['low holistic'],['left'],['upright'],['U0181.bmp'],['male'],[[6]],['male'],[[1]],[[0.00010955]],ND
346,[[14]],[[347]],[[14]],['low holistic'],['right'],['upright'],['U0228.bmp'],['male'],[[4]],['male'],[[1]],[[9.83234495e-05]],ND
347,[[14]],[[348]],[[7]],['high holistic'],['left'],['upright'],['U0107.bmp'],['female'],[[4]],['female'],[[1]],[[0.00016957]],ND
348,[[14]],[[349]],[[15]],['high holistic'],['right'],['upright'],['U0312.bmp'],['male'],[[12]],['female'],[[0]],[[0.04453722]],ND
349,[[14]],[[350]],[[13]],['low holistic'],['left'],['inverted'],['U0181.bmp'],['male'],[[2]],['female'],[[0]],[[0.02750001]],ND
350,[[14]],[[351]],[[13]],['high holistic'],['left'],['upright'],['U0181.bmp'],['female'],[[12]],['female'],[[1]],[[0.12958991]],ND
351,[[14]],[[352]],[[3]],['high holistic'],['right'],['upright'],['U0020.bmp'],['male'],[[10]],['female'],[[0]],[[0.15010948]],ND
352,[[14]],[[353]],[[3]],['low holistic'],['right'],['upright'],['U0020.bmp'],['female'],[[4]],['female'],[[1]],[[0.01594497]],ND
353,[[14]],[[354]],[[13]],['high holistic'],['left'],['inverted'],['U0181.bmp'],['female'],[[8]],['female'],[[1]],[[0.0002099]],ND
354,[[14]],[[355]],[[18]],['high holistic'],['fovea'],['upright'],['U0359.bmp'],['male'],[[0]],['male'],[[1]],[[0.00012069]],ND
355,[[14]],[[356]],[[19]],['high holistic'],['fovea'],['inverted'],['U0361.bmp'],['female'],[[0]],['male'],[[0]],[[0.00010976]],ND
356,[[14]],[[357]],[[13]],['low holistic'],['left'],['upright'],['U0181.bmp'],['male'],[[4]],['male'],[[1]],[[1.71754424]],ND
357,[[14]],[[358]],[[10]],['low holistic'],['left'],['upright'],['U0159.bmp'],['female'],[[8]],['female'],[[1]],[[0.0016181]],ND
358,[[14]],[[359]],[[15]],['low holistic'],['right'],['inverted'],['U0312.bmp'],['male'],[[4]],['male'],[[1]],[[9.86102968e-05]],ND
359,[[14]],[[360]],[[11]],['high holistic'],['right'],['upright'],['U0164.bmp'],['female'],[[10]],['female'],[[1]],[[0.00010716]],ND
360,[[14]],[[361]],[[20]],['low holistic'],['left'],['inverted'],['U0362.bmp'],['male'],[[6]],['female'],[[0]],[[4.55970941]],ND
361,[[14]],[[362]],[[13]],['low holistic'],['right'],['inverted'],['U0181.bmp'],['male'],[[8]],['male'],[[1]],[[0.00990046]],ND
362,[[14]],[[363]],[[4]],['low holistic'],['fovea'],['upright'],['U0061.bmp'],['female'],[[0]],['female'],[[1]],[[0.00010069]],ND
363,[[14]],[[364]],[[2]],['low holistic'],['left'],['inverted'],['U0014.bmp'],['male'],[[2]],['male'],[[1]],[[0.0894019]],ND
364,[[14]],[[365]],[[5]],['high holistic'],['left'],['upright'],['U0076.bmp'],['female'],[[2]],['female'],[[1]],[[9.96822491e-05]],ND
365,[[14]],[[366]],[[20]],['low holistic'],['right'],['inverted'],['U0362.bmp'],['male'],[[6]],['male'],[[1]],[[0.09302096]],ND
366,[[14]],[[367]],[[15]],['low holistic'],['right'],['upright'],['U0312.bmp'],['male'],[[4]],['male'],[[1]],[[9.96831805e-05]],ND
367,[[14]],[[368]],[[2]],['high holistic'],['left'],['upright'],['U0014.bmp'],['male'],[[6]],['female'],[[0]],[[0.00010861]],ND
368,[[14]],[[369]],[[11]],['high holistic'],['left'],['inverted'],['U0164.bmp'],['female'],[[12]],['female'],[[1]],[[9.99765471e-05]],ND
369,[[14]],[[370]],[[19]],['high holistic'],['right'],['inverted'],['U0361.bmp'],['female'],[[6]],['male'],[[0]],[[0.00010007]],ND
370,[[14]],[[371]],[[13]],['high holistic'],['left'],['upright'],['U0181.bmp'],['female'],[[10]],['female'],[[1]],[[0.00010055]],ND
371,[[14]],[[372]],[[14]],['high holistic'],['left'],['inverted'],['U0228.bmp'],['male'],[[8]],['female'],[[0]],[[0.04220714]],ND
372,[[14]],[[373]],[[16]],['low holistic'],['left'],['inverted'],['U0335.bmp'],['female'],[[6]],['female'],[[1]],[[0.00047921]],ND
373,[[14]],[[374]],[[2]],['low holistic'],['left'],['upright'],['U0014.bmp'],['male'],[[8]],['female'],[[0]],[[0.01481503]],ND
374,[[14]],[[375]],[[16]],['high holistic'],['left'],['inverted'],['U0335.bmp'],['female'],[[2]],['male'],[[0]],[[0.00012341]],ND
375,[[14]],[[376]],[[17]],['high holistic'],['left'],['upright'],['U0346.bmp'],['male'],[[10]],['male'],[[1]],[[0.07011227]],ND
376,[[14]],[[377]],[[14]],['low holistic'],['right'],['upright'],['U0228.bmp'],['male'],[[4]],['male'],[[1]],[[0.00048194]],ND
377,[[14]],[[378]],[[4]],['low holistic'],['left'],['upright'],['U0061.bmp'],['female'],[[4]],['female'],[[1]],[[0.00012421]],ND
378,[[14]],[[379]],[[2]],['high holistic'],['left'],['inverted'],['U0014.bmp'],['male'],[[4]],['female'],[[0]],[[9.85683873e-05]],ND
379,[[14]],[[380]],[[13]],['low holistic'],['right'],['inverted'],['U0181.bmp'],['male'],[[10]],['male'],[[1]],[[0.00010046]],ND
380,[[14]],[[381]],[[12]],['low holistic'],['right'],['inverted'],['U0178.bmp'],['female'],[[12]],['female'],[[1]],[[0.0269135]],ND
381,[[14]],[[382]],[[4]],['low holistic'],['left'],['inverted'],['U0061.bmp'],['female'],[[8]],['female'],[[1]],[[0.05881627]],ND
382,[[14]],[[383]],[[2]],['low holistic'],['fovea'],['upright'],['U0014.bmp'],['male'],[[0]],['male'],[[1]],[[0.00729269]],ND
383,[[14]],[[384]],[[13]],['high holistic'],['right'],['inverted'],['U0181.bmp'],['female'],[[2]],['female'],[[1]],[[0.00012442]],ND
384,[[14]],[[385]],[[2]],['high holistic'],['left'],['inverted'],['U0014.bmp'],['male'],[[12]],['female'],[[0]],[[0.00018594]],ND
385,[[14]],[[386]],[[5]],['low holistic'],['right'],['upright'],['U0076.bmp'],['male'],[[8]],['male'],[[1]],[[0.0001066]],ND
386,[[14]],[[387]],[[15]],['low holistic'],['right'],['inverted'],['U0312.bmp'],['male'],[[10]],['male'],[[1]],[[0.00058992]],ND
387,[[14]],[[388]],[[11]],['high holistic'],['right'],['inverted'],['U0164.bmp'],['female'],[[10]],['male'],[[0]],[[0.00649276]],ND
388,[[14]],[[389]],[[2]],['low holistic'],['right'],['inverted'],['U0014.bmp'],['male'],[[2]],['male'],[[1]],[[0.00010079]],ND
389,[[14]],[[390]],[[4]],['low holistic'],['right'],['inverted'],['U0061.bmp'],['female'],[[4]],['female'],[[1]],[[0.00012457]],ND
390,[[14]],[[391]],[[20]],['low holistic'],['left'],['upright'],['U0362.bmp'],['male'],[[12]],['male'],[[1]],[[0.13872332]],ND
391,[[14]],[[392]],[[1]],['low holistic'],['right'],['inverted'],['U0006.bmp'],['female'],[[10]],['female'],[[1]],[[0.08595271]],ND
392,[[14]],[[393]],[[2]],['high holistic'],['left'],['inverted'],['U0014.bmp'],['male'],[[10]],['female'],[[0]],[[0.00010041]],ND
393,[[14]],[[394]],[[16]],['high holistic'],['fovea'],['inverted'],['U0335.bmp'],['female'],[[0]],['male'],[[0]],[[9.75877047e-05]],ND
394,[[14]],[[395]],[[11]],['low holistic'],['right'],['inverted'],['U0164.bmp'],['female'],[[2]],['female'],[[1]],[[0.00019727]],ND
395,[[14]],[[396]],[[13]],['high holistic'],['left'],['inverted'],['U0181.bmp'],['female'],[[2]],['female'],[[1]],[[9.97530296e-05]],ND
396,[[14]],[[397]],[[5]],['high holistic'],['right'],['inverted'],['U0076.bmp'],['female'],[[4]],['female'],[[1]],[[0.01614217]],ND
397,[[14]],[[398]],[[2]],['high holistic'],['left'],['inverted'],['U0014.bmp'],['male'],[[10]],['female'],[[0]],[[0.00015203]],ND
398,[[14]],[[399]],[[6]],['low holistic'],['left'],['inverted'],['U0106.bmp'],['male'],[[12]],['male'],[[1]],[[0.06326927]],ND
399,[[14]],[[400]],[[20]],['high holistic'],['left'],['inverted'],['U0362.bmp'],['female'],[[4]],['female'],[[1]],[[9.99541953e-05]],ND
400,[[14]],[[401]],[[10]],['low holistic'],['left'],['inverted'],['U0159.bmp'],['female'],[[2]],['female'],[[1]],[[0.00011179]],ND
401,[[14]],[[402]],[[2]],['low holistic'],['right'],['upright'],['U0014.bmp'],['male'],[[4]],['female'],[[0]],[[0.0213489]],ND
402,[[14]],[[403]],[[7]],['high holistic'],['right'],['upright'],['U0107.bmp'],['female'],[[10]],['female'],[[1]],[[0.00014363]],ND
403,[[14]],[[404]],[[5]],['high holistic'],['right'],['upright'],['U0076.bmp'],['female'],[[10]],['female'],[[1]],[[0.00010696]],ND
404,[[14]],[[405]],[[12]],['low holistic'],['right'],['upright'],['U0178.bmp'],['female'],[[6]],['female'],[[1]],[[1.43522556]],ND
405,[[14]],[[406]],[[18]],['low holistic'],['right'],['upright'],['U0359.bmp'],['male'],[[12]],['female'],[[0]],[[0.05829036]],ND
406,[[14]],[[407]],[[13]],['low holistic'],['right'],['inverted'],['U0181.bmp'],['male'],[[2]],['female'],[[0]],[[0.00045743]],ND
407,[[14]],[[408]],[[10]],['high holistic'],['left'],['upright'],['U0159.bmp'],['male'],[[6]],['female'],[[0]],[[0.00010094]],ND
408,[[14]],[[409]],[[2]],['high holistic'],['right'],['inverted'],['U0014.bmp'],['male'],[[6]],['male'],[[1]],[[1.52800962]],ND
409,[[14]],[[410]],[[8]],['low holistic'],['right'],['upright'],['U0137.bmp'],['male'],[[2]],['male'],[[1]],[[0.00011574]],ND
410,[[14]],[[411]],[[12]],['high holistic'],['fovea'],['inverted'],['U0178.bmp'],['male'],[[0]],['male'],[[1]],[[0.03439985]],ND
411,[[14]],[[412]],[[2]],['low holistic'],['left'],['inverted'],['U0014.bmp'],['male'],[[8]],['female'],[[0]],[[0.00041158]],ND
412,[[14]],[[413]],[[3]],['high holistic'],['right'],['upright'],['U0020.bmp'],['male'],[[12]],['male'],[[1]],[[0.00021144]],ND
413,[[14]],[[414]],[[6]],['high holistic'],['left'],['inverted'],['U0106.bmp'],['female'],[[6]],['female'],[[1]],[[0.00011709]],ND
414,[[14]],[[415]],[[6]],['low holistic'],['left'],['upright'],['U0106.bmp'],['male'],[[8]],['female'],[[0]],[[0.00010493]],ND
415,[[14]],[[416]],[[2]],['high holistic'],['left'],['upright'],['U0014.bmp'],['male'],[[4]],['male'],[[1]],[[9.92976129e-05]],ND
416,[[14]],[[417]],[[2]],['low holistic'],['left'],['upright'],['U0014.bmp'],['male'],[[6]],['female'],[[0]],[[0.02381033]],ND
417,[[14]],[[418]],[[3]],['low holistic'],['right'],['upright'],['U0020.bmp'],['female'],[[6]],['male'],[[0]],[[0.00011091]],ND
418,[[14]],[[419]],[[8]],['low holistic'],['right'],['upright'],['U0137.bmp'],['male'],[[10]],['male'],[[1]],[[0.02118552]],ND
419,[[14]],[[420]],[[18]],['high holistic'],['left'],['inverted'],['U0359.bmp'],['male'],[[6]],['female'],[[0]],[[0.00013862]],ND
420,[[14]],[[421]],[[14]],['high holistic'],['right'],['upright'],['U0228.bmp'],['male'],[[4]],['male'],[[1]],[[0.07780689]],ND
421,[[14]],[[422]],[[18]],['low holistic'],['left'],['upright'],['U0359.bmp'],['male'],[[4]],['female'],[[0]],[[0.01703326]],ND
422,[[14]],[[423]],[[17]],['high holistic'],['right'],['upright'],['U0346.bmp'],['male'],[[8]],['male'],[[1]],[[0.00028536]],ND
423,[[14]],[[424]],[[16]],['high holistic'],['right'],['upright'],['U0335.bmp'],['female'],[[8]],['male'],[[0]],[[0.07281908]],ND
424,[[14]],[[425]],[[18]],['high holistic'],['right'],['inverted'],['U0359.bmp'],['male'],[[6]],['male'],[[1]],[[0.01272474]],ND
425,[[14]],[[426]],[[8]],['high holistic'],['left'],['inverted'],['U0137.bmp'],['female'],[[10]],['male'],[[0]],[[0.10824735]],ND
426,[[14]],[[427]],[[6]],['high holistic'],['fovea'],['upright'],['U0106.bmp'],['female'],[[0]],['female'],[[1]],[[0.04768987]],ND
427,[[14]],[[428]],[[15]],['low holistic'],['left'],['inverted'],['U0312.bmp'],['male'],[[8]],['male'],[[1]],[[0.1655171]],ND
428,[[14]],[[429]],[[16]],['low holistic'],['left'],['inverted'],['U0335.bmp'],['female'],[[12]],['female'],[[1]],[[0.01561016]],ND
429,[[14]],[[430]],[[12]],['high holistic'],['right'],['inverted'],['U0178.bmp'],['male'],[[10]],['female'],[[0]],[[0.0218923]],ND
430,[[14]],[[431]],[[19]],['low holistic'],['left'],['upright'],['U0361.bmp'],['female'],[[8]],['female'],[[1]],[[0.08430277]],ND
431,[[14]],[[432]],[[18]],['high holistic'],['left'],['upright'],['U0359.bmp'],['male'],[[10]],['female'],[[0]],[[0.00010445]],ND
432,[[14]],[[433]],[[16]],['high holistic'],['right'],['inverted'],['U0335.bmp'],['female'],[[12]],['male'],[[0]],[[0.16133598]],ND
433,[[14]],[[434]],[[11]],['low holistic'],['right'],['upright'],['U0164.bmp'],['female'],[[10]],['female'],[[1]],[[0.00010014]],ND
434,[[14]],[[435]],[[2]],['low holistic'],['left'],['upright'],['U0014.bmp'],['male'],[[2]],['male'],[[1]],[[0.09708542]],ND
435,[[14]],[[436]],[[19]],['low holistic'],['right'],['inverted'],['U0361.bmp'],['female'],[[8]],['female'],[[1]],[[9.99132171e-05]],ND
436,[[14]],[[437]],[[11]],['high holistic'],['left'],['inverted'],['U0164.bmp'],['female'],[[6]],['female'],[[1]],[[0.06956039]],ND
437,[[14]],[[438]],[[5]],['low holistic'],['left'],['upright'],['U0076.bmp'],['male'],[[10]],['male'],[[1]],[[9.90731642e-05]],ND
438,[[14]],[[439]],[[6]],['low holistic'],['right'],['inverted'],['U0106.bmp'],['male'],[[2]],['male'],[[1]],[[0.00022228]],ND
439,[[14]],[[440]],[[18]],['low holistic'],['right'],['inverted'],['U0359.bmp'],['male'],[[6]],['male'],[[1]],[[0.00018729]],ND
440,[[14]],[[441]],[[3]],['high holistic'],['left'],['upright'],['U0020.bmp'],['male'],[[12]],['female'],[[0]],[[0.1281228]],ND
441,[[14]],[[442]],[[4]],['low holistic'],['left'],['inverted'],['U0061.bmp'],['female'],[[10]],['female'],[[1]],[[0.00011133]],ND
442,[[14]],[[443]],[[8]],['high holistic'],['left'],['inverted'],['U0137.bmp'],['female'],[[6]],['female'],[[1]],[[0.01865587]],ND
443,[[14]],[[444]],[[2]],['high holistic'],['right'],['inverted'],['U0014.bmp'],['male'],[[2]],['male'],[[1]],[[0.04287353]],ND
444,[[14]],[[445]],[[17]],['low holistic'],['left'],['inverted'],['U0346.bmp'],['female'],[[10]],['female'],[[1]],[[0.00018442]],ND
445,[[14]],[[446]],[[19]],['low holistic'],['right'],['upright'],['U0361.bmp'],['female'],[[4]],['male'],[[0]],[[0.00032217]],ND
446,[[14]],[[447]],[[2]],['high holistic'],['right'],['upright'],['U0014.bmp'],['male'],[[10]],['male'],[[1]],[[0.07098296]],ND
447,[[14]],[[448]],[[1]],['low holistic'],['right'],['upright'],['U0006.bmp'],['female'],[[12]],['female'],[[1]],[[0.00010706]],ND
448,[[14]],[[449]],[[3]],['low holistic'],['left'],['inverted'],['U0020.bmp'],['female'],[[6]],['female'],[[1]],[[0.00010103]],ND
449,[[14]],[[450]],[[7]],['high holistic'],['right'],['inverted'],['U0107.bmp'],['female'],[[2]],['female'],[[1]],[[0.00013217]],ND
450,[[14]],[[451]],[[7]],['high holistic'],['left'],['inverted'],['U0107.bmp'],['female'],[[10]],['female'],[[1]],[[0.02874183]],ND
451,[[14]],[[452]],[[18]],['low holistic'],['right'],['inverted'],['U0359.bmp'],['male'],[[4]],['male'],[[1]],[[0.05036456]],ND
452,[[14]],[[453]],[[4]],['low holistic'],['right'],['upright'],['U0061.bmp'],['female'],[[2]],['female'],[[1]],[[0.00039864]],ND
453,[[14]],[[454]],[[14]],['low holistic'],['right'],['upright'],['U0228.bmp'],['male'],[[12]],['male'],[[1]],[[0.06466512]],ND
454,[[14]],[[455]],[[15]],['high holistic'],['right'],['inverted'],['U0312.bmp'],['male'],[[2]],['female'],[[0]],[[0.00041937]],ND
455,[[14]],[[456]],[[17]],['low holistic'],['fovea'],['inverted'],['U0346.bmp'],['female'],[[0]],['female'],[[1]],[[1.46030515]],ND
456,[[14]],[[457]],[[1]],['high holistic'],['fovea'],['inverted'],['U0006.bmp'],['female'],[[0]],['female'],[[1]],[[0.00046163]],ND
457,[[14]],[[458]],[[11]],['high holistic'],['left'],['inverted'],['U0164.bmp'],['female'],[[2]],['female'],[[1]],[[0.00050649]],ND
458,[[14]],[[459]],[[1]],['low holistic'],['right'],['upright'],['U0006.bmp'],['female'],[[6]],['female'],[[1]],[[0.00010031]],ND
459,[[14]],[[460]],[[17]],['high holistic'],['left'],['upright'],['U0346.bmp'],['male'],[[8]],['male'],[[1]],[[0.00023451]],ND
460,[[14]],[[461]],[[3]],['low holistic'],['left'],['inverted'],['U0020.bmp'],['female'],[[10]],['female'],[[1]],[[0.02493004]],ND
461,[[14]],[[462]],[[12]],['high holistic'],['right'],['upright'],['U0178.bmp'],['male'],[[2]],['male'],[[1]],[[0.0004514]],ND
462,[[14]],[[463]],[[15]],['high holistic'],['right'],['upright'],['U0312.bmp'],['male'],[[6]],['male'],[[1]],[[0.00818203]],ND
463,[[14]],[[464]],[[11]],['low holistic'],['right'],['inverted'],['U0164.bmp'],['female'],[[6]],['female'],[[1]],[[9.99802724e-05]],ND
464,[[14]],[[465]],[[17]],['high holistic'],['right'],['inverted'],['U0346.bmp'],['male'],[[4]],['female'],[[0]],[[1.64675311]],ND
465,[[14]],[[466]],[[6]],['high holistic'],['right'],['inverted'],['U0106.bmp'],['female'],[[4]],['female'],[[1]],[[0.00012001]],ND
466,[[14]],[[467]],[[13]],['low holistic'],['right'],['inverted'],['U0181.bmp'],['male'],[[4]],['female'],[[0]],[[9.85851511e-05]],ND
467,[[14]],[[468]],[[15]],['low holistic'],['right'],['upright'],['U0312.bmp'],['male'],[[8]],['male'],[[1]],[[0.00039519]],ND
468,[[14]],[[469]],[[18]],['high holistic'],['left'],['inverted'],['U0359.bmp'],['male'],[[6]],['female'],[[0]],[[2.69971628]],ND
469,[[14]],[[470]],[[9]],['low holistic'],['left'],['inverted'],['U0155.bmp'],['male'],[[4]],['female'],[[0]],[[0.00020279]],ND
470,[[14]],[[471]],[[10]],['low holistic'],['right'],['upright'],['U0159.bmp'],['female'],[[10]],['female'],[[1]],[[0.00010089]],ND
471,[[14]],[[472]],[[4]],['high holistic'],['right'],['upright'],['U0061.bmp'],['female'],[[12]],['female'],[[1]],[[0.03825217]],ND
472,[[14]],[[473]],[[12]],['high holistic'],['left'],['inverted'],['U0178.bmp'],['male'],[[4]],['female'],[[0]],[[0.00010692]],ND
473,[[14]],[[474]],[[13]],['high holistic'],['left'],['upright'],['U0181.bmp'],['female'],[[6]],['male'],[[0]],[[1.27476024]],ND
474,[[14]],[[475]],[[16]],['low holistic'],['fovea'],['upright'],['U0335.bmp'],['female'],[[0]],['female'],[[1]],[[0.00856191]],ND
475,[[14]],[[476]],[[19]],['low holistic'],['right'],['upright'],['U0361.bmp'],['female'],[[8]],['female'],[[1]],[[0.05447084]],ND
476,[[14]],[[477]],[[15]],['high holistic'],['left'],['upright'],['U0312.bmp'],['male'],[[10]],['female'],[[0]],[[0.03640061]],ND
477,[[14]],[[478]],[[14]],['low holistic'],['left'],['inverted'],['U0228.bmp'],['male'],[[12]],['female'],[[0]],[[0.00012373]],ND
478,[[14]],[[479]],[[6]],['high holistic'],['left'],['inverted'],['U0106.bmp'],['female'],[[4]],['female'],[[1]],[[0.07530081]],ND
479,[[14]],[[480]],[[11]],['high holistic'],['right'],['inverted'],['U0164.bmp'],['female'],[[10]],['male'],[[0]],[[0.00010059]],ND
480,[[14]],[[481]],[[12]],['low holistic'],['left'],['upright'],['U0178.bmp'],['female'],[[2]],['female'],[[1]],[[0.00010664]],ND
481,[[14]],[[482]],[[7]],['high holistic'],['left'],['upright'],['U0107.bmp'],['female'],[[10]],['female'],[[1]],[[0.0001072]],ND
482,[[14]],[[483]],[[1]],['high holistic'],['right'],['inverted'],['U0006.bmp'],['female'],[[8]],['female'],[[1]],[[0.04595371]],ND
483,[[14]],[[484]],[[19]],['high holistic'],['right'],['upright'],['U0361.bmp'],['female'],[[8]],['female'],[[1]],[[9.97837633e-05]],ND
484,[[14]],[[485]],[[2]],['low holistic'],['left'],['inverted'],['U0014.bmp'],['male'],[[6]],['female'],[[0]],[[0.00043557]],ND
485,[[14]],[[486]],[[11]],['high holistic'],['fovea'],['upright'],['U0164.bmp'],['female'],[[0]],['male'],[[0]],[[0.01311522]],ND
486,[[14]],[[487]],[[1]],['high holistic'],['left'],['upright'],['U0006.bmp'],['female'],[[8]],['female'],[[1]],[[0.00010012]],ND
487,[[14]],[[488]],[[13]],['high holistic'],['right'],['upright'],['U0181.bmp'],['female'],[[4]],['female'],[[1]],[[0.13159239]],ND
488,[[14]],[[489]],[[12]],['low holistic'],['right'],['inverted'],['U0178.bmp'],['female'],[[10]],['female'],[[1]],[[0.11590425]],ND
489,[[14]],[[490]],[[5]],['low holistic'],['left'],['upright'],['U0076.bmp'],['male'],[[10]],['male'],[[1]],[[0.03143701]],ND
490,[[14]],[[491]],[[13]],['low holistic'],['left'],['inverted'],['U0181.bmp'],['male'],[[12]],['male'],[[1]],[[0.1495705]],ND
491,[[14]],[[492]],[[3]],['low holistic'],['left'],['inverted'],['U0020.bmp'],['female'],[[4]],['female'],[[1]],[[0.0002651]],ND
492,[[14]],[[493]],[[9]],['low holistic'],['left'],['inverted'],['U0155.bmp'],['male'],[[2]],['female'],[[0]],[[0.00010668]],ND
493,[[14]],[[494]],[[5]],['low holistic'],['left'],['inverted'],['U0076.bmp'],['male'],[[10]],['female'],[[0]],[[0.31014244]],ND
494,[[14]],[[495]],[[13]],['high holistic'],['left'],['upright'],['U0181.bmp'],['female'],[[4]],['female'],[[1]],[[0.08957187]],ND
495,[[14]],[[496]],[[8]],['low holistic'],['right'],['upright'],['U0137.bmp'],['male'],[[8]],['male'],[[1]],[[1.47857526]],ND
496,[[14]],[[497]],[[3]],['high holistic'],['left'],['inverted'],['U0020.bmp'],['male'],[[6]],['female'],[[0]],[[9.943638e-05]],ND
497,[[14]],[[498]],[[13]],['low holistic'],['left'],['upright'],['U0181.bmp'],['male'],[[12]],['male'],[[1]],[[0.00286259]],ND
498,[[14]],[[499]],[[11]],['low holistic'],['right'],['upright'],['U0164.bmp'],['female'],[[6]],['female'],[[1]],[[0.00010562]],ND
499,[[14]],[[500]],[[20]],['low holistic'],['right'],['upright'],['U0362.bmp'],['male'],[[12]],['male'],[[1]],[[0.00010106]],ND
500,[[14]],[[501]],[[5]],['low holistic'],['right'],['inverted'],['U0076.bmp'],['male'],[[2]],['male'],[[1]],[[9.93078575e-05]],ND
501,[[14]],[[502]],[[20]],['low holistic'],['left'],['inverted'],['U0362.bmp'],['male'],[[12]],['male'],[[1]],[[0.00012388]],ND
502,[[14]],[[503]],[[9]],['high holistic'],['left'],['upright'],['U0155.bmp'],['female'],[[6]],['female'],[[1]],[[0.00032354]],ND
503,[[14]],[[504]],[[14]],['low holistic'],['left'],['upright'],['U0228.bmp'],['male'],[[10]],['male'],[[1]],[[0.00151923]],ND
504,[[14]],[[505]],[[11]],['low holistic'],['left'],['upright'],['U0164.bmp'],['female'],[[10]],['female'],[[1]],[[9.93702561e-05]],ND
505,[[14]],[[506]],[[7]],['low holistic'],['fovea'],['upright'],['U0107.bmp'],['female'],[[0]],['female'],[[1]],[[1.55777976]],ND
506,[[14]],[[507]],[[20]],['low holistic'],['fovea'],['inverted'],['U0362.bmp'],['male'],[[0]],['male'],[[1]],[[0.0009467]],ND
507,[[14]],[[508]],[[3]],['low holistic'],['left'],['upright'],['U0020.bmp'],['female'],[[2]],['female'],[[1]],[[2.41016265]],ND
508,[[14]],[[509]],[[6]],['low holistic'],['left'],['upright'],['U0106.bmp'],['male'],[[6]],['male'],[[1]],[[0.0001004]],ND
509,[[14]],[[510]],[[10]],['low holistic'],['left'],['inverted'],['U0159.bmp'],['female'],[[12]],['female'],[[1]],[[0.00010761]],ND
510,[[14]],[[511]],[[2]],['low holistic'],['right'],['inverted'],['U0014.bmp'],['male'],[[10]],['male'],[[1]],[[0.00719619]],ND
511,[[14]],[[512]],[[2]],['high holistic'],['right'],['upright'],['U0014.bmp'],['male'],[[10]],['female'],[[0]],[[9.88766551e-05]],ND
512,[[14]],[[513]],[[7]],['high holistic'],['right'],['upright'],['U0107.bmp'],['female'],[[10]],['male'],[[0]],[[0.00010611]],ND
513,[[14]],[[514]],[[10]],['low holistic'],['left'],['upright'],['U0159.bmp'],['female'],[[6]],['female'],[[1]],[[0.00034406]],ND
514,[[14]],[[515]],[[1]],['low holistic'],['left'],['upright'],['U0006.bmp'],['female'],[[12]],['female'],[[1]],[[0.00013798]],ND
515,[[14]],[[516]],[[17]],['high holistic'],['fovea'],['upright'],['U0346.bmp'],['male'],[[0]],['male'],[[1]],[[0.00038602]],ND
516,[[14]],[[517]],[[10]],['low holistic'],['right'],['upright'],['U0159.bmp'],['female'],[[6]],['female'],[[1]],[[0.02099481]],ND
517,[[14]],[[518]],[[11]],['low holistic'],['right'],['upright'],['U0164.bmp'],['female'],[[2]],['female'],[[1]],[[9.83485952e-05]],ND
518,[[14]],[[519]],[[15]],['high holistic'],['left'],['upright'],['U0312.bmp'],['male'],[[10]],['female'],[[0]],[[0.00014628]],ND
519,[[14]],[[520]],[[8]],['high holistic'],['right'],['inverted'],['U0137.bmp'],['female'],[[10]],['male'],[[0]],[[0.45997622]],ND
520,[[14]],[[521]],[[1]],['low holistic'],['right'],['inverted'],['U0006.bmp'],['female'],[[10]],['female'],[[1]],[[0.30105399]],ND
521,[[14]],[[522]],[[17]],['low holistic'],['left'],['inverted'],['U0346.bmp'],['female'],[[6]],['female'],[[1]],[[0.12006724]],ND
522,[[14]],[[523]],[[18]],['high holistic'],['right'],['inverted'],['U0359.bmp'],['male'],[[6]],['male'],[[1]],[[0.00034307]],ND
523,[[14]],[[524]],[[5]],['low holistic'],['right'],['inverted'],['U0076.bmp'],['male'],[[2]],['male'],[[1]],[[0.00010128]],ND
524,[[14]],[[525]],[[1]],['high holistic'],['left'],['upright'],['U0006.bmp'],['female'],[[6]],['female'],[[1]],[[0.00010712]],ND
525,[[14]],[[526]],[[6]],['low holistic'],['right'],['inverted'],['U0106.bmp'],['male'],[[10]],['male'],[[1]],[[0.00297934]],ND
526,[[14]],[[527]],[[13]],['high holistic'],['right'],['upright'],['U0181.bmp'],['female'],[[4]],['male'],[[0]],[[0.09698783]],ND
527,[[14]],[[528]],[[6]],['high holistic'],['right'],['inverted'],['U0106.bmp'],['female'],[[4]],['female'],[[1]],[[0.63791644]],ND
528,[[14]],[[529]],[[2]],['high holistic'],['right'],['inverted'],['U0014.bmp'],['male'],[[8]],['female'],[[0]],[[0.00010167]],ND
529,[[14]],[[530]],[[13]],['high holistic'],['right'],['upright'],['U0181.bmp'],['female'],[[4]],['female'],[[1]],[[0.00016692]],ND
530,[[14]],[[531]],[[17]],['low holistic'],['right'],['inverted'],['U0346.bmp'],['female'],[[6]],['female'],[[1]],[[0.22706661]],ND
531,[[14]],[[532]],[[19]],['high holistic'],['left'],['inverted'],['U0361.bmp'],['female'],[[10]],['male'],[[0]],[[0.06616063]],ND
532,[[14]],[[533]],[[17]],['low holistic'],['right'],['inverted'],['U0346.bmp'],['female'],[[8]],['female'],[[1]],[[0.22955634]],ND
533,[[14]],[[534]],[[18]],['high holistic'],['left'],['inverted'],['U0359.bmp'],['male'],[[12]],['female'],[[0]],[[0.10856972]],ND
534,[[14]],[[535]],[[18]],['high holistic'],['right'],['upright'],['U0359.bmp'],['male'],[[12]],['male'],[[1]],[[0.09576926]],ND
535,[[14]],[[536]],[[3]],['high holistic'],['left'],['inverted'],['U0020.bmp'],['male'],[[12]],['female'],[[0]],[[0.00035531]],ND
536,[[14]],[[537]],[[1]],['low holistic'],['fovea'],['upright'],['U0006.bmp'],['female'],[[0]],['female'],[[1]],[[0.00010682]],ND
537,[[14]],[[538]],[[14]],['high holistic'],['left'],['inverted'],['U0228.bmp'],['male'],[[2]],['female'],[[0]],[[0.00010774]],ND
538,[[14]],[[539]],[[18]],['low holistic'],['right'],['inverted'],['U0359.bmp'],['male'],[[12]],['female'],[[0]],[[0.23521877]],ND
539,[[14]],[[540]],[[4]],['high holistic'],['right'],['upright'],['U0061.bmp'],['female'],[[12]],['male'],[[0]],[[0.12912983]],ND
540,[[14]],[[541]],[[19]],['low holistic'],['left'],['upright'],['U0361.bmp'],['female'],[[12]],['female'],[[1]],[[0.00011994]],ND
541,[[14]],[[542]],[[9]],['low holistic'],['left'],['inverted'],['U0155.bmp'],['male'],[[6]],['female'],[[0]],[[0.00022974]],ND
542,[[14]],[[543]],[[8]],['low holistic'],['left'],['upright'],['U0137.bmp'],['male'],[[4]],['male'],[[1]],[[0.02763055]],ND
543,[[14]],[[544]],[[6]],['low holistic'],['left'],['inverted'],['U0106.bmp'],['male'],[[10]],['female'],[[0]],[[0.16883128]],ND
544,[[14]],[[545]],[[11]],['low holistic'],['right'],['upright'],['U0164.bmp'],['female'],[[12]],['female'],[[1]],[[0.07548192]],ND
545,[[14]],[[546]],[[7]],['low holistic'],['left'],['inverted'],['U0107.bmp'],['female'],[[12]],['male'],[[0]],[[0.45507966]],ND
546,[[14]],[[547]],[[14]],['high holistic'],['left'],['upright'],['U0228.bmp'],['male'],[[4]],['male'],[[1]],[[0.18915182]],ND
547,[[14]],[[548]],[[14]],['low holistic'],['left'],['inverted'],['U0228.bmp'],['male'],[[4]],['male'],[[1]],[[0.00010713]],ND
548,[[14]],[[549]],[[11]],['high holistic'],['left'],['inverted'],['U0164.bmp'],['female'],[[8]],['female'],[[1]],[[0.38082982]],ND
549,[[14]],[[550]],[[10]],['high holistic'],['right'],['inverted'],['U0159.bmp'],['male'],[[10]],['female'],[[0]],[[0.28502943]],ND
550,[[14]],[[551]],[[10]],['low holistic'],['left'],['inverted'],['U0159.bmp'],['female'],[[10]],['female'],[[1]],[[0.09632978]],ND
551,[[14]],[[552]],[[17]],['high holistic'],['left'],['upright'],['U0346.bmp'],['male'],[[10]],['male'],[[1]],[[0.19571435]],ND
552,[[14]],[[553]],[[15]],['low holistic'],['fovea'],['upright'],['U0312.bmp'],['male'],[[0]],['male'],[[1]],[[0.01117752]],ND
553,[[14]],[[554]],[[13]],['low holistic'],['left'],['upright'],['U0181.bmp'],['male'],[[4]],['male'],[[1]],[[0.00010083]],ND
554,[[14]],[[555]],[[2]],['low holistic'],['right'],['inverted'],['U0014.bmp'],['male'],[[2]],['male'],[[1]],[[0.01176689]],ND
555,[[14]],[[556]],[[10]],['low holistic'],['right'],['upright'],['U0159.bmp'],['female'],[[2]],['female'],[[1]],[[0.03395959]],ND
556,[[14]],[[557]],[[7]],['high holistic'],['left'],['upright'],['U0107.bmp'],['female'],[[2]],['female'],[[1]],[[0.03344825]],ND
557,[[14]],[[558]],[[20]],['high holistic'],['right'],['inverted'],['U0362.bmp'],['female'],[[8]],['male'],[[0]],[[0.19964633]],ND
558,[[14]],[[559]],[[8]],['low holistic'],['left'],['upright'],['U0137.bmp'],['male'],[[12]],['male'],[[1]],[[0.09620521]],ND
559,[[14]],[[560]],[[15]],['high holistic'],['right'],['inverted'],['U0312.bmp'],['male'],[[10]],['female'],[[0]],[[0.12988745]],ND
560,[[14]],[[561]],[[11]],['high holistic'],['fovea'],['upright'],['U0164.bmp'],['female'],[[0]],['female'],[[1]],[[0.0544413]],ND
561,[[14]],[[562]],[[10]],['low holistic'],['left'],['inverted'],['U0159.bmp'],['female'],[[10]],['female'],[[1]],[[0.00010023]],ND
562,[[14]],[[563]],[[1]],['low holistic'],['left'],['inverted'],['U0006.bmp'],['female'],[[8]],['female'],[[1]],[[9.9433586e-05]],ND
563,[[14]],[[564]],[[5]],['high holistic'],['right'],['inverted'],['U0076.bmp'],['female'],[[6]],['male'],[[0]],[[9.88924876e-05]],ND
564,[[14]],[[565]],[[16]],['low holistic'],['right'],['inverted'],['U0335.bmp'],['female'],[[10]],['female'],[[1]],[[0.09721977]],ND
565,[[14]],[[566]],[[19]],['high holistic'],['left'],['upright'],['U0361.bmp'],['female'],[[6]],['female'],[[1]],[[0.02051951]],ND
566,[[14]],[[567]],[[15]],['low holistic'],['left'],['upright'],['U0312.bmp'],['male'],[[12]],['male'],[[1]],[[0.23728023]],ND
567,[[14]],[[568]],[[14]],['high holistic'],['left'],['upright'],['U0228.bmp'],['male'],[[12]],['male'],[[1]],[[0.11559583]],ND
568,[[14]],[[569]],[[11]],['low holistic'],['left'],['inverted'],['U0164.bmp'],['female'],[[4]],['female'],[[1]],[[0.00016693]],ND
569,[[14]],[[570]],[[18]],['low holistic'],['right'],['inverted'],['U0359.bmp'],['male'],[[4]],['male'],[[1]],[[0.1246131]],ND
570,[[14]],[[571]],[[18]],['high holistic'],['fovea'],['upright'],['U0359.bmp'],['male'],[[0]],['male'],[[1]],[[1.86307803]],ND
571,[[14]],[[572]],[[19]],['high holistic'],['left'],['upright'],['U0361.bmp'],['female'],[[2]],['male'],[[0]],[[0.00010602]],ND
572,[[14]],[[573]],[[19]],['low holistic'],['right'],['inverted'],['U0361.bmp'],['female'],[[8]],['female'],[[1]],[[0.00011012]],ND
573,[[14]],[[574]],[[11]],['high holistic'],['left'],['upright'],['U0164.bmp'],['female'],[[8]],['female'],[[1]],[[0.00010695]],ND
574,[[14]],[[575]],[[13]],['high holistic'],['left'],['inverted'],['U0181.bmp'],['female'],[[4]],['female'],[[1]],[[0.0001004]],ND
575,[[14]],[[576]],[[19]],['high holistic'],['right'],['inverted'],['U0361.bmp'],['female'],[[4]],['male'],[[0]],[[0.00011435]],ND
576,[[14]],[[577]],[[6]],['low holistic'],['left'],['upright'],['U0106.bmp'],['male'],[[4]],['male'],[[1]],[[0.26016105]],ND
577,[[14]],[[578]],[[1]],['low holistic'],['left'],['inverted'],['U0006.bmp'],['female'],[[4]],['female'],[[1]],[[0.00030212]],ND
578,[[14]],[[579]],[[9]],['high holistic'],['right'],['upright'],['U0155.bmp'],['female'],[[6]],['male'],[[0]],[[0.00010121]],ND
579,[[14]],[[580]],[[15]],['high holistic'],['left'],['inverted'],['U0312.bmp'],['male'],[[10]],['female'],[[0]],[[0.00013544]],ND
580,[[14]],[[581]],[[17]],['low holistic'],['fovea'],['upright'],['U0346.bmp'],['female'],[[0]],['male'],[[0]],[[2.04896436]],ND
581,[[14]],[[582]],[[13]],['low holistic'],['right'],['upright'],['U0181.bmp'],['male'],[[2]],['male'],[[1]],[[0.07830776]],ND
582,[[14]],[[583]],[[11]],['low holistic'],['fovea'],['upright'],['U0164.bmp'],['female'],[[0]],['female'],[[1]],[[0.0003122]],ND
583,[[14]],[[584]],[[13]],['low holistic'],['fovea'],['inverted'],['U0181.bmp'],['male'],[[0]],['male'],[[1]],[[0.05826858]],ND
584,[[14]],[[585]],[[1]],['high holistic'],['right'],['inverted'],['U0006.bmp'],['female'],[[12]],['male'],[[0]],[[0.03943316]],ND
585,[[14]],[[586]],[[3]],['low holistic'],['right'],['upright'],['U0020.bmp'],['female'],[[10]],['female'],[[1]],[[0.00015881]],ND
586,[[14]],[[587]],[[7]],['low holistic'],['right'],['inverted'],['U0107.bmp'],['female'],[[12]],['female'],[[1]],[[0.17298906]],ND
587,[[14]],[[588]],[[17]],['low holistic'],['right'],['upright'],['U0346.bmp'],['female'],[[12]],['male'],[[0]],[[0.00014108]],ND
588,[[14]],[[589]],[[20]],['low holistic'],['right'],['inverted'],['U0362.bmp'],['male'],[[8]],['male'],[[1]],[[0.12373439]],ND
589,[[14]],[[590]],[[15]],['high holistic'],['right'],['inverted'],['U0312.bmp'],['male'],[[8]],['female'],[[0]],[[0.00010008]],ND
590,[[14]],[[591]],[[16]],['low holistic'],['left'],['upright'],['U0335.bmp'],['female'],[[10]],['female'],[[1]],[[0.00010062]],ND
591,[[14]],[[592]],[[8]],['high holistic'],['left'],['inverted'],['U0137.bmp'],['female'],[[8]],['female'],[[1]],[[0.19000158]],ND
592,[[14]],[[593]],[[5]],['low holistic'],['right'],['upright'],['U0076.bmp'],['male'],[[12]],['male'],[[1]],[[0.03262248]],ND
593,[[14]],[[594]],[[6]],['low holistic'],['left'],['inverted'],['U0106.bmp'],['male'],[[2]],['female'],[[0]],[[0.20457508]],ND
594,[[14]],[[595]],[[19]],['high holistic'],['right'],['inverted'],['U0361.bmp'],['female'],[[4]],['female'],[[1]],[[0.02197809]],ND
595,[[14]],[[596]],[[7]],['high holistic'],['left'],['upright'],['U0107.bmp'],['female'],[[2]],['female'],[[1]],[[9.97083262e-05]],ND
596,[[14]],[[597]],[[20]],['high holistic'],['left'],['inverted'],['U0362.bmp'],['female'],[[6]],['female'],[[1]],[[0.0001003]],ND
597,[[14]],[[598]],[[15]],['high holistic'],['left'],['inverted'],['U0312.bmp'],['male'],[[10]],['female'],[[0]],[[1.70789566]],ND
598,[[14]],[[599]],[[5]],['low holistic'],['left'],['upright'],['U0076.bmp'],['male'],[[8]],['male'],[[1]],[[0.00018319]],ND
599,[[14]],[[600]],[[17]],['low holistic'],['left'],['upright'],['U0346.bmp'],['female'],[[2]],['female'],[[1]],[[0.00010725]],ND
600,[[14]],[[601]],[[20]],['high holistic'],['right'],['upright'],['U0362.bmp'],['female'],[[4]],['female'],[[1]],[[9.87639651e-05]],ND
601,[[14]],[[602]],[[4]],['low holistic'],['right'],['upright'],['U0061.bmp'],['female'],[[8]],['female'],[[1]],[[0.00016811]],ND
602,[[14]],[[603]],[[11]],['high holistic'],['left'],['inverted'],['U0164.bmp'],['female'],[[10]],['female'],[[1]],[[9.98992473e-05]],ND
603,[[14]],[[604]],[[15]],['low holistic'],['right'],['upright'],['U0312.bmp'],['male'],[[10]],['male'],[[1]],[[0.00038341]],ND
604,[[14]],[[605]],[[16]],['high holistic'],['right'],['inverted'],['U0335.bmp'],['female'],[[4]],['male'],[[0]],[[0.0055453]],ND
605,[[14]],[[606]],[[2]],['low holistic'],['right'],['upright'],['U0014.bmp'],['male'],[[2]],['female'],[[0]],[[9.81548801e-05]],ND
606,[[14]],[[607]],[[16]],['high holistic'],['right'],['upright'],['U0335.bmp'],['female'],[[4]],['female'],[[1]],[[0.00010041]],ND
607,[[14]],[[608]],[[18]],['high holistic'],['right'],['upright'],['U0359.bmp'],['male'],[[8]],['male'],[[1]],[[2.5301898]],ND
608,[[14]],[[609]],[[10]],['high holistic'],['left'],['upright'],['U0159.bmp'],['male'],[[4]],['male'],[[1]],[[0.10092561]],ND
609,[[14]],[[610]],[[15]],['low holistic'],['right'],['inverted'],['U0312.bmp'],['male'],[[4]],['male'],[[1]],[[0.00010686]],ND
610,[[14]],[[611]],[[20]],['low holistic'],['left'],['inverted'],['U0362.bmp'],['male'],[[10]],['male'],[[1]],[[0.00833338]],ND
611,[[14]],[[612]],[[20]],['high holistic'],['left'],['inverted'],['U0362.bmp'],['female'],[[6]],['male'],[[0]],[[9.81250778e-05]],ND
612,[[14]],[[613]],[[14]],['high holistic'],['left'],['inverted'],['U0228.bmp'],['male'],[[8]],['female'],[[0]],[[0.32774405]],ND
613,[[14]],[[614]],[[8]],['high holistic'],['left'],['upright'],['U0137.bmp'],['female'],[[8]],['male'],[[0]],[[0.22438661]],ND
614,[[14]],[[615]],[[7]],['low holistic'],['left'],['upright'],['U0107.bmp'],['female'],[[8]],['female'],[[1]],[[0.00015336]],ND
615,[[14]],[[616]],[[4]],['high holistic'],['right'],['upright'],['U0061.bmp'],['female'],[[10]],['male'],[[0]],[[0.00038771]],ND
616,[[14]],[[617]],[[14]],['high holistic'],['right'],['upright'],['U0228.bmp'],['male'],[[10]],['male'],[[1]],[[0.26282905]],ND
617,[[14]],[[618]],[[9]],['low holistic'],['right'],['inverted'],['U0155.bmp'],['male'],[[12]],['male'],[[1]],[[0.14791008]],ND
618,[[14]],[[619]],[[6]],['high holistic'],['right'],['upright'],['U0106.bmp'],['female'],[[8]],['male'],[[0]],[[0.23774691]],ND
619,[[14]],[[620]],[[19]],['low holistic'],['right'],['inverted'],['U0361.bmp'],['female'],[[10]],['female'],[[1]],[[0.10874118]],ND
620,[[14]],[[621]],[[10]],['high holistic'],['left'],['upright'],['U0159.bmp'],['male'],[[8]],['male'],[[1]],[[0.10503616]],ND
621,[[14]],[[622]],[[15]],['high holistic'],['left'],['upright'],['U0312.bmp'],['male'],[[4]],['male'],[[1]],[[0.33063577]],ND
622,[[14]],[[623]],[[2]],['high holistic'],['left'],['inverted'],['U0014.bmp'],['male'],[[4]],['male'],[[1]],[[0.15730736]],ND
623,[[14]],[[624]],[[1]],['low holistic'],['right'],['upright'],['U0006.bmp'],['female'],[[8]],['female'],[[1]],[[0.00010789]],ND
624,[[14]],[[625]],[[1]],['high holistic'],['left'],['upright'],['U0006.bmp'],['female'],[[8]],['female'],[[1]],[[0.0004075]],ND
625,[[14]],[[626]],[[19]],['low holistic'],['left'],['upright'],['U0361.bmp'],['female'],[[10]],['female'],[[1]],[[1.3732936]],ND
626,[[14]],[[627]],[[10]],['high holistic'],['right'],['upright'],['U0159.bmp'],['male'],[[4]],['male'],[[1]],[[0.0847021]],ND
627,[[14]],[[628]],[[20]],['low holistic'],['right'],['inverted'],['U0362.bmp'],['male'],[[12]],['male'],[[1]],[[0.00013151]],ND
628,[[14]],[[629]],[[13]],['high holistic'],['right'],['upright'],['U0181.bmp'],['female'],[[2]],['female'],[[1]],[[0.08952084]],ND
629,[[14]],[[630]],[[9]],['low holistic'],['left'],['upright'],['U0155.bmp'],['male'],[[10]],['male'],[[1]],[[0.13263976]],ND
630,[[14]],[[631]],[[9]],['high holistic'],['right'],['inverted'],['U0155.bmp'],['female'],[[4]],['female'],[[1]],[[0.23044777]],ND
631,[[14]],[[632]],[[5]],['low holistic'],['left'],['upright'],['U0076.bmp'],['male'],[[4]],['male'],[[1]],[[0.00020087]],ND
632,[[14]],[[633]],[[19]],['high holistic'],['left'],['inverted'],['U0361.bmp'],['female'],[[6]],['male'],[[0]],[[0.0770729]],ND
633,[[14]],[[634]],[[20]],['low holistic'],['left'],['upright'],['U0362.bmp'],['male'],[[10]],['male'],[[1]],[[0.00032971]],ND
634,[[14]],[[635]],[[8]],['low holistic'],['right'],['upright'],['U0137.bmp'],['male'],[[10]],['male'],[[1]],[[0.00993128]],ND
635,[[14]],[[636]],[[4]],['high holistic'],['right'],['upright'],['U0061.bmp'],['female'],[[6]],['female'],[[1]],[[0.00011873]],ND
636,[[14]],[[637]],[[13]],['low holistic'],['right'],['upright'],['U0181.bmp'],['male'],[[8]],['male'],[[1]],[[0.00011598]],ND
637,[[14]],[[638]],[[2]],['low holistic'],['fovea'],['inverted'],['U0014.bmp'],['male'],[[0]],['male'],[[1]],[[0.20083405]],ND
638,[[14]],[[639]],[[1]],['low holistic'],['left'],['upright'],['U0006.bmp'],['female'],[[2]],['female'],[[1]],[[1.56744778]],ND
639,[[14]],[[640]],[[8]],['high holistic'],['left'],['upright'],['U0137.bmp'],['female'],[[10]],['male'],[[0]],[[0.04021367]],ND
640,[[14]],[[641]],[[11]],['low holistic'],['right'],['upright'],['U0164.bmp'],['female'],[[2]],['female'],[[1]],[[0.0001007]],ND
641,[[14]],[[642]],[[3]],['low holistic'],['left'],['upright'],['U0020.bmp'],['female'],[[10]],['female'],[[1]],[[9.98480245e-05]],ND
642,[[14]],[[643]],[[5]],['low holistic'],['left'],['inverted'],['U0076.bmp'],['male'],[[10]],['female'],[[0]],[[1.42331619]],ND
643,[[14]],[[644]],[[1]],['high holistic'],['left'],['upright'],['U0006.bmp'],['female'],[[10]],['female'],[[1]],[[0.00010029]],ND
644,[[14]],[[645]],[[16]],['high holistic'],['left'],['upright'],['U0335.bmp'],['female'],[[2]],['male'],[[0]],[[0.16389554]],ND
645,[[14]],[[646]],[[12]],['high holistic'],['right'],['inverted'],['U0178.bmp'],['male'],[[12]],['female'],[[0]],[[0.25335687]],ND
646,[[14]],[[647]],[[14]],['low holistic'],['left'],['upright'],['U0228.bmp'],['male'],[[6]],['male'],[[1]],[[0.03666004]],ND
647,[[14]],[[648]],[[7]],['high holistic'],['left'],['inverted'],['U0107.bmp'],['female'],[[6]],['female'],[[1]],[[0.00042131]],ND
648,[[14]],[[649]],[[12]],['low holistic'],['left'],['inverted'],['U0178.bmp'],['female'],[[8]],['female'],[[1]],[[0.17741603]],ND
649,[[14]],[[650]],[[10]],['high holistic'],['right'],['upright'],['U0159.bmp'],['male'],[[10]],['male'],[[1]],[[0.11288765]],ND
650,[[14]],[[651]],[[3]],['low holistic'],['left'],['upright'],['U0020.bmp'],['female'],[[12]],['female'],[[1]],[[0.00012437]],ND
651,[[14]],[[652]],[[7]],['high holistic'],['left'],['inverted'],['U0107.bmp'],['female'],[[2]],['male'],[[0]],[[0.11348495]],ND
652,[[14]],[[653]],[[5]],['high holistic'],['left'],['inverted'],['U0076.bmp'],['female'],[[6]],['male'],[[0]],[[0.27443568]],ND
653,[[14]],[[654]],[[7]],['high holistic'],['left'],['upright'],['U0107.bmp'],['female'],[[6]],['female'],[[1]],[[0.00010963]],ND
654,[[14]],[[655]],[[4]],['low holistic'],['right'],['inverted'],['U0061.bmp'],['female'],[[4]],['female'],[[1]],[[0.0004214]],ND
655,[[14]],[[656]],[[6]],['low holistic'],['right'],['upright'],['U0106.bmp'],['male'],[[8]],['male'],[[1]],[[0.00032407]],ND
656,[[14]],[[657]],[[7]],['low holistic'],['left'],['inverted'],['U0107.bmp'],['female'],[[10]],['female'],[[1]],[[0.14369896]],ND
657,[[14]],[[658]],[[6]],['high holistic'],['right'],['upright'],['U0106.bmp'],['female'],[[2]],['female'],[[1]],[[0.03311242]],ND
658,[[14]],[[659]],[[5]],['high holistic'],['left'],['upright'],['U0076.bmp'],['female'],[[4]],['female'],[[1]],[[9.89884138e-05]],ND
659,[[14]],[[660]],[[18]],['high holistic'],['left'],['inverted'],['U0359.bmp'],['male'],[[4]],['female'],[[0]],[[1.60574333]],ND
660,[[14]],[[661]],[[8]],['low holistic'],['fovea'],['upright'],['U0137.bmp'],['male'],[[0]],['male'],[[1]],[[0.02137536]],ND
661,[[14]],[[662]],[[16]],['high holistic'],['left'],['inverted'],['U0335.bmp'],['female'],[[8]],['female'],[[1]],[[0.00010611]],ND
662,[[14]],[[663]],[[17]],['low holistic'],['right'],['upright'],['U0346.bmp'],['female'],[[12]],['female'],[[1]],[[0.00010654]],ND
663,[[14]],[[664]],[[14]],['high holistic'],['left'],['inverted'],['U0228.bmp'],['male'],[[8]],['female'],[[0]],[[0.00010819]],ND
664,[[14]],[[665]],[[10]],['low holistic'],['right'],['upright'],['U0159.bmp'],['female'],[[2]],['female'],[[1]],[[1.33175542]],ND
665,[[14]],[[666]],[[9]],['high holistic'],['right'],['inverted'],['U0155.bmp'],['female'],[[10]],['female'],[[1]],[[0.0875943]],ND
666,[[14]],[[667]],[[19]],['high holistic'],['left'],['upright'],['U0361.bmp'],['female'],[[12]],['female'],[[1]],[[0.14616901]],ND
667,[[14]],[[668]],[[13]],['low holistic'],['right'],['upright'],['U0181.bmp'],['male'],[[10]],['male'],[[1]],[[0.00043011]],ND
668,[[14]],[[669]],[[6]],['high holistic'],['left'],['upright'],['U0106.bmp'],['female'],[[6]],['female'],[[1]],[[0.05959329]],ND
669,[[14]],[[670]],[[20]],['low holistic'],['right'],['upright'],['U0362.bmp'],['male'],[[4]],['male'],[[1]],[[9.7785145e-05]],ND
670,[[14]],[[671]],[[14]],['low holistic'],['left'],['upright'],['U0228.bmp'],['male'],[[4]],['male'],[[1]],[[1.3368559]],ND
671,[[14]],[[672]],[[6]],['low holistic'],['left'],['inverted'],['U0106.bmp'],['male'],[[8]],['female'],[[0]],[[0.20157127]],ND
672,[[14]],[[673]],[[20]],['high holistic'],['right'],['inverted'],['U0362.bmp'],['female'],[[4]],['female'],[[1]],[[0.00010585]],ND
673,[[14]],[[674]],[[13]],['high holistic'],['right'],['upright'],['U0181.bmp'],['female'],[[12]],['female'],[[1]],[[0.14530529]],ND
674,[[14]],[[675]],[[18]],['low holistic'],['left'],['inverted'],['U0359.bmp'],['male'],[[12]],['female'],[[0]],[[0.40448342]],ND
675,[[14]],[[676]],[[20]],['low holistic'],['right'],['upright'],['U0362.bmp'],['male'],[[12]],['male'],[[1]],[[0.00022333]],ND
676,[[14]],[[677]],[[8]],['low holistic'],['left'],['upright'],['U0137.bmp'],['male'],[[2]],['male'],[[1]],[[0.00010612]],ND
677,[[14]],[[678]],[[13]],['high holistic'],['right'],['upright'],['U0181.bmp'],['female'],[[2]],['female'],[[1]],[[1.81919868]],ND
678,[[14]],[[679]],[[16]],['high holistic'],['right'],['upright'],['U0335.bmp'],['female'],[[10]],['female'],[[1]],[[0.15405725]],ND
679,[[14]],[[680]],[[20]],['high holistic'],['right'],['upright'],['U0362.bmp'],['female'],[[12]],['female'],[[1]],[[0.10014811]],ND
680,[[14]],[[681]],[[3]],['high holistic'],['right'],['inverted'],['U0020.bmp'],['male'],[[10]],['female'],[[0]],[[0.00604363]],ND
681,[[14]],[[682]],[[9]],['high holistic'],['left'],['inverted'],['U0155.bmp'],['female'],[[8]],['female'],[[1]],[[0.00010614]],ND
682,[[14]],[[683]],[[20]],['high holistic'],['right'],['inverted'],['U0362.bmp'],['female'],[[8]],['male'],[[0]],[[0.25322136]],ND
683,[[14]],[[684]],[[2]],['low holistic'],['left'],['inverted'],['U0014.bmp'],['male'],[[8]],['female'],[[0]],[[9.9632889e-05]],ND
684,[[14]],[[685]],[[13]],['high holistic'],['right'],['inverted'],['U0181.bmp'],['female'],[[10]],['female'],[[1]],[[0.00012134]],ND
685,[[14]],[[686]],[[14]],['low holistic'],['right'],['upright'],['U0228.bmp'],['male'],[[8]],['male'],[[1]],[[0.00010784]],ND
686,[[14]],[[687]],[[11]],['high holistic'],['right'],['upright'],['U0164.bmp'],['female'],[[4]],['male'],[[0]],[[0.02686794]],ND
687,[[14]],[[688]],[[11]],['low holistic'],['right'],['upright'],['U0164.bmp'],['female'],[[12]],['female'],[[1]],[[0.0257036]],ND
688,[[14]],[[689]],[[10]],['low holistic'],['left'],['upright'],['U0159.bmp'],['female'],[[4]],['female'],[[1]],[[0.00011147]],ND
689,[[14]],[[690]],[[16]],['high holistic'],['fovea'],['inverted'],['U0335.bmp'],['female'],[[0]],['female'],[[1]],[[0.34356889]],ND
690,[[14]],[[691]],[[17]],['low holistic'],['right'],['inverted'],['U0346.bmp'],['female'],[[12]],['female'],[[1]],[[0.00027231]],ND
691,[[14]],[[692]],[[5]],['low holistic'],['fovea'],['upright'],['U0076.bmp'],['male'],[[0]],['male'],[[1]],[[9.97008756e-05]],ND
692,[[14]],[[693]],[[10]],['high holistic'],['left'],['upright'],['U0159.bmp'],['male'],[[4]],['male'],[[1]],[[0.04928809]],ND
693,[[14]],[[694]],[[2]],['low holistic'],['left'],['inverted'],['U0014.bmp'],['male'],[[12]],['male'],[[1]],[[0.87770732]],ND
694,[[14]],[[695]],[[10]],['high holistic'],['fovea'],['upright'],['U0159.bmp'],['male'],[[0]],['male'],[[1]],[[0.01075433]],ND
695,[[14]],[[696]],[[11]],['low holistic'],['left'],['upright'],['U0164.bmp'],['female'],[[4]],['female'],[[1]],[[0.00015647]],ND
696,[[14]],[[697]],[[8]],['low holistic'],['right'],['inverted'],['U0137.bmp'],['male'],[[6]],['female'],[[0]],[[0.00010699]],ND
697,[[14]],[[698]],[[7]],['high holistic'],['left'],['inverted'],['U0107.bmp'],['female'],[[10]],['female'],[[1]],[[0.0001202]],ND
698,[[14]],[[699]],[[20]],['high holistic'],['left'],['upright'],['U0362.bmp'],['female'],[[10]],['male'],[[0]],[[0.13661053]],ND
699,[[14]],[[700]],[[10]],['high holistic'],['right'],['upright'],['U0159.bmp'],['male'],[[2]],['male'],[[1]],[[0.00046949]],ND
700,[[14]],[[701]],[[6]],['high holistic'],['left'],['inverted'],['U0106.bmp'],['female'],[[8]],['female'],[[1]],[[9.92529094e-05]],ND
701,[[14]],[[702]],[[12]],['high holistic'],['left'],['upright'],['U0178.bmp'],['male'],[[2]],['female'],[[0]],[[0.00033078]],ND
702,[[14]],[[703]],[[15]],['low holistic'],['right'],['inverted'],['U0312.bmp'],['male'],[[12]],['male'],[[1]],[[9.97167081e-05]],ND
703,[[14]],[[704]],[[13]],['high holistic'],['right'],['inverted'],['U0181.bmp'],['female'],[[8]],['female'],[[1]],[[0.05704083]],ND
704,[[14]],[[705]],[[10]],['high holistic'],['left'],['upright'],['U0159.bmp'],['male'],[[4]],['male'],[[1]],[[0.03197071]],ND
705,[[14]],[[706]],[[4]],['low holistic'],['right'],['upright'],['U0061.bmp'],['female'],[[4]],['female'],[[1]],[[0.00046033]],ND
706,[[14]],[[707]],[[8]],['high holistic'],['right'],['upright'],['U0137.bmp'],['female'],[[2]],['female'],[[1]],[[0.00032275]],ND
707,[[14]],[[708]],[[3]],['high holistic'],['left'],['upright'],['U0020.bmp'],['male'],[[4]],['female'],[[0]],[[0.17183299]],ND
708,[[14]],[[709]],[[7]],['low holistic'],['right'],['inverted'],['U0107.bmp'],['female'],[[8]],['female'],[[1]],[[0.00046936]],ND
709,[[14]],[[710]],[[15]],['low holistic'],['left'],['upright'],['U0312.bmp'],['male'],[[12]],['male'],[[1]],[[0.02824544]],ND
710,[[14]],[[711]],[[3]],['high holistic'],['right'],['inverted'],['U0020.bmp'],['male'],[[12]],['female'],[[0]],[[9.73585993e-05]],ND
711,[[14]],[[712]],[[9]],['high holistic'],['left'],['inverted'],['U0155.bmp'],['female'],[[12]],['female'],[[1]],[[0.00010018]],ND
712,[[14]],[[713]],[[1]],['low holistic'],['right'],['inverted'],['U0006.bmp'],['female'],[[12]],['female'],[[1]],[[0.02649963]],ND
713,[[14]],[[714]],[[18]],['low holistic'],['left'],['upright'],['U0359.bmp'],['male'],[[10]],['female'],[[0]],[[1.98590351]],ND
714,[[14]],[[715]],[[5]],['low holistic'],['left'],['upright'],['U0076.bmp'],['male'],[[12]],['male'],[[1]],[[9.7614713e-05]],ND
715,[[14]],[[716]],[[14]],['high holistic'],['fovea'],['inverted'],['U0228.bmp'],['male'],[[0]],['female'],[[0]],[[0.03281556]],ND
716,[[14]],[[717]],[[14]],['low holistic'],['left'],['inverted'],['U0228.bmp'],['male'],[[10]],['female'],[[0]],[[0.00695864]],ND
717,[[14]],[[718]],[[19]],['low holistic'],['left'],['upright'],['U0361.bmp'],['female'],[[10]],['female'],[[1]],[[0.00035455]],ND
718,[[14]],[[719]],[[9]],['high holistic'],['right'],['inverted'],['U0155.bmp'],['female'],[[2]],['female'],[[1]],[[9.86261293e-05]],ND
719,[[14]],[[720]],[[15]],['low holistic'],['fovea'],['upright'],['U0312.bmp'],['male'],[[0]],['male'],[[1]],[[9.9722296e-05]],ND
720,[[14]],[[721]],[[10]],['low holistic'],['right'],['inverted'],['U0159.bmp'],['female'],[[12]],['female'],[[1]],[[0.00043634]],ND
721,[[14]],[[722]],[[13]],['high holistic'],['right'],['upright'],['U0181.bmp'],['female'],[[12]],['female'],[[1]],[[1.30975789]],ND
722,[[14]],[[723]],[[2]],['low holistic'],['right'],['upright'],['U0014.bmp'],['male'],[[8]],['male'],[[1]],[[0.24761798]],ND
723,[[14]],[[724]],[[4]],['high holistic'],['right'],['upright'],['U0061.bmp'],['female'],[[8]],['female'],[[1]],[[0.0001274]],ND
724,[[14]],[[725]],[[2]],['high holistic'],['left'],['inverted'],['U0014.bmp'],['male'],[[2]],['female'],[[0]],[[0.00010031]],ND
725,[[14]],[[726]],[[8]],['low holistic'],['left'],['upright'],['U0137.bmp'],['male'],[[6]],['male'],[[1]],[[0.01251776]],ND
726,[[14]],[[727]],[[2]],['low holistic'],['fovea'],['upright'],['U0014.bmp'],['male'],[[0]],['male'],[[1]],[[0.02805131]],ND
727,[[14]],[[728]],[[19]],['high holistic'],['right'],['inverted'],['U0361.bmp'],['female'],[[8]],['female'],[[1]],[[0.00010029]],ND
728,[[14]],[[729]],[[2]],['low holistic'],['fovea'],['upright'],['U0014.bmp'],['male'],[[0]],['male'],[[1]],[[0.02758776]],ND
729,[[14]],[[730]],[[11]],['high holistic'],['left'],['upright'],['U0164.bmp'],['female'],[[10]],['male'],[[0]],[[0.0256625]],ND
730,[[14]],[[731]],[[3]],['high holistic'],['right'],['upright'],['U0020.bmp'],['male'],[[6]],['female'],[[0]],[[0.00010554]],ND
731,[[14]],[[732]],[[13]],['low holistic'],['fovea'],['upright'],['U0181.bmp'],['male'],[[0]],['male'],[[1]],[[0.00017373]],ND
732,[[14]],[[733]],[[4]],['low holistic'],['left'],['upright'],['U0061.bmp'],['female'],[[6]],['female'],[[1]],[[0.000364]],ND
733,[[14]],[[734]],[[18]],['high holistic'],['right'],['inverted'],['U0359.bmp'],['male'],[[2]],['male'],[[1]],[[0.06148977]],ND
734,[[14]],[[735]],[[14]],['high holistic'],['left'],['upright'],['U0228.bmp'],['male'],[[2]],['male'],[[1]],[[0.00010002]],ND
735,[[14]],[[736]],[[5]],['low holistic'],['right'],['inverted'],['U0076.bmp'],['male'],[[2]],['male'],[[1]],[[0.0001002]],ND
736,[[14]],[[737]],[[17]],['high holistic'],['left'],['inverted'],['U0346.bmp'],['male'],[[8]],['male'],[[1]],[[0.00010121]],ND
737,[[14]],[[738]],[[14]],['high holistic'],['right'],['inverted'],['U0228.bmp'],['male'],[[10]],['female'],[[0]],[[0.13844362]],ND
738,[[14]],[[739]],[[7]],['low holistic'],['left'],['upright'],['U0107.bmp'],['female'],[[6]],['female'],[[1]],[[9.94745642e-05]],ND
739,[[14]],[[740]],[[12]],['high holistic'],['left'],['inverted'],['U0178.bmp'],['male'],[[12]],['female'],[[0]],[[0.00010056]],ND
740,[[14]],[[741]],[[12]],['low holistic'],['left'],['inverted'],['U0178.bmp'],['female'],[[12]],['female'],[[1]],[[1.58576357]],ND
741,[[14]],[[742]],[[3]],['low holistic'],['right'],['upright'],['U0020.bmp'],['female'],[[10]],['female'],[[1]],[[0.00010084]],ND
742,[[14]],[[743]],[[4]],['high holistic'],['left'],['upright'],['U0061.bmp'],['female'],[[12]],['female'],[[1]],[[1.23443936]],ND
743,[[14]],[[744]],[[16]],['high holistic'],['fovea'],['upright'],['U0335.bmp'],['female'],[[0]],['male'],[[0]],[[2.17509041]],ND
744,[[14]],[[745]],[[19]],['low holistic'],['left'],['inverted'],['U0361.bmp'],['female'],[[4]],['female'],[[1]],[[9.8336488e-05]],ND
745,[[14]],[[746]],[[5]],['low holistic'],['right'],['inverted'],['U0076.bmp'],['male'],[[6]],['female'],[[0]],[[9.89288092e-05]],ND
746,[[14]],[[747]],[[4]],['high holistic'],['left'],['upright'],['U0061.bmp'],['female'],[[8]],['male'],[[0]],[[0.08818929]],ND
747,[[14]],[[748]],[[8]],['low holistic'],['left'],['upright'],['U0137.bmp'],['male'],[[8]],['female'],[[0]],[[0.00010014]],ND
748,[[14]],[[749]],[[1]],['high holistic'],['right'],['inverted'],['U0006.bmp'],['female'],[[4]],['female'],[[1]],[[0.0995931]],ND
749,[[14]],[[750]],[[10]],['low holistic'],['right'],['upright'],['U0159.bmp'],['female'],[[10]],['female'],[[1]],[[0.02386909]],ND
750,[[14]],[[751]],[[17]],['high holistic'],['left'],['upright'],['U0346.bmp'],['male'],[[4]],['male'],[[1]],[[0.00415161]],ND
751,[[14]],[[752]],[[13]],['low holistic'],['left'],['inverted'],['U0181.bmp'],['male'],[[6]],['male'],[[1]],[[0.00010759]],ND
752,[[14]],[[753]],[[9]],['low holistic'],['left'],['inverted'],['U0155.bmp'],['male'],[[4]],['male'],[[1]],[[9.98964533e-05]],ND
753,[[14]],[[754]],[[16]],['high holistic'],['fovea'],['inverted'],['U0335.bmp'],['female'],[[0]],['male'],[[0]],[[0.00045223]],ND
754,[[14]],[[755]],[[17]],['low holistic'],['left'],['upright'],['U0346.bmp'],['female'],[[8]],['female'],[[1]],[[0.00033506]],ND
755,[[14]],[[756]],[[15]],['low holistic'],['right'],['upright'],['U0312.bmp'],['male'],[[10]],['male'],[[1]],[[0.00045333]],ND
756,[[14]],[[757]],[[6]],['low holistic'],['right'],['upright'],['U0106.bmp'],['male'],[[10]],['male'],[[1]],[[0.00229267]],ND
757,[[14]],[[758]],[[8]],['low holistic'],['left'],['inverted'],['U0137.bmp'],['male'],[[8]],['female'],[[0]],[[1.26583484]],ND
758,[[14]],[[759]],[[1]],['high holistic'],['left'],['inverted'],['U0006.bmp'],['female'],[[10]],['male'],[[0]],[[0.00023941]],ND
759,[[14]],[[760]],[[1]],['low holistic'],['fovea'],['inverted'],['U0006.bmp'],['female'],[[0]],['female'],[[1]],[[9.8656863e-05]],ND
760,[[14]],[[761]],[[20]],['low holistic'],['left'],['inverted'],['U0362.bmp'],['male'],[[4]],['male'],[[1]],[[0.00055658]],ND
761,[[14]],[[762]],[[18]],['low holistic'],['left'],['inverted'],['U0359.bmp'],['male'],[[2]],['male'],[[1]],[[0.00010033]],ND
762,[[14]],[[763]],[[10]],['high holistic'],['left'],['inverted'],['U0159.bmp'],['male'],[[10]],['male'],[[1]],[[0.01999721]],ND
763,[[14]],[[764]],[[3]],['low holistic'],['right'],['inverted'],['U0020.bmp'],['female'],[[4]],['female'],[[1]],[[0.04279205]],ND
764,[[14]],[[765]],[[18]],['low holistic'],['right'],['upright'],['U0359.bmp'],['male'],[[12]],['female'],[[0]],[[0.064933]],ND
765,[[14]],[[766]],[[7]],['high holistic'],['left'],['inverted'],['U0107.bmp'],['female'],[[4]],['female'],[[1]],[[0.00015907]],ND
766,[[14]],[[767]],[[20]],['low holistic'],['right'],['upright'],['U0362.bmp'],['male'],[[12]],['male'],[[1]],[[0.0002754]],ND
767,[[14]],[[768]],[[3]],['high holistic'],['right'],['upright'],['U0020.bmp'],['male'],[[4]],['male'],[[1]],[[0.00019955]],ND
768,[[14]],[[769]],[[20]],['high holistic'],['left'],['inverted'],['U0362.bmp'],['female'],[[10]],['male'],[[0]],[[9.96300951e-05]],ND
769,[[14]],[[770]],[[20]],['low holistic'],['left'],['upright'],['U0362.bmp'],['male'],[[6]],['male'],[[1]],[[0.0001376]],ND
770,[[14]],[[771]],[[11]],['low holistic'],['right'],['inverted'],['U0164.bmp'],['female'],[[8]],['female'],[[1]],[[0.00017087]],ND
