,SUBID,TRIAL,MOONEYID,MOONEYCATEGORY,LOC,COND,MOONEY_NAME,MOONEY_GENDER,ECCENTRICITY,RESPONSE,ACCURACY,RT,SUBINIT
0,[[10]],[[1]],[[6]],['low holistic'],['right'],['upright'],['U0106.bmp'],['male'],[[2]],['male'],[[1]],[[2.56403523]],NJ
1,[[10]],[[2]],[[2]],['high holistic'],['right'],['upright'],['U0014.bmp'],['male'],[[10]],['male'],[[1]],[[0.47511742]],NJ
2,[[10]],[[3]],[[9]],['high holistic'],['left'],['inverted'],['U0155.bmp'],['female'],[[10]],['male'],[[0]],[[1.67391189]],NJ
3,[[10]],[[4]],[[8]],['high holistic'],['right'],['upright'],['U0137.bmp'],['female'],[[8]],['male'],[[0]],[[1.20732586]],NJ
4,[[10]],[[5]],[[18]],['low holistic'],['right'],['inverted'],['U0359.bmp'],['male'],[[12]],['male'],[[1]],[[0.76831166]],NJ
5,[[10]],[[6]],[[13]],['low holistic'],['right'],['inverted'],['U0181.bmp'],['male'],[[12]],['male'],[[1]],[[1.32963685]],NJ
6,[[10]],[[7]],[[5]],['high holistic'],['right'],['upright'],['U0076.bmp'],['female'],[[6]],['male'],[[0]],[[0.35450654]],NJ
7,[[10]],[[8]],[[4]],['high holistic'],['left'],['upright'],['U0061.bmp'],['female'],[[2]],['female'],[[1]],[[0.60620501]],NJ
8,[[10]],[[9]],[[12]],['high holistic'],['left'],['inverted'],['U0178.bmp'],['male'],[[8]],['male'],[[1]],[[1.45244225]],NJ
9,[[10]],[[10]],[[13]],['low holistic'],['left'],['upright'],['U0181.bmp'],['male'],[[12]],['male'],[[1]],[[0.81833025]],NJ
10,[[10]],[[11]],[[14]],['low holistic'],['left'],['inverted'],['U0228.bmp'],['male'],[[6]],['male'],[[1]],[[0.44214426]],NJ
11,[[10]],[[12]],[[16]],['high holistic'],['right'],['upright'],['U0335.bmp'],['female'],[[4]],['female'],[[1]],[[0.49362439]],NJ
12,[[10]],[[13]],[[9]],['high holistic'],['left'],['upright'],['U0155.bmp'],['female'],[[4]],['male'],[[0]],[[0.48855699]],NJ
13,[[10]],[[14]],[[16]],['high holistic'],['left'],['upright'],['U0335.bmp'],['female'],[[6]],['female'],[[1]],[[4.1034418]],NJ
14,[[10]],[[15]],[[3]],['low holistic'],['left'],['inverted'],['U0020.bmp'],['female'],[[10]],['male'],[[0]],[[1.8829243]],NJ
15,[[10]],[[16]],[[17]],['low holistic'],['left'],['upright'],['U0346.bmp'],['female'],[[8]],['female'],[[1]],[[0.47866769]],NJ
16,[[10]],[[17]],[[7]],['low holistic'],['left'],['upright'],['U0107.bmp'],['female'],[[4]],['female'],[[1]],[[0.20495597]],NJ
17,[[10]],[[18]],[[9]],['high holistic'],['right'],['inverted'],['U0155.bmp'],['female'],[[4]],['male'],[[0]],[[1.61943665]],NJ
18,[[10]],[[19]],[[19]],['high holistic'],['right'],['inverted'],['U0361.bmp'],['female'],[[10]],['male'],[[0]],[[0.17916637]],NJ
19,[[10]],[[20]],[[16]],['high holistic'],['left'],['inverted'],['U0335.bmp'],['female'],[[10]],['male'],[[0]],[[0.36471948]],NJ
20,[[10]],[[21]],[[12]],['low holistic'],['fovea'],['upright'],['U0178.bmp'],['female'],[[0]],['female'],[[1]],[[0.43754068]],NJ
21,[[10]],[[22]],[[1]],['high holistic'],['fovea'],['inverted'],['U0006.bmp'],['female'],[[0]],['female'],[[1]],[[0.31741839]],NJ
22,[[10]],[[23]],[[18]],['high holistic'],['right'],['upright'],['U0359.bmp'],['male'],[[8]],['male'],[[1]],[[0.5364928]],NJ
23,[[10]],[[24]],[[17]],['low holistic'],['right'],['upright'],['U0346.bmp'],['female'],[[6]],['male'],[[0]],[[0.91558333]],NJ
24,[[10]],[[25]],[[11]],['low holistic'],['right'],['inverted'],['U0164.bmp'],['female'],[[12]],['male'],[[0]],[[0.61495788]],NJ
25,[[10]],[[26]],[[14]],['low holistic'],['fovea'],['inverted'],['U0228.bmp'],['male'],[[0]],['male'],[[1]],[[0.40518444]],NJ
26,[[10]],[[27]],[[15]],['low holistic'],['fovea'],['upright'],['U0312.bmp'],['male'],[[0]],['male'],[[1]],[[0.11754956]],NJ
27,[[10]],[[28]],[[16]],['high holistic'],['left'],['upright'],['U0335.bmp'],['female'],[[12]],['male'],[[0]],[[0.32912129]],NJ
28,[[10]],[[29]],[[12]],['high holistic'],['left'],['inverted'],['U0178.bmp'],['male'],[[6]],['male'],[[1]],[[0.74910494]],NJ
29,[[10]],[[30]],[[1]],['high holistic'],['fovea'],['upright'],['U0006.bmp'],['female'],[[0]],['female'],[[1]],[[0.38269912]],NJ
30,[[10]],[[31]],[[15]],['low holistic'],['left'],['inverted'],['U0312.bmp'],['male'],[[2]],['male'],[[1]],[[0.28672612]],NJ
31,[[10]],[[32]],[[20]],['high holistic'],['right'],['inverted'],['U0362.bmp'],['female'],[[6]],['male'],[[0]],[[0.85921022]],NJ
32,[[10]],[[33]],[[2]],['high holistic'],['left'],['upright'],['U0014.bmp'],['male'],[[10]],['male'],[[1]],[[0.40082313]],NJ
33,[[10]],[[34]],[[11]],['high holistic'],['right'],['inverted'],['U0164.bmp'],['female'],[[2]],['male'],[[0]],[[0.13862583]],NJ
34,[[10]],[[35]],[[16]],['high holistic'],['fovea'],['upright'],['U0335.bmp'],['female'],[[0]],['female'],[[1]],[[0.21983846]],NJ
35,[[10]],[[36]],[[8]],['low holistic'],['left'],['upright'],['U0137.bmp'],['male'],[[10]],['male'],[[1]],[[0.20378702]],NJ
36,[[10]],[[37]],[[14]],['low holistic'],['left'],['upright'],['U0228.bmp'],['male'],[[10]],['male'],[[1]],[[0.09131604]],NJ
37,[[10]],[[38]],[[18]],['high holistic'],['left'],['inverted'],['U0359.bmp'],['male'],[[6]],['male'],[[1]],[[0.08780024]],NJ
38,[[10]],[[39]],[[3]],['high holistic'],['right'],['inverted'],['U0020.bmp'],['male'],[[6]],['male'],[[1]],[[0.23669417]],NJ
39,[[10]],[[40]],[[4]],['high holistic'],['left'],['upright'],['U0061.bmp'],['female'],[[10]],['male'],[[0]],[[0.90855925]],NJ
40,[[10]],[[41]],[[11]],['high holistic'],['right'],['upright'],['U0164.bmp'],['female'],[[10]],['male'],[[0]],[[0.27106605]],NJ
41,[[10]],[[42]],[[10]],['low holistic'],['left'],['upright'],['U0159.bmp'],['female'],[[2]],['female'],[[1]],[[0.30802988]],NJ
42,[[10]],[[43]],[[6]],['high holistic'],['fovea'],['upright'],['U0106.bmp'],['female'],[[0]],['female'],[[1]],[[0.13546945]],NJ
43,[[10]],[[44]],[[8]],['high holistic'],['left'],['upright'],['U0137.bmp'],['female'],[[4]],['male'],[[0]],[[0.19399858]],NJ
44,[[10]],[[45]],[[4]],['low holistic'],['right'],['inverted'],['U0061.bmp'],['female'],[[12]],['male'],[[0]],[[0.28300777]],NJ
45,[[10]],[[46]],[[8]],['high holistic'],['left'],['upright'],['U0137.bmp'],['female'],[[6]],['male'],[[0]],[[0.92098013]],NJ
46,[[10]],[[47]],[[3]],['low holistic'],['right'],['inverted'],['U0020.bmp'],['female'],[[10]],['male'],[[0]],[[2.03529283]],NJ
47,[[10]],[[48]],[[15]],['low holistic'],['right'],['upright'],['U0312.bmp'],['male'],[[6]],['male'],[[1]],[[0.13629441]],NJ
48,[[10]],[[49]],[[14]],['low holistic'],['right'],['upright'],['U0228.bmp'],['male'],[[12]],['male'],[[1]],[[0.07549989]],NJ
49,[[10]],[[50]],[[5]],['low holistic'],['left'],['inverted'],['U0076.bmp'],['male'],[[12]],['male'],[[1]],[[0.98375017]],NJ
50,[[10]],[[51]],[[20]],['high holistic'],['left'],['inverted'],['U0362.bmp'],['female'],[[8]],['male'],[[0]],[[0.73036354]],NJ
51,[[10]],[[52]],[[20]],['low holistic'],['right'],['upright'],['U0362.bmp'],['male'],[[8]],['male'],[[1]],[[1.08410244]],NJ
52,[[10]],[[53]],[[13]],['high holistic'],['left'],['inverted'],['U0181.bmp'],['female'],[[10]],['female'],[[1]],[[0.88010681]],NJ
53,[[10]],[[54]],[[19]],['high holistic'],['right'],['inverted'],['U0361.bmp'],['female'],[[6]],['male'],[[0]],[[0.51052465]],NJ
54,[[10]],[[55]],[[20]],['high holistic'],['right'],['inverted'],['U0362.bmp'],['female'],[[6]],['female'],[[1]],[[1.05595017]],NJ
55,[[10]],[[56]],[[6]],['low holistic'],['left'],['inverted'],['U0106.bmp'],['male'],[[6]],['male'],[[1]],[[0.20638839]],NJ
56,[[10]],[[57]],[[14]],['high holistic'],['right'],['inverted'],['U0228.bmp'],['male'],[[8]],['male'],[[1]],[[1.00076706]],NJ
57,[[10]],[[58]],[[17]],['high holistic'],['left'],['upright'],['U0346.bmp'],['male'],[[8]],['male'],[[1]],[[0.21557354]],NJ
58,[[10]],[[59]],[[18]],['low holistic'],['right'],['upright'],['U0359.bmp'],['male'],[[12]],['male'],[[1]],[[0.17350511]],NJ
59,[[10]],[[60]],[[14]],['low holistic'],['left'],['upright'],['U0228.bmp'],['male'],[[2]],['male'],[[1]],[[0.06435182]],NJ
60,[[10]],[[61]],[[12]],['low holistic'],['right'],['upright'],['U0178.bmp'],['female'],[[10]],['female'],[[1]],[[0.26762034]],NJ
61,[[10]],[[62]],[[9]],['low holistic'],['right'],['inverted'],['U0155.bmp'],['male'],[[12]],['male'],[[1]],[[0.11401738]],NJ
62,[[10]],[[63]],[[20]],['low holistic'],['left'],['upright'],['U0362.bmp'],['male'],[[2]],['male'],[[1]],[[2.30939791]],NJ
63,[[10]],[[64]],[[14]],['low holistic'],['right'],['upright'],['U0228.bmp'],['male'],[[12]],['male'],[[1]],[[0.32866165]],NJ
64,[[10]],[[65]],[[12]],['high holistic'],['left'],['inverted'],['U0178.bmp'],['male'],[[8]],['male'],[[1]],[[1.7970399]],NJ
65,[[10]],[[66]],[[9]],['high holistic'],['right'],['upright'],['U0155.bmp'],['female'],[[2]],['female'],[[1]],[[1.64320553]],NJ
66,[[10]],[[67]],[[14]],['low holistic'],['left'],['inverted'],['U0228.bmp'],['male'],[[2]],['male'],[[1]],[[0.15258129]],NJ
67,[[10]],[[68]],[[11]],['high holistic'],['left'],['upright'],['U0164.bmp'],['female'],[[4]],['male'],[[0]],[[0.91689643]],NJ
68,[[10]],[[69]],[[7]],['low holistic'],['right'],['upright'],['U0107.bmp'],['female'],[[4]],['male'],[[0]],[[0.42438649]],NJ
69,[[10]],[[70]],[[10]],['high holistic'],['right'],['upright'],['U0159.bmp'],['male'],[[6]],['male'],[[1]],[[2.17592963]],NJ
70,[[10]],[[71]],[[2]],['low holistic'],['left'],['upright'],['U0014.bmp'],['male'],[[6]],['male'],[[1]],[[0.2798509]],NJ
71,[[10]],[[72]],[[12]],['high holistic'],['left'],['upright'],['U0178.bmp'],['male'],[[2]],['male'],[[1]],[[0.33984339]],NJ
72,[[10]],[[73]],[[18]],['low holistic'],['right'],['upright'],['U0359.bmp'],['male'],[[12]],['male'],[[1]],[[0.31879324]],NJ
73,[[10]],[[74]],[[5]],['high holistic'],['right'],['upright'],['U0076.bmp'],['female'],[[2]],['female'],[[1]],[[0.34590789]],NJ
74,[[10]],[[75]],[[9]],['high holistic'],['left'],['upright'],['U0155.bmp'],['female'],[[8]],['male'],[[0]],[[0.5808674]],NJ
75,[[10]],[[76]],[[10]],['low holistic'],['left'],['upright'],['U0159.bmp'],['female'],[[6]],['female'],[[1]],[[0.62947599]],NJ
76,[[10]],[[77]],[[7]],['high holistic'],['left'],['upright'],['U0107.bmp'],['female'],[[12]],['male'],[[0]],[[0.23606207]],NJ
77,[[10]],[[78]],[[14]],['low holistic'],['right'],['upright'],['U0228.bmp'],['male'],[[10]],['male'],[[1]],[[0.0506566]],NJ
78,[[10]],[[79]],[[2]],['high holistic'],['left'],['upright'],['U0014.bmp'],['male'],[[12]],['male'],[[1]],[[0.64073732]],NJ
79,[[10]],[[80]],[[17]],['high holistic'],['right'],['upright'],['U0346.bmp'],['male'],[[4]],['male'],[[1]],[[0.22362813]],NJ
80,[[10]],[[81]],[[12]],['low holistic'],['right'],['upright'],['U0178.bmp'],['female'],[[12]],['female'],[[1]],[[0.06228033]],NJ
81,[[10]],[[82]],[[8]],['high holistic'],['right'],['inverted'],['U0137.bmp'],['female'],[[10]],['male'],[[0]],[[0.10873141]],NJ
82,[[10]],[[83]],[[12]],['low holistic'],['left'],['upright'],['U0178.bmp'],['female'],[[10]],['female'],[[1]],[[0.08739071]],NJ
83,[[10]],[[84]],[[17]],['low holistic'],['right'],['inverted'],['U0346.bmp'],['female'],[[12]],['male'],[[0]],[[0.07559498]],NJ
84,[[10]],[[85]],[[8]],['high holistic'],['left'],['upright'],['U0137.bmp'],['female'],[[4]],['female'],[[1]],[[1.33032985]],NJ
85,[[10]],[[86]],[[1]],['low holistic'],['left'],['inverted'],['U0006.bmp'],['female'],[[4]],['female'],[[1]],[[0.42692642]],NJ
86,[[10]],[[87]],[[2]],['low holistic'],['right'],['inverted'],['U0014.bmp'],['male'],[[8]],['female'],[[0]],[[0.48405561]],NJ
87,[[10]],[[88]],[[6]],['high holistic'],['left'],['upright'],['U0106.bmp'],['female'],[[2]],['female'],[[1]],[[0.14438302]],NJ
88,[[10]],[[89]],[[20]],['low holistic'],['left'],['inverted'],['U0362.bmp'],['male'],[[4]],['male'],[[1]],[[0.00016863]],NJ
89,[[10]],[[90]],[[8]],['high holistic'],['right'],['inverted'],['U0137.bmp'],['female'],[[12]],['male'],[[0]],[[0.27475251]],NJ
90,[[10]],[[91]],[[8]],['high holistic'],['right'],['upright'],['U0137.bmp'],['female'],[[8]],['male'],[[0]],[[0.03907803]],NJ
91,[[10]],[[92]],[[9]],['low holistic'],['right'],['inverted'],['U0155.bmp'],['male'],[[8]],['male'],[[1]],[[0.00010977]],NJ
92,[[10]],[[93]],[[16]],['low holistic'],['left'],['upright'],['U0335.bmp'],['female'],[[4]],['female'],[[1]],[[0.00010014]],NJ
93,[[10]],[[94]],[[17]],['high holistic'],['left'],['upright'],['U0346.bmp'],['male'],[[6]],['male'],[[1]],[[0.00038094]],NJ
94,[[10]],[[95]],[[3]],['low holistic'],['fovea'],['inverted'],['U0020.bmp'],['female'],[[0]],['female'],[[1]],[[35.07760328]],NJ
95,[[10]],[[96]],[[10]],['high holistic'],['left'],['upright'],['U0159.bmp'],['male'],[[8]],['male'],[[1]],[[0.69838501]],NJ
96,[[10]],[[97]],[[3]],['low holistic'],['left'],['upright'],['U0020.bmp'],['female'],[[6]],['female'],[[1]],[[0.639751]],NJ
97,[[10]],[[98]],[[9]],['low holistic'],['right'],['inverted'],['U0155.bmp'],['male'],[[10]],['male'],[[1]],[[0.02195233]],NJ
98,[[10]],[[99]],[[7]],['low holistic'],['right'],['inverted'],['U0107.bmp'],['female'],[[4]],['female'],[[1]],[[0.795676]],NJ
99,[[10]],[[100]],[[20]],['low holistic'],['right'],['inverted'],['U0362.bmp'],['male'],[[10]],['male'],[[1]],[[0.16444549]],NJ
100,[[10]],[[101]],[[12]],['high holistic'],['right'],['inverted'],['U0178.bmp'],['male'],[[4]],['male'],[[1]],[[0.18180293]],NJ
101,[[10]],[[102]],[[3]],['low holistic'],['left'],['upright'],['U0020.bmp'],['female'],[[2]],['female'],[[1]],[[0.04622613]],NJ
102,[[10]],[[103]],[[1]],['low holistic'],['right'],['inverted'],['U0006.bmp'],['female'],[[6]],['female'],[[1]],[[0.87743931]],NJ
103,[[10]],[[104]],[[3]],['low holistic'],['left'],['inverted'],['U0020.bmp'],['female'],[[4]],['female'],[[1]],[[0.11332797]],NJ
104,[[10]],[[105]],[[16]],['high holistic'],['right'],['inverted'],['U0335.bmp'],['female'],[[8]],['male'],[[0]],[[0.15657555]],NJ
105,[[10]],[[106]],[[4]],['high holistic'],['right'],['upright'],['U0061.bmp'],['female'],[[6]],['male'],[[0]],[[0.00543576]],NJ
106,[[10]],[[107]],[[18]],['low holistic'],['right'],['upright'],['U0359.bmp'],['male'],[[10]],['male'],[[1]],[[4.9176051]],NJ
107,[[10]],[[108]],[[16]],['low holistic'],['right'],['inverted'],['U0335.bmp'],['female'],[[6]],['female'],[[1]],[[0.61819476]],NJ
108,[[10]],[[109]],[[8]],['high holistic'],['left'],['inverted'],['U0137.bmp'],['female'],[[8]],['male'],[[0]],[[0.16786139]],NJ
109,[[10]],[[110]],[[11]],['high holistic'],['right'],['upright'],['U0164.bmp'],['female'],[[8]],['male'],[[0]],[[9.92324203e-05]],NJ
110,[[10]],[[111]],[[10]],['low holistic'],['left'],['upright'],['U0159.bmp'],['female'],[[8]],['male'],[[0]],[[1.1155247]],NJ
111,[[10]],[[112]],[[17]],['low holistic'],['left'],['inverted'],['U0346.bmp'],['female'],[[6]],['male'],[[0]],[[0.30113264]],NJ
112,[[10]],[[113]],[[4]],['high holistic'],['right'],['inverted'],['U0061.bmp'],['female'],[[2]],['male'],[[0]],[[0.32931735]],NJ
113,[[10]],[[114]],[[4]],['low holistic'],['left'],['upright'],['U0061.bmp'],['female'],[[12]],['male'],[[0]],[[0.73925783]],NJ
114,[[10]],[[115]],[[11]],['low holistic'],['left'],['upright'],['U0164.bmp'],['female'],[[4]],['female'],[[1]],[[0.16665456]],NJ
115,[[10]],[[116]],[[15]],['high holistic'],['right'],['inverted'],['U0312.bmp'],['male'],[[8]],['male'],[[1]],[[0.33552528]],NJ
116,[[10]],[[117]],[[5]],['low holistic'],['left'],['inverted'],['U0076.bmp'],['male'],[[2]],['male'],[[1]],[[0.08133776]],NJ
117,[[10]],[[118]],[[19]],['high holistic'],['right'],['inverted'],['U0361.bmp'],['female'],[[6]],['male'],[[0]],[[0.37625331]],NJ
118,[[10]],[[119]],[[19]],['high holistic'],['right'],['upright'],['U0361.bmp'],['female'],[[12]],['male'],[[0]],[[1.88061848]],NJ
119,[[10]],[[120]],[[1]],['high holistic'],['left'],['upright'],['U0006.bmp'],['female'],[[8]],['female'],[[1]],[[0.28422501]],NJ
120,[[10]],[[121]],[[16]],['low holistic'],['right'],['upright'],['U0335.bmp'],['female'],[[4]],['female'],[[1]],[[0.72904849]],NJ
121,[[10]],[[122]],[[16]],['high holistic'],['right'],['upright'],['U0335.bmp'],['female'],[[2]],['female'],[[1]],[[0.03488532]],NJ
122,[[10]],[[123]],[[20]],['low holistic'],['right'],['upright'],['U0362.bmp'],['male'],[[8]],['male'],[[1]],[[0.00156142]],NJ
123,[[10]],[[124]],[[8]],['high holistic'],['left'],['inverted'],['U0137.bmp'],['female'],[[2]],['male'],[[0]],[[0.25816844]],NJ
124,[[10]],[[125]],[[15]],['low holistic'],['right'],['inverted'],['U0312.bmp'],['male'],[[4]],['male'],[[1]],[[0.0390692]],NJ
125,[[10]],[[126]],[[8]],['high holistic'],['left'],['inverted'],['U0137.bmp'],['female'],[[6]],['male'],[[0]],[[0.03745808]],NJ
126,[[10]],[[127]],[[10]],['high holistic'],['left'],['upright'],['U0159.bmp'],['male'],[[2]],['male'],[[1]],[[0.00035855]],NJ
127,[[10]],[[128]],[[14]],['low holistic'],['left'],['upright'],['U0228.bmp'],['male'],[[12]],['male'],[[1]],[[2.86980139]],NJ
128,[[10]],[[129]],[[9]],['low holistic'],['left'],['upright'],['U0155.bmp'],['male'],[[12]],['male'],[[1]],[[0.17764556]],NJ
129,[[10]],[[130]],[[9]],['high holistic'],['left'],['inverted'],['U0155.bmp'],['female'],[[6]],['male'],[[0]],[[0.00294182]],NJ
130,[[10]],[[131]],[[11]],['low holistic'],['right'],['upright'],['U0164.bmp'],['female'],[[4]],['female'],[[1]],[[0.36236298]],NJ
131,[[10]],[[132]],[[13]],['low holistic'],['left'],['upright'],['U0181.bmp'],['male'],[[6]],['male'],[[1]],[[0.00010719]],NJ
132,[[10]],[[133]],[[18]],['high holistic'],['right'],['inverted'],['U0359.bmp'],['male'],[[12]],['male'],[[1]],[[0.00014423]],NJ
133,[[10]],[[134]],[[20]],['low holistic'],['left'],['upright'],['U0362.bmp'],['male'],[[8]],['male'],[[1]],[[2.89390914]],NJ
134,[[10]],[[135]],[[6]],['high holistic'],['left'],['upright'],['U0106.bmp'],['female'],[[6]],['male'],[[0]],[[0.0004102]],NJ
135,[[10]],[[136]],[[17]],['high holistic'],['fovea'],['inverted'],['U0346.bmp'],['male'],[[0]],['male'],[[1]],[[0.00036774]],NJ
136,[[10]],[[137]],[[8]],['low holistic'],['left'],['upright'],['U0137.bmp'],['male'],[[6]],['male'],[[1]],[[0.00044141]],NJ
137,[[10]],[[138]],[[2]],['high holistic'],['left'],['inverted'],['U0014.bmp'],['male'],[[4]],['male'],[[1]],[[2.26415387]],NJ
138,[[10]],[[139]],[[16]],['high holistic'],['fovea'],['upright'],['U0335.bmp'],['female'],[[0]],['male'],[[0]],[[2.23970769]],NJ
139,[[10]],[[140]],[[12]],['high holistic'],['right'],['upright'],['U0178.bmp'],['male'],[[10]],['male'],[[1]],[[0.11688822]],NJ
140,[[10]],[[141]],[[20]],['low holistic'],['right'],['upright'],['U0362.bmp'],['male'],[[2]],['male'],[[1]],[[0.02175288]],NJ
141,[[10]],[[142]],[[2]],['low holistic'],['fovea'],['upright'],['U0014.bmp'],['male'],[[0]],['male'],[[1]],[[0.0794149]],NJ
142,[[10]],[[143]],[[16]],['low holistic'],['fovea'],['inverted'],['U0335.bmp'],['female'],[[0]],['female'],[[1]],[[0.18013888]],NJ
143,[[10]],[[144]],[[17]],['low holistic'],['left'],['upright'],['U0346.bmp'],['female'],[[2]],['female'],[[1]],[[0.00010656]],NJ
144,[[10]],[[145]],[[14]],['high holistic'],['right'],['inverted'],['U0228.bmp'],['male'],[[8]],['male'],[[1]],[[0.0839332]],NJ
145,[[10]],[[146]],[[18]],['high holistic'],['left'],['inverted'],['U0359.bmp'],['male'],[[6]],['female'],[[0]],[[0.208858]],NJ
146,[[10]],[[147]],[[5]],['low holistic'],['left'],['upright'],['U0076.bmp'],['male'],[[12]],['female'],[[0]],[[0.00043546]],NJ
147,[[10]],[[148]],[[4]],['high holistic'],['right'],['inverted'],['U0061.bmp'],['female'],[[4]],['male'],[[0]],[[3.59281982]],NJ
148,[[10]],[[149]],[[18]],['low holistic'],['right'],['upright'],['U0359.bmp'],['male'],[[2]],['male'],[[1]],[[0.04854262]],NJ
149,[[10]],[[150]],[[4]],['low holistic'],['right'],['inverted'],['U0061.bmp'],['female'],[[8]],['male'],[[0]],[[0.00010087]],NJ
150,[[10]],[[151]],[[7]],['low holistic'],['right'],['upright'],['U0107.bmp'],['female'],[[12]],['male'],[[0]],[[9.96151939e-05]],NJ
151,[[10]],[[152]],[[5]],['low holistic'],['right'],['inverted'],['U0076.bmp'],['male'],[[12]],['male'],[[1]],[[9.9087134e-05]],NJ
152,[[10]],[[153]],[[5]],['high holistic'],['right'],['upright'],['U0076.bmp'],['female'],[[6]],['male'],[[0]],[[1.90970956]],NJ
153,[[10]],[[154]],[[8]],['low holistic'],['left'],['inverted'],['U0137.bmp'],['male'],[[6]],['male'],[[1]],[[0.25826589]],NJ
154,[[10]],[[155]],[[14]],['low holistic'],['left'],['inverted'],['U0228.bmp'],['male'],[[6]],['male'],[[1]],[[0.12706723]],NJ
155,[[10]],[[156]],[[6]],['high holistic'],['left'],['upright'],['U0106.bmp'],['female'],[[4]],['male'],[[0]],[[2.57095276]],NJ
156,[[10]],[[157]],[[13]],['low holistic'],['left'],['upright'],['U0181.bmp'],['male'],[[4]],['male'],[[1]],[[0.01179793]],NJ
157,[[10]],[[158]],[[19]],['low holistic'],['left'],['upright'],['U0361.bmp'],['female'],[[12]],['female'],[[1]],[[0.00017236]],NJ
158,[[10]],[[159]],[[20]],['high holistic'],['right'],['inverted'],['U0362.bmp'],['female'],[[10]],['male'],[[0]],[[0.00031267]],NJ
159,[[10]],[[160]],[[9]],['high holistic'],['left'],['upright'],['U0155.bmp'],['female'],[[2]],['female'],[[1]],[[0.00011102]],NJ
160,[[10]],[[161]],[[16]],['high holistic'],['left'],['upright'],['U0335.bmp'],['female'],[[6]],['female'],[[1]],[[0.1071687]],NJ
161,[[10]],[[162]],[[7]],['high holistic'],['right'],['inverted'],['U0107.bmp'],['female'],[[6]],['male'],[[0]],[[0.21574656]],NJ
162,[[10]],[[163]],[[3]],['high holistic'],['left'],['inverted'],['U0020.bmp'],['male'],[[8]],['female'],[[0]],[[0.00011086]],NJ
163,[[10]],[[164]],[[3]],['low holistic'],['left'],['inverted'],['U0020.bmp'],['female'],[[12]],['female'],[[1]],[[0.00010139]],NJ
164,[[10]],[[165]],[[11]],['low holistic'],['left'],['upright'],['U0164.bmp'],['female'],[[2]],['male'],[[0]],[[3.61594029]],NJ
165,[[10]],[[166]],[[10]],['high holistic'],['left'],['inverted'],['U0159.bmp'],['male'],[[6]],['male'],[[1]],[[0.28708882]],NJ
166,[[10]],[[167]],[[10]],['high holistic'],['left'],['inverted'],['U0159.bmp'],['male'],[[12]],['male'],[[1]],[[0.15393108]],NJ
167,[[10]],[[168]],[[9]],['low holistic'],['left'],['upright'],['U0155.bmp'],['male'],[[10]],['male'],[[1]],[[0.06776911]],NJ
168,[[10]],[[169]],[[13]],['high holistic'],['right'],['inverted'],['U0181.bmp'],['female'],[[8]],['male'],[[0]],[[0.56931006]],NJ
169,[[10]],[[170]],[[7]],['low holistic'],['left'],['upright'],['U0107.bmp'],['female'],[[6]],['female'],[[1]],[[0.00022784]],NJ
170,[[10]],[[171]],[[17]],['high holistic'],['fovea'],['inverted'],['U0346.bmp'],['male'],[[0]],['female'],[[0]],[[0.31599799]],NJ
171,[[10]],[[172]],[[13]],['low holistic'],['right'],['upright'],['U0181.bmp'],['male'],[[10]],['male'],[[1]],[[0.12605941]],NJ
172,[[10]],[[173]],[[12]],['low holistic'],['left'],['inverted'],['U0178.bmp'],['female'],[[2]],['female'],[[1]],[[0.16194711]],NJ
173,[[10]],[[174]],[[19]],['low holistic'],['left'],['inverted'],['U0361.bmp'],['female'],[[6]],['female'],[[1]],[[0.49926951]],NJ
174,[[10]],[[175]],[[19]],['low holistic'],['left'],['upright'],['U0361.bmp'],['female'],[[4]],['female'],[[1]],[[0.00047248]],NJ
175,[[10]],[[176]],[[9]],['low holistic'],['right'],['inverted'],['U0155.bmp'],['male'],[[2]],['male'],[[1]],[[0.25438389]],NJ
176,[[10]],[[177]],[[15]],['low holistic'],['right'],['upright'],['U0312.bmp'],['male'],[[6]],['male'],[[1]],[[0.16538362]],NJ
177,[[10]],[[178]],[[3]],['low holistic'],['left'],['inverted'],['U0020.bmp'],['female'],[[10]],['female'],[[1]],[[0.05288703]],NJ
178,[[10]],[[179]],[[13]],['low holistic'],['right'],['inverted'],['U0181.bmp'],['male'],[[8]],['male'],[[1]],[[0.3091818]],NJ
179,[[10]],[[180]],[[19]],['high holistic'],['left'],['upright'],['U0361.bmp'],['female'],[[10]],['female'],[[1]],[[1.7530949]],NJ
180,[[10]],[[181]],[[9]],['high holistic'],['left'],['inverted'],['U0155.bmp'],['female'],[[10]],['female'],[[1]],[[0.2987114]],NJ
181,[[10]],[[182]],[[7]],['high holistic'],['left'],['inverted'],['U0107.bmp'],['female'],[[2]],['female'],[[1]],[[0.46099097]],NJ
182,[[10]],[[183]],[[20]],['low holistic'],['right'],['upright'],['U0362.bmp'],['male'],[[10]],['male'],[[1]],[[0.00011047]],NJ
183,[[10]],[[184]],[[4]],['high holistic'],['left'],['inverted'],['U0061.bmp'],['female'],[[2]],['female'],[[1]],[[0.12287957]],NJ
184,[[10]],[[185]],[[4]],['high holistic'],['right'],['inverted'],['U0061.bmp'],['female'],[[2]],['female'],[[1]],[[0.17362358]],NJ
185,[[10]],[[186]],[[7]],['low holistic'],['left'],['inverted'],['U0107.bmp'],['female'],[[2]],['female'],[[1]],[[1.9909105]],NJ
186,[[10]],[[187]],[[16]],['high holistic'],['right'],['upright'],['U0335.bmp'],['female'],[[12]],['male'],[[0]],[[0.22377801]],NJ
187,[[10]],[[188]],[[3]],['high holistic'],['right'],['inverted'],['U0020.bmp'],['male'],[[12]],['male'],[[1]],[[0.00011593]],NJ
188,[[10]],[[189]],[[5]],['high holistic'],['left'],['upright'],['U0076.bmp'],['female'],[[10]],['female'],[[1]],[[0.78991719]],NJ
189,[[10]],[[190]],[[15]],['low holistic'],['right'],['upright'],['U0312.bmp'],['male'],[[8]],['male'],[[1]],[[0.00013513]],NJ
190,[[10]],[[191]],[[11]],['low holistic'],['fovea'],['upright'],['U0164.bmp'],['female'],[[0]],['female'],[[1]],[[0.00018949]],NJ
191,[[10]],[[192]],[[5]],['low holistic'],['left'],['upright'],['U0076.bmp'],['male'],[[8]],['male'],[[1]],[[0.05534183]],NJ
192,[[10]],[[193]],[[3]],['high holistic'],['left'],['inverted'],['U0020.bmp'],['male'],[[6]],['male'],[[1]],[[1.5489522]],NJ
193,[[10]],[[194]],[[19]],['high holistic'],['right'],['upright'],['U0361.bmp'],['female'],[[12]],['male'],[[0]],[[0.05523635]],NJ
194,[[10]],[[195]],[[3]],['low holistic'],['right'],['upright'],['U0020.bmp'],['female'],[[6]],['female'],[[1]],[[0.07638436]],NJ
195,[[10]],[[196]],[[1]],['low holistic'],['left'],['inverted'],['U0006.bmp'],['female'],[[8]],['male'],[[0]],[[0.00032771]],NJ
196,[[10]],[[197]],[[20]],['high holistic'],['left'],['upright'],['U0362.bmp'],['female'],[[10]],['male'],[[0]],[[0.05816721]],NJ
197,[[10]],[[198]],[[1]],['high holistic'],['left'],['upright'],['U0006.bmp'],['female'],[[8]],['male'],[[0]],[[1.47816215]],NJ
198,[[10]],[[199]],[[11]],['high holistic'],['fovea'],['inverted'],['U0164.bmp'],['female'],[[0]],['female'],[[1]],[[0.54064956]],NJ
199,[[10]],[[200]],[[16]],['low holistic'],['right'],['inverted'],['U0335.bmp'],['female'],[[10]],['male'],[[0]],[[0.30271941]],NJ
200,[[10]],[[201]],[[18]],['high holistic'],['left'],['upright'],['U0359.bmp'],['male'],[[6]],['male'],[[1]],[[0.18760265]],NJ
201,[[10]],[[202]],[[4]],['low holistic'],['left'],['inverted'],['U0061.bmp'],['female'],[[6]],['male'],[[0]],[[1.42584656]],NJ
202,[[10]],[[203]],[[12]],['low holistic'],['left'],['upright'],['U0178.bmp'],['female'],[[6]],['female'],[[1]],[[0.00010725]],NJ
203,[[10]],[[204]],[[13]],['high holistic'],['right'],['inverted'],['U0181.bmp'],['female'],[[2]],['female'],[[1]],[[0.07279688]],NJ
204,[[10]],[[205]],[[20]],['high holistic'],['left'],['inverted'],['U0362.bmp'],['female'],[[12]],['female'],[[1]],[[0.30227415]],NJ
205,[[10]],[[206]],[[10]],['low holistic'],['right'],['inverted'],['U0159.bmp'],['female'],[[6]],['female'],[[1]],[[0.00023144]],NJ
206,[[10]],[[207]],[[3]],['low holistic'],['right'],['upright'],['U0020.bmp'],['female'],[[4]],['female'],[[1]],[[0.00010091]],NJ
207,[[10]],[[208]],[[10]],['low holistic'],['right'],['inverted'],['U0159.bmp'],['female'],[[4]],['male'],[[0]],[[1.5692717]],NJ
208,[[10]],[[209]],[[4]],['high holistic'],['right'],['upright'],['U0061.bmp'],['female'],[[10]],['male'],[[0]],[[0.38840936]],NJ
209,[[10]],[[210]],[[1]],['low holistic'],['right'],['upright'],['U0006.bmp'],['female'],[[4]],['male'],[[0]],[[1.40400357]],NJ
210,[[10]],[[211]],[[9]],['high holistic'],['right'],['upright'],['U0155.bmp'],['female'],[[8]],['male'],[[0]],[[0.58724824]],NJ
211,[[10]],[[212]],[[2]],['low holistic'],['right'],['upright'],['U0014.bmp'],['male'],[[4]],['male'],[[1]],[[0.46923101]],NJ
212,[[10]],[[213]],[[14]],['high holistic'],['left'],['inverted'],['U0228.bmp'],['male'],[[12]],['female'],[[0]],[[0.000177]],NJ
213,[[10]],[[214]],[[5]],['high holistic'],['right'],['inverted'],['U0076.bmp'],['female'],[[8]],['male'],[[0]],[[0.13010052]],NJ
214,[[10]],[[215]],[[7]],['low holistic'],['fovea'],['inverted'],['U0107.bmp'],['female'],[[0]],['female'],[[1]],[[0.00013895]],NJ
215,[[10]],[[216]],[[17]],['high holistic'],['right'],['upright'],['U0346.bmp'],['male'],[[2]],['male'],[[1]],[[0.01957064]],NJ
216,[[10]],[[217]],[[1]],['low holistic'],['right'],['inverted'],['U0006.bmp'],['female'],[[2]],['female'],[[1]],[[0.000342]],NJ
217,[[10]],[[218]],[[4]],['low holistic'],['left'],['inverted'],['U0061.bmp'],['female'],[[2]],['female'],[[1]],[[0.00010084]],NJ
218,[[10]],[[219]],[[19]],['high holistic'],['left'],['upright'],['U0361.bmp'],['female'],[[8]],['male'],[[0]],[[0.00011985]],NJ
219,[[10]],[[220]],[[1]],['low holistic'],['right'],['upright'],['U0006.bmp'],['female'],[[8]],['male'],[[0]],[[2.11467572]],NJ
220,[[10]],[[221]],[[17]],['low holistic'],['left'],['inverted'],['U0346.bmp'],['female'],[[12]],['male'],[[0]],[[0.37461943]],NJ
221,[[10]],[[222]],[[17]],['high holistic'],['left'],['upright'],['U0346.bmp'],['male'],[[10]],['male'],[[1]],[[0.10477265]],NJ
222,[[10]],[[223]],[[18]],['high holistic'],['right'],['upright'],['U0359.bmp'],['male'],[[6]],['male'],[[1]],[[0.33914431]],NJ
223,[[10]],[[224]],[[12]],['high holistic'],['right'],['upright'],['U0178.bmp'],['male'],[[6]],['male'],[[1]],[[0.02267176]],NJ
224,[[10]],[[225]],[[6]],['high holistic'],['right'],['upright'],['U0106.bmp'],['female'],[[2]],['female'],[[1]],[[0.02037205]],NJ
225,[[10]],[[226]],[[16]],['low holistic'],['fovea'],['upright'],['U0335.bmp'],['female'],[[0]],['female'],[[1]],[[0.00013128]],NJ
226,[[10]],[[227]],[[15]],['low holistic'],['right'],['upright'],['U0312.bmp'],['male'],[[12]],['male'],[[1]],[[1.76482541]],NJ
227,[[10]],[[228]],[[18]],['high holistic'],['left'],['inverted'],['U0359.bmp'],['male'],[[12]],['male'],[[1]],[[0.65335649]],NJ
228,[[10]],[[229]],[[13]],['high holistic'],['right'],['upright'],['U0181.bmp'],['female'],[[4]],['female'],[[1]],[[0.00010605]],NJ
229,[[10]],[[230]],[[6]],['low holistic'],['right'],['inverted'],['U0106.bmp'],['male'],[[12]],['male'],[[1]],[[0.45018011]],NJ
230,[[10]],[[231]],[[18]],['high holistic'],['right'],['upright'],['U0359.bmp'],['male'],[[4]],['male'],[[1]],[[0.12862805]],NJ
231,[[10]],[[232]],[[2]],['high holistic'],['right'],['upright'],['U0014.bmp'],['male'],[[8]],['male'],[[1]],[[0.00010139]],NJ
232,[[10]],[[233]],[[16]],['high holistic'],['left'],['upright'],['U0335.bmp'],['female'],[[6]],['female'],[[1]],[[0.00010123]],NJ
233,[[10]],[[234]],[[19]],['low holistic'],['left'],['inverted'],['U0361.bmp'],['female'],[[8]],['female'],[[1]],[[0.00010007]],NJ
234,[[10]],[[235]],[[1]],['low holistic'],['right'],['inverted'],['U0006.bmp'],['female'],[[8]],['female'],[[1]],[[0.00347046]],NJ
235,[[10]],[[236]],[[5]],['high holistic'],['right'],['inverted'],['U0076.bmp'],['female'],[[4]],['female'],[[1]],[[0.00015858]],NJ
236,[[10]],[[237]],[[10]],['high holistic'],['left'],['upright'],['U0159.bmp'],['male'],[[12]],['male'],[[1]],[[0.06754698]],NJ
237,[[10]],[[238]],[[14]],['high holistic'],['right'],['upright'],['U0228.bmp'],['male'],[[6]],['male'],[[1]],[[0.26488789]],NJ
238,[[10]],[[239]],[[7]],['high holistic'],['right'],['inverted'],['U0107.bmp'],['female'],[[12]],['male'],[[0]],[[0.00021993]],NJ
239,[[10]],[[240]],[[3]],['high holistic'],['left'],['upright'],['U0020.bmp'],['male'],[[2]],['female'],[[0]],[[0.0238053]],NJ
240,[[10]],[[241]],[[17]],['low holistic'],['left'],['inverted'],['U0346.bmp'],['female'],[[10]],['male'],[[0]],[[1.35090302]],NJ
241,[[10]],[[242]],[[3]],['high holistic'],['left'],['inverted'],['U0020.bmp'],['male'],[[6]],['female'],[[0]],[[9.954907e-05]],NJ
242,[[10]],[[243]],[[3]],['high holistic'],['left'],['upright'],['U0020.bmp'],['male'],[[4]],['female'],[[0]],[[0.01532535]],NJ
243,[[10]],[[244]],[[6]],['low holistic'],['right'],['inverted'],['U0106.bmp'],['male'],[[2]],['female'],[[0]],[[0.01505181]],NJ
244,[[10]],[[245]],[[6]],['low holistic'],['fovea'],['upright'],['U0106.bmp'],['male'],[[0]],['female'],[[0]],[[0.00654588]],NJ
245,[[10]],[[246]],[[3]],['high holistic'],['right'],['upright'],['U0020.bmp'],['male'],[[6]],['female'],[[0]],[[0.07842592]],NJ
246,[[10]],[[247]],[[12]],['high holistic'],['right'],['upright'],['U0178.bmp'],['male'],[[6]],['male'],[[1]],[[0.16440241]],NJ
247,[[10]],[[248]],[[16]],['low holistic'],['right'],['upright'],['U0335.bmp'],['female'],[[6]],['female'],[[1]],[[0.00026146]],NJ
248,[[10]],[[249]],[[7]],['low holistic'],['left'],['upright'],['U0107.bmp'],['female'],[[10]],['female'],[[1]],[[0.10226252]],NJ
249,[[10]],[[250]],[[18]],['low holistic'],['right'],['upright'],['U0359.bmp'],['male'],[[2]],['female'],[[0]],[[0.01620791]],NJ
250,[[10]],[[251]],[[5]],['low holistic'],['left'],['upright'],['U0076.bmp'],['male'],[[8]],['male'],[[1]],[[0.00024263]],NJ
251,[[10]],[[252]],[[15]],['low holistic'],['left'],['upright'],['U0312.bmp'],['male'],[[12]],['male'],[[1]],[[0.00010684]],NJ
252,[[10]],[[253]],[[17]],['high holistic'],['right'],['inverted'],['U0346.bmp'],['male'],[[10]],['male'],[[1]],[[1.69606403]],NJ
253,[[10]],[[254]],[[4]],['low holistic'],['fovea'],['upright'],['U0061.bmp'],['female'],[[0]],['female'],[[1]],[[0.00051362]],NJ
254,[[10]],[[255]],[[10]],['high holistic'],['right'],['upright'],['U0159.bmp'],['male'],[[8]],['male'],[[1]],[[9.98144969e-05]],NJ
255,[[10]],[[256]],[[9]],['low holistic'],['right'],['upright'],['U0155.bmp'],['male'],[[6]],['male'],[[1]],[[0.1473343]],NJ
256,[[10]],[[257]],[[12]],['low holistic'],['left'],['upright'],['U0178.bmp'],['female'],[[6]],['female'],[[1]],[[0.11837867]],NJ
257,[[10]],[[258]],[[6]],['high holistic'],['left'],['upright'],['U0106.bmp'],['female'],[[10]],['female'],[[1]],[[0.14467113]],NJ
258,[[10]],[[259]],[[16]],['high holistic'],['right'],['inverted'],['U0335.bmp'],['female'],[[2]],['female'],[[1]],[[0.50702612]],NJ
259,[[10]],[[260]],[[10]],['low holistic'],['left'],['upright'],['U0159.bmp'],['female'],[[10]],['female'],[[1]],[[0.10305082]],NJ
260,[[10]],[[261]],[[2]],['low holistic'],['left'],['inverted'],['U0014.bmp'],['male'],[[6]],['male'],[[1]],[[2.88388706]],NJ
261,[[10]],[[262]],[[15]],['high holistic'],['right'],['inverted'],['U0312.bmp'],['male'],[[10]],['female'],[[0]],[[0.16607874]],NJ
262,[[10]],[[263]],[[1]],['high holistic'],['right'],['upright'],['U0006.bmp'],['female'],[[8]],['female'],[[1]],[[0.20169126]],NJ
263,[[10]],[[264]],[[10]],['low holistic'],['left'],['upright'],['U0159.bmp'],['female'],[[10]],['male'],[[0]],[[1.58508031]],NJ
264,[[10]],[[265]],[[5]],['low holistic'],['right'],['inverted'],['U0076.bmp'],['male'],[[4]],['male'],[[1]],[[0.13106117]],NJ
265,[[10]],[[266]],[[14]],['high holistic'],['fovea'],['upright'],['U0228.bmp'],['male'],[[0]],['male'],[[1]],[[0.0001152]],NJ
266,[[10]],[[267]],[[4]],['high holistic'],['left'],['upright'],['U0061.bmp'],['female'],[[12]],['female'],[[1]],[[0.1635613]],NJ
267,[[10]],[[268]],[[20]],['low holistic'],['left'],['upright'],['U0362.bmp'],['male'],[[4]],['male'],[[1]],[[0.02901367]],NJ
268,[[10]],[[269]],[[7]],['low holistic'],['left'],['inverted'],['U0107.bmp'],['female'],[[8]],['female'],[[1]],[[0.0672327]],NJ
269,[[10]],[[270]],[[19]],['high holistic'],['left'],['upright'],['U0361.bmp'],['female'],[[2]],['female'],[[1]],[[0.12897213]],NJ
270,[[10]],[[271]],[[2]],['high holistic'],['left'],['upright'],['U0014.bmp'],['male'],[[6]],['male'],[[1]],[[0.0445868]],NJ
271,[[10]],[[272]],[[7]],['low holistic'],['fovea'],['inverted'],['U0107.bmp'],['female'],[[0]],['female'],[[1]],[[0.05796962]],NJ
272,[[10]],[[273]],[[11]],['low holistic'],['left'],['inverted'],['U0164.bmp'],['female'],[[10]],['male'],[[0]],[[0.1280247]],NJ
273,[[10]],[[274]],[[13]],['low holistic'],['left'],['upright'],['U0181.bmp'],['male'],[[2]],['female'],[[0]],[[0.00010047]],NJ
274,[[10]],[[275]],[[14]],['low holistic'],['right'],['inverted'],['U0228.bmp'],['male'],[[10]],['female'],[[0]],[[0.26658548]],NJ
275,[[10]],[[276]],[[13]],['low holistic'],['right'],['inverted'],['U0181.bmp'],['male'],[[6]],['male'],[[1]],[[0.20059887]],NJ
276,[[10]],[[277]],[[11]],['low holistic'],['right'],['inverted'],['U0164.bmp'],['female'],[[2]],['female'],[[1]],[[0.11235696]],NJ
277,[[10]],[[278]],[[11]],['high holistic'],['left'],['upright'],['U0164.bmp'],['female'],[[10]],['male'],[[0]],[[9.81902704e-05]],NJ
278,[[10]],[[279]],[[18]],['low holistic'],['left'],['upright'],['U0359.bmp'],['male'],[[4]],['male'],[[1]],[[0.00011138]],NJ
279,[[10]],[[280]],[[6]],['high holistic'],['left'],['upright'],['U0106.bmp'],['female'],[[4]],['male'],[[0]],[[1.41273623]],NJ
280,[[10]],[[281]],[[11]],['low holistic'],['right'],['inverted'],['U0164.bmp'],['female'],[[8]],['female'],[[1]],[[0.02801892]],NJ
281,[[10]],[[282]],[[6]],['low holistic'],['right'],['inverted'],['U0106.bmp'],['male'],[[8]],['male'],[[1]],[[0.05065321]],NJ
282,[[10]],[[283]],[[10]],['low holistic'],['right'],['upright'],['U0159.bmp'],['female'],[[12]],['female'],[[1]],[[0.00797356]],NJ
283,[[10]],[[284]],[[3]],['low holistic'],['right'],['inverted'],['U0020.bmp'],['female'],[[2]],['female'],[[1]],[[9.88095999e-05]],NJ
284,[[10]],[[285]],[[5]],['high holistic'],['right'],['upright'],['U0076.bmp'],['female'],[[12]],['male'],[[0]],[[0.00014636]],NJ
285,[[10]],[[286]],[[9]],['high holistic'],['left'],['inverted'],['U0155.bmp'],['female'],[[6]],['female'],[[1]],[[0.20094446]],NJ
286,[[10]],[[287]],[[11]],['low holistic'],['left'],['inverted'],['U0164.bmp'],['female'],[[2]],['female'],[[1]],[[0.08770583]],NJ
287,[[10]],[[288]],[[14]],['low holistic'],['right'],['upright'],['U0228.bmp'],['male'],[[12]],['male'],[[1]],[[1.46756618]],NJ
288,[[10]],[[289]],[[2]],['low holistic'],['left'],['inverted'],['U0014.bmp'],['male'],[[6]],['male'],[[1]],[[0.30464911]],NJ
289,[[10]],[[290]],[[3]],['high holistic'],['left'],['inverted'],['U0020.bmp'],['male'],[[8]],['male'],[[1]],[[0.16432418]],NJ
290,[[10]],[[291]],[[4]],['low holistic'],['left'],['upright'],['U0061.bmp'],['female'],[[4]],['female'],[[1]],[[9.95630398e-05]],NJ
291,[[10]],[[292]],[[2]],['high holistic'],['right'],['upright'],['U0014.bmp'],['male'],[[2]],['male'],[[1]],[[0.06135624]],NJ
292,[[10]],[[293]],[[6]],['low holistic'],['fovea'],['inverted'],['U0106.bmp'],['male'],[[0]],['male'],[[1]],[[0.51613161]],NJ
293,[[10]],[[294]],[[5]],['low holistic'],['left'],['upright'],['U0076.bmp'],['male'],[[6]],['male'],[[1]],[[0.02343791]],NJ
294,[[10]],[[295]],[[2]],['low holistic'],['left'],['inverted'],['U0014.bmp'],['male'],[[12]],['male'],[[1]],[[1.03832753]],NJ
295,[[10]],[[296]],[[6]],['high holistic'],['left'],['inverted'],['U0106.bmp'],['female'],[[2]],['female'],[[1]],[[0.06098785]],NJ
296,[[10]],[[297]],[[7]],['high holistic'],['right'],['upright'],['U0107.bmp'],['female'],[[8]],['male'],[[0]],[[0.05912046]],NJ
297,[[10]],[[298]],[[3]],['low holistic'],['left'],['inverted'],['U0020.bmp'],['female'],[[12]],['female'],[[1]],[[0.00038056]],NJ
298,[[10]],[[299]],[[19]],['high holistic'],['right'],['upright'],['U0361.bmp'],['female'],[[8]],['male'],[[0]],[[0.11870948]],NJ
299,[[10]],[[300]],[[20]],['low holistic'],['left'],['upright'],['U0362.bmp'],['male'],[[2]],['male'],[[1]],[[0.08202466]],NJ
300,[[10]],[[301]],[[5]],['high holistic'],['right'],['upright'],['U0076.bmp'],['female'],[[10]],['male'],[[0]],[[0.02477016]],NJ
301,[[10]],[[302]],[[1]],['low holistic'],['fovea'],['inverted'],['U0006.bmp'],['female'],[[0]],['female'],[[1]],[[0.00039809]],NJ
302,[[10]],[[303]],[[5]],['low holistic'],['right'],['upright'],['U0076.bmp'],['male'],[[2]],['male'],[[1]],[[0.00042434]],NJ
303,[[10]],[[304]],[[17]],['high holistic'],['fovea'],['inverted'],['U0346.bmp'],['male'],[[0]],['female'],[[0]],[[0.35858592]],NJ
304,[[10]],[[305]],[[14]],['low holistic'],['right'],['inverted'],['U0228.bmp'],['male'],[[12]],['male'],[[1]],[[0.72963831]],NJ
305,[[10]],[[306]],[[20]],['high holistic'],['right'],['upright'],['U0362.bmp'],['female'],[[10]],['female'],[[1]],[[0.33040887]],NJ
306,[[10]],[[307]],[[11]],['high holistic'],['left'],['upright'],['U0164.bmp'],['female'],[[8]],['female'],[[1]],[[3.63755409]],NJ
307,[[10]],[[308]],[[18]],['high holistic'],['right'],['inverted'],['U0359.bmp'],['male'],[[4]],['male'],[[1]],[[0.19743124]],NJ
308,[[10]],[[309]],[[2]],['low holistic'],['right'],['inverted'],['U0014.bmp'],['male'],[[12]],['male'],[[1]],[[0.60497586]],NJ
309,[[10]],[[310]],[[14]],['low holistic'],['left'],['inverted'],['U0228.bmp'],['male'],[[4]],['male'],[[1]],[[0.78032713]],NJ
310,[[10]],[[311]],[[15]],['low holistic'],['right'],['inverted'],['U0312.bmp'],['male'],[[12]],['male'],[[1]],[[0.26051269]],NJ
311,[[10]],[[312]],[[18]],['high holistic'],['left'],['upright'],['U0359.bmp'],['male'],[[12]],['male'],[[1]],[[0.59472368]],NJ
312,[[10]],[[313]],[[2]],['high holistic'],['right'],['inverted'],['U0014.bmp'],['male'],[[8]],['male'],[[1]],[[0.38843687]],NJ
313,[[10]],[[314]],[[6]],['low holistic'],['fovea'],['inverted'],['U0106.bmp'],['male'],[[0]],['male'],[[1]],[[1.00511806]],NJ
314,[[10]],[[315]],[[13]],['high holistic'],['left'],['upright'],['U0181.bmp'],['female'],[[6]],['female'],[[1]],[[1.07485989]],NJ
315,[[10]],[[316]],[[3]],['low holistic'],['right'],['upright'],['U0020.bmp'],['female'],[[2]],['female'],[[1]],[[0.1121674]],NJ
316,[[10]],[[317]],[[3]],['high holistic'],['left'],['upright'],['U0020.bmp'],['male'],[[12]],['male'],[[1]],[[0.53851772]],NJ
317,[[10]],[[318]],[[17]],['high holistic'],['right'],['upright'],['U0346.bmp'],['male'],[[10]],['male'],[[1]],[[0.25505718]],NJ
318,[[10]],[[319]],[[12]],['high holistic'],['right'],['inverted'],['U0178.bmp'],['male'],[[6]],['male'],[[1]],[[0.731215]],NJ
319,[[10]],[[320]],[[12]],['high holistic'],['left'],['upright'],['U0178.bmp'],['male'],[[2]],['male'],[[1]],[[0.28539898]],NJ
320,[[10]],[[321]],[[4]],['low holistic'],['left'],['upright'],['U0061.bmp'],['female'],[[12]],['female'],[[1]],[[0.30788876]],NJ
321,[[10]],[[322]],[[7]],['low holistic'],['left'],['inverted'],['U0107.bmp'],['female'],[[8]],['female'],[[1]],[[0.05518569]],NJ
322,[[10]],[[323]],[[1]],['high holistic'],['right'],['upright'],['U0006.bmp'],['female'],[[4]],['female'],[[1]],[[0.61295058]],NJ
323,[[10]],[[324]],[[1]],['high holistic'],['right'],['upright'],['U0006.bmp'],['female'],[[2]],['female'],[[1]],[[0.00477909]],NJ
324,[[10]],[[325]],[[2]],['low holistic'],['left'],['upright'],['U0014.bmp'],['male'],[[10]],['male'],[[1]],[[1.2851639]],NJ
325,[[10]],[[326]],[[11]],['low holistic'],['right'],['upright'],['U0164.bmp'],['female'],[[10]],['female'],[[1]],[[0.91933249]],NJ
326,[[10]],[[327]],[[18]],['high holistic'],['left'],['inverted'],['U0359.bmp'],['male'],[[8]],['male'],[[1]],[[0.69166971]],NJ
327,[[10]],[[328]],[[16]],['high holistic'],['left'],['inverted'],['U0335.bmp'],['female'],[[10]],['male'],[[0]],[[0.21778983]],NJ
328,[[10]],[[329]],[[4]],['high holistic'],['left'],['inverted'],['U0061.bmp'],['female'],[[10]],['female'],[[1]],[[0.56593948]],NJ
329,[[10]],[[330]],[[5]],['high holistic'],['fovea'],['upright'],['U0076.bmp'],['female'],[[0]],['female'],[[1]],[[2.21574728]],NJ
330,[[10]],[[331]],[[9]],['high holistic'],['right'],['upright'],['U0155.bmp'],['female'],[[2]],['female'],[[1]],[[0.43242714]],NJ
331,[[10]],[[332]],[[7]],['low holistic'],['left'],['inverted'],['U0107.bmp'],['female'],[[10]],['female'],[[1]],[[0.00065929]],NJ
332,[[10]],[[333]],[[18]],['high holistic'],['left'],['upright'],['U0359.bmp'],['male'],[[2]],['male'],[[1]],[[0.10259963]],NJ
333,[[10]],[[334]],[[8]],['low holistic'],['left'],['upright'],['U0137.bmp'],['male'],[[6]],['male'],[[1]],[[0.05179842]],NJ
334,[[10]],[[335]],[[20]],['low holistic'],['left'],['inverted'],['U0362.bmp'],['male'],[[6]],['male'],[[1]],[[9.87751409e-05]],NJ
335,[[10]],[[336]],[[14]],['high holistic'],['right'],['upright'],['U0228.bmp'],['male'],[[2]],['male'],[[1]],[[0.09579653]],NJ
336,[[10]],[[337]],[[16]],['high holistic'],['left'],['inverted'],['U0335.bmp'],['female'],[[12]],['male'],[[0]],[[0.22117293]],NJ
337,[[10]],[[338]],[[10]],['low holistic'],['right'],['inverted'],['U0159.bmp'],['female'],[[2]],['female'],[[1]],[[0.09232417]],NJ
338,[[10]],[[339]],[[18]],['high holistic'],['left'],['inverted'],['U0359.bmp'],['male'],[[4]],['male'],[[1]],[[0.2715395]],NJ
339,[[10]],[[340]],[[9]],['low holistic'],['left'],['inverted'],['U0155.bmp'],['male'],[[8]],['male'],[[1]],[[0.0858305]],NJ
340,[[10]],[[341]],[[3]],['high holistic'],['right'],['upright'],['U0020.bmp'],['male'],[[6]],['male'],[[1]],[[0.06617685]],NJ
341,[[10]],[[342]],[[7]],['high holistic'],['left'],['upright'],['U0107.bmp'],['female'],[[6]],['male'],[[0]],[[0.00011581]],NJ
342,[[10]],[[343]],[[13]],['high holistic'],['right'],['upright'],['U0181.bmp'],['female'],[[6]],['male'],[[0]],[[0.23941008]],NJ
343,[[10]],[[344]],[[14]],['low holistic'],['left'],['inverted'],['U0228.bmp'],['male'],[[12]],['male'],[[1]],[[0.00480506]],NJ
344,[[10]],[[345]],[[8]],['high holistic'],['right'],['inverted'],['U0137.bmp'],['female'],[[8]],['male'],[[0]],[[0.00010788]],NJ
345,[[10]],[[346]],[[2]],['high holistic'],['right'],['inverted'],['U0014.bmp'],['male'],[[12]],['male'],[[1]],[[1.55665474]],NJ
346,[[10]],[[347]],[[10]],['high holistic'],['right'],['inverted'],['U0159.bmp'],['male'],[[2]],['male'],[[1]],[[9.8798424e-05]],NJ
347,[[10]],[[348]],[[19]],['low holistic'],['right'],['inverted'],['U0361.bmp'],['female'],[[10]],['male'],[[0]],[[0.00017629]],NJ
348,[[10]],[[349]],[[1]],['high holistic'],['left'],['inverted'],['U0006.bmp'],['female'],[[8]],['female'],[[1]],[[0.08651222]],NJ
349,[[10]],[[350]],[[5]],['high holistic'],['left'],['inverted'],['U0076.bmp'],['female'],[[6]],['male'],[[0]],[[0.09000378]],NJ
350,[[10]],[[351]],[[14]],['low holistic'],['right'],['upright'],['U0228.bmp'],['male'],[[8]],['male'],[[1]],[[1.61567937]],NJ
351,[[10]],[[352]],[[20]],['high holistic'],['fovea'],['upright'],['U0362.bmp'],['female'],[[0]],['female'],[[1]],[[0.15028926]],NJ
352,[[10]],[[353]],[[2]],['low holistic'],['left'],['inverted'],['U0014.bmp'],['male'],[[12]],['male'],[[1]],[[0.21472587]],NJ
353,[[10]],[[354]],[[20]],['low holistic'],['left'],['upright'],['U0362.bmp'],['male'],[[8]],['male'],[[1]],[[0.00545102]],NJ
354,[[10]],[[355]],[[20]],['low holistic'],['right'],['inverted'],['U0362.bmp'],['male'],[[12]],['male'],[[1]],[[0.00011307]],NJ
355,[[10]],[[356]],[[3]],['low holistic'],['right'],['upright'],['U0020.bmp'],['female'],[[2]],['male'],[[0]],[[1.22096056]],NJ
356,[[10]],[[357]],[[10]],['low holistic'],['right'],['upright'],['U0159.bmp'],['female'],[[8]],['male'],[[0]],[[0.00013892]],NJ
357,[[10]],[[358]],[[20]],['high holistic'],['right'],['inverted'],['U0362.bmp'],['female'],[[10]],['male'],[[0]],[[1.18967381]],NJ
358,[[10]],[[359]],[[5]],['low holistic'],['left'],['inverted'],['U0076.bmp'],['male'],[[8]],['male'],[[1]],[[0.02935401]],NJ
359,[[10]],[[360]],[[14]],['low holistic'],['right'],['inverted'],['U0228.bmp'],['male'],[[4]],['male'],[[1]],[[0.0001008]],NJ
360,[[10]],[[361]],[[14]],['high holistic'],['right'],['inverted'],['U0228.bmp'],['male'],[[12]],['male'],[[1]],[[0.17153956]],NJ
361,[[10]],[[362]],[[17]],['high holistic'],['right'],['upright'],['U0346.bmp'],['male'],[[10]],['male'],[[1]],[[0.00010059]],NJ
362,[[10]],[[363]],[[7]],['low holistic'],['right'],['upright'],['U0107.bmp'],['female'],[[6]],['female'],[[1]],[[0.33308701]],NJ
363,[[10]],[[364]],[[18]],['high holistic'],['fovea'],['upright'],['U0359.bmp'],['male'],[[0]],['male'],[[1]],[[0.10224494]],NJ
364,[[10]],[[365]],[[5]],['high holistic'],['right'],['inverted'],['U0076.bmp'],['female'],[[12]],['male'],[[0]],[[1.14781275]],NJ
365,[[10]],[[366]],[[6]],['high holistic'],['fovea'],['inverted'],['U0106.bmp'],['female'],[[0]],['female'],[[1]],[[0.34054884]],NJ
366,[[10]],[[367]],[[18]],['high holistic'],['left'],['upright'],['U0359.bmp'],['male'],[[2]],['male'],[[1]],[[0.00017658]],NJ
367,[[10]],[[368]],[[12]],['low holistic'],['left'],['upright'],['U0178.bmp'],['female'],[[4]],['female'],[[1]],[[0.01587536]],NJ
368,[[10]],[[369]],[[16]],['low holistic'],['right'],['inverted'],['U0335.bmp'],['female'],[[6]],['female'],[[1]],[[0.10156505]],NJ
369,[[10]],[[370]],[[12]],['high holistic'],['left'],['inverted'],['U0178.bmp'],['male'],[[6]],['female'],[[0]],[[0.13928049]],NJ
370,[[10]],[[371]],[[8]],['low holistic'],['left'],['inverted'],['U0137.bmp'],['male'],[[6]],['male'],[[1]],[[0.05312299]],NJ
371,[[10]],[[372]],[[14]],['low holistic'],['right'],['inverted'],['U0228.bmp'],['male'],[[6]],['male'],[[1]],[[0.04270709]],NJ
372,[[10]],[[373]],[[19]],['high holistic'],['right'],['inverted'],['U0361.bmp'],['female'],[[10]],['male'],[[0]],[[0.00017689]],NJ
373,[[10]],[[374]],[[8]],['low holistic'],['left'],['inverted'],['U0137.bmp'],['male'],[[6]],['male'],[[1]],[[0.00047]],NJ
374,[[10]],[[375]],[[2]],['low holistic'],['left'],['upright'],['U0014.bmp'],['male'],[[8]],['male'],[[1]],[[0.07225611]],NJ
375,[[10]],[[376]],[[11]],['high holistic'],['right'],['inverted'],['U0164.bmp'],['female'],[[2]],['male'],[[0]],[[1.08685842]],NJ
376,[[10]],[[377]],[[7]],['low holistic'],['left'],['upright'],['U0107.bmp'],['female'],[[10]],['female'],[[1]],[[0.16178225]],NJ
377,[[10]],[[378]],[[19]],['high holistic'],['left'],['inverted'],['U0361.bmp'],['female'],[[8]],['female'],[[1]],[[0.84468755]],NJ
378,[[10]],[[379]],[[4]],['low holistic'],['left'],['inverted'],['U0061.bmp'],['female'],[[12]],['female'],[[1]],[[0.29774519]],NJ
379,[[10]],[[380]],[[12]],['high holistic'],['right'],['inverted'],['U0178.bmp'],['male'],[[10]],['male'],[[1]],[[0.09420135]],NJ
380,[[10]],[[381]],[[6]],['high holistic'],['right'],['upright'],['U0106.bmp'],['female'],[[6]],['female'],[[1]],[[0.32360857]],NJ
381,[[10]],[[382]],[[4]],['high holistic'],['left'],['inverted'],['U0061.bmp'],['female'],[[12]],['female'],[[1]],[[1.47644788]],NJ
382,[[10]],[[383]],[[3]],['low holistic'],['right'],['inverted'],['U0020.bmp'],['female'],[[10]],['female'],[[1]],[[0.00031382]],NJ
383,[[10]],[[384]],[[10]],['high holistic'],['right'],['upright'],['U0159.bmp'],['male'],[[4]],['male'],[[1]],[[0.07381305]],NJ
384,[[10]],[[385]],[[14]],['high holistic'],['left'],['upright'],['U0228.bmp'],['male'],[[8]],['male'],[[1]],[[0.00013287]],NJ
385,[[10]],[[386]],[[17]],['high holistic'],['fovea'],['inverted'],['U0346.bmp'],['male'],[[0]],['female'],[[0]],[[1.75999876]],NJ
386,[[10]],[[387]],[[8]],['low holistic'],['left'],['inverted'],['U0137.bmp'],['male'],[[12]],['male'],[[1]],[[0.1194071]],NJ
387,[[10]],[[388]],[[12]],['low holistic'],['left'],['inverted'],['U0178.bmp'],['female'],[[2]],['female'],[[1]],[[0.02004612]],NJ
388,[[10]],[[389]],[[4]],['low holistic'],['right'],['inverted'],['U0061.bmp'],['female'],[[8]],['female'],[[1]],[[0.57010949]],NJ
389,[[10]],[[390]],[[5]],['low holistic'],['right'],['upright'],['U0076.bmp'],['male'],[[6]],['male'],[[1]],[[0.0001861]],NJ
390,[[10]],[[391]],[[9]],['low holistic'],['left'],['inverted'],['U0155.bmp'],['male'],[[2]],['male'],[[1]],[[1.66946593]],NJ
391,[[10]],[[392]],[[15]],['high holistic'],['left'],['inverted'],['U0312.bmp'],['male'],[[4]],['male'],[[1]],[[0.28414038]],NJ
392,[[10]],[[393]],[[9]],['low holistic'],['right'],['upright'],['U0155.bmp'],['male'],[[4]],['male'],[[1]],[[1.67031511]],NJ
393,[[10]],[[394]],[[7]],['high holistic'],['right'],['inverted'],['U0107.bmp'],['female'],[[10]],['male'],[[0]],[[0.35746058]],NJ
394,[[10]],[[395]],[[13]],['high holistic'],['left'],['inverted'],['U0181.bmp'],['female'],[[12]],['female'],[[1]],[[0.62816129]],NJ
395,[[10]],[[396]],[[18]],['high holistic'],['right'],['upright'],['U0359.bmp'],['male'],[[12]],['male'],[[1]],[[0.18918409]],NJ
396,[[10]],[[397]],[[11]],['high holistic'],['left'],['upright'],['U0164.bmp'],['female'],[[12]],['male'],[[0]],[[0.0753994]],NJ
397,[[10]],[[398]],[[7]],['high holistic'],['left'],['inverted'],['U0107.bmp'],['female'],[[12]],['female'],[[1]],[[0.31330925]],NJ
398,[[10]],[[399]],[[6]],['high holistic'],['right'],['inverted'],['U0106.bmp'],['female'],[[8]],['female'],[[1]],[[0.59614979]],NJ
399,[[10]],[[400]],[[16]],['high holistic'],['left'],['upright'],['U0335.bmp'],['female'],[[8]],['female'],[[1]],[[0.07500511]],NJ
400,[[10]],[[401]],[[1]],['high holistic'],['left'],['inverted'],['U0006.bmp'],['female'],[[4]],['female'],[[1]],[[0.00054626]],NJ
401,[[10]],[[402]],[[12]],['low holistic'],['left'],['upright'],['U0178.bmp'],['female'],[[2]],['female'],[[1]],[[0.05773567]],NJ
402,[[10]],[[403]],[[10]],['low holistic'],['right'],['upright'],['U0159.bmp'],['female'],[[10]],['female'],[[1]],[[0.00677815]],NJ
403,[[10]],[[404]],[[20]],['high holistic'],['fovea'],['inverted'],['U0362.bmp'],['female'],[[0]],['male'],[[0]],[[0.94934931]],NJ
404,[[10]],[[405]],[[16]],['low holistic'],['right'],['inverted'],['U0335.bmp'],['female'],[[4]],['female'],[[1]],[[0.19233664]],NJ
405,[[10]],[[406]],[[19]],['low holistic'],['left'],['upright'],['U0361.bmp'],['female'],[[2]],['female'],[[1]],[[0.17671576]],NJ
406,[[10]],[[407]],[[9]],['low holistic'],['right'],['upright'],['U0155.bmp'],['male'],[[10]],['male'],[[1]],[[0.40970915]],NJ
407,[[10]],[[408]],[[12]],['high holistic'],['right'],['upright'],['U0178.bmp'],['male'],[[6]],['male'],[[1]],[[0.12739274]],NJ
408,[[10]],[[409]],[[14]],['high holistic'],['left'],['inverted'],['U0228.bmp'],['male'],[[10]],['female'],[[0]],[[0.09836728]],NJ
409,[[10]],[[410]],[[20]],['low holistic'],['right'],['upright'],['U0362.bmp'],['male'],[[12]],['male'],[[1]],[[0.27899773]],NJ
410,[[10]],[[411]],[[3]],['low holistic'],['right'],['upright'],['U0020.bmp'],['female'],[[4]],['female'],[[1]],[[0.52460425]],NJ
411,[[10]],[[412]],[[4]],['low holistic'],['right'],['upright'],['U0061.bmp'],['female'],[[2]],['female'],[[1]],[[0.15959083]],NJ
412,[[10]],[[413]],[[4]],['high holistic'],['right'],['upright'],['U0061.bmp'],['female'],[[8]],['female'],[[1]],[[0.25623778]],NJ
413,[[10]],[[414]],[[19]],['high holistic'],['right'],['upright'],['U0361.bmp'],['female'],[[6]],['male'],[[0]],[[0.09437732]],NJ
414,[[10]],[[415]],[[16]],['high holistic'],['right'],['upright'],['U0335.bmp'],['female'],[[6]],['female'],[[1]],[[0.39257076]],NJ
415,[[10]],[[416]],[[10]],['low holistic'],['right'],['upright'],['U0159.bmp'],['female'],[[4]],['female'],[[1]],[[0.03275993]],NJ
416,[[10]],[[417]],[[16]],['high holistic'],['left'],['upright'],['U0335.bmp'],['female'],[[10]],['female'],[[1]],[[0.13623669]],NJ
417,[[10]],[[418]],[[4]],['high holistic'],['right'],['inverted'],['U0061.bmp'],['female'],[[10]],['female'],[[1]],[[1.56328407]],NJ
418,[[10]],[[419]],[[20]],['high holistic'],['right'],['inverted'],['U0362.bmp'],['female'],[[10]],['male'],[[0]],[[0.63623389]],NJ
419,[[10]],[[420]],[[17]],['high holistic'],['left'],['upright'],['U0346.bmp'],['male'],[[6]],['male'],[[1]],[[0.20375435]],NJ
420,[[10]],[[421]],[[8]],['low holistic'],['right'],['upright'],['U0137.bmp'],['male'],[[6]],['male'],[[1]],[[0.19405047]],NJ
421,[[10]],[[422]],[[14]],['low holistic'],['right'],['inverted'],['U0228.bmp'],['male'],[[8]],['male'],[[1]],[[0.95445349]],NJ
422,[[10]],[[423]],[[18]],['low holistic'],['right'],['upright'],['U0359.bmp'],['male'],[[10]],['male'],[[1]],[[0.11550501]],NJ
423,[[10]],[[424]],[[8]],['low holistic'],['left'],['upright'],['U0137.bmp'],['male'],[[12]],['male'],[[1]],[[0.04708251]],NJ
424,[[10]],[[425]],[[12]],['low holistic'],['right'],['upright'],['U0178.bmp'],['female'],[[4]],['female'],[[1]],[[0.03748752]],NJ
425,[[10]],[[426]],[[11]],['high holistic'],['right'],['inverted'],['U0164.bmp'],['female'],[[4]],['male'],[[0]],[[0.87714223]],NJ
426,[[10]],[[427]],[[2]],['high holistic'],['fovea'],['inverted'],['U0014.bmp'],['male'],[[0]],['female'],[[0]],[[0.46426502]],NJ
427,[[10]],[[428]],[[4]],['high holistic'],['right'],['upright'],['U0061.bmp'],['female'],[[2]],['female'],[[1]],[[0.09388442]],NJ
428,[[10]],[[429]],[[10]],['high holistic'],['right'],['inverted'],['U0159.bmp'],['male'],[[4]],['female'],[[0]],[[0.30617844]],NJ
429,[[10]],[[430]],[[17]],['low holistic'],['right'],['inverted'],['U0346.bmp'],['female'],[[2]],['female'],[[1]],[[0.3981921]],NJ
430,[[10]],[[431]],[[17]],['high holistic'],['fovea'],['upright'],['U0346.bmp'],['male'],[[0]],['male'],[[1]],[[0.34259938]],NJ
431,[[10]],[[432]],[[7]],['high holistic'],['left'],['inverted'],['U0107.bmp'],['female'],[[10]],['male'],[[0]],[[0.40775521]],NJ
432,[[10]],[[433]],[[9]],['low holistic'],['left'],['inverted'],['U0155.bmp'],['male'],[[2]],['male'],[[1]],[[0.25403284]],NJ
433,[[10]],[[434]],[[2]],['low holistic'],['left'],['inverted'],['U0014.bmp'],['male'],[[6]],['male'],[[1]],[[0.26943288]],NJ
434,[[10]],[[435]],[[5]],['high holistic'],['right'],['inverted'],['U0076.bmp'],['female'],[[12]],['male'],[[0]],[[0.65709917]],NJ
435,[[10]],[[436]],[[13]],['high holistic'],['left'],['upright'],['U0181.bmp'],['female'],[[12]],['male'],[[0]],[[0.19920119]],NJ
436,[[10]],[[437]],[[10]],['low holistic'],['left'],['inverted'],['U0159.bmp'],['female'],[[4]],['female'],[[1]],[[0.05414924]],NJ
437,[[10]],[[438]],[[4]],['low holistic'],['left'],['inverted'],['U0061.bmp'],['female'],[[8]],['female'],[[1]],[[0.09347127]],NJ
438,[[10]],[[439]],[[3]],['low holistic'],['left'],['inverted'],['U0020.bmp'],['female'],[[12]],['female'],[[1]],[[0.00010828]],NJ
439,[[10]],[[440]],[[17]],['high holistic'],['left'],['upright'],['U0346.bmp'],['male'],[[4]],['male'],[[1]],[[0.12875841]],NJ
440,[[10]],[[441]],[[7]],['low holistic'],['fovea'],['upright'],['U0107.bmp'],['female'],[[0]],['female'],[[1]],[[0.12251431]],NJ
441,[[10]],[[442]],[[9]],['low holistic'],['left'],['upright'],['U0155.bmp'],['male'],[[12]],['male'],[[1]],[[0.06179332]],NJ
442,[[10]],[[443]],[[4]],['high holistic'],['left'],['upright'],['U0061.bmp'],['female'],[[2]],['female'],[[1]],[[0.07473672]],NJ
443,[[10]],[[444]],[[14]],['high holistic'],['fovea'],['inverted'],['U0228.bmp'],['male'],[[0]],['female'],[[0]],[[0.16675221]],NJ
444,[[10]],[[445]],[[6]],['high holistic'],['left'],['inverted'],['U0106.bmp'],['female'],[[10]],['female'],[[1]],[[0.60166241]],NJ
445,[[10]],[[446]],[[1]],['high holistic'],['right'],['inverted'],['U0006.bmp'],['female'],[[10]],['male'],[[0]],[[0.4413495]],NJ
446,[[10]],[[447]],[[14]],['high holistic'],['left'],['inverted'],['U0228.bmp'],['male'],[[12]],['female'],[[0]],[[0.12044066]],NJ
447,[[10]],[[448]],[[17]],['high holistic'],['right'],['upright'],['U0346.bmp'],['male'],[[8]],['male'],[[1]],[[0.67357782]],NJ
448,[[10]],[[449]],[[11]],['low holistic'],['right'],['inverted'],['U0164.bmp'],['female'],[[12]],['female'],[[1]],[[0.28849891]],NJ
449,[[10]],[[450]],[[4]],['low holistic'],['right'],['inverted'],['U0061.bmp'],['female'],[[6]],['female'],[[1]],[[0.26820208]],NJ
450,[[10]],[[451]],[[16]],['low holistic'],['left'],['upright'],['U0335.bmp'],['female'],[[2]],['female'],[[1]],[[9.99653712e-05]],NJ
451,[[10]],[[452]],[[12]],['low holistic'],['left'],['upright'],['U0178.bmp'],['female'],[[6]],['female'],[[1]],[[0.0001006]],NJ
452,[[10]],[[453]],[[10]],['low holistic'],['left'],['upright'],['U0159.bmp'],['female'],[[4]],['female'],[[1]],[[0.00010722]],NJ
453,[[10]],[[454]],[[4]],['high holistic'],['left'],['upright'],['U0061.bmp'],['female'],[[12]],['female'],[[1]],[[0.57576435]],NJ
454,[[10]],[[455]],[[10]],['low holistic'],['left'],['inverted'],['U0159.bmp'],['female'],[[10]],['female'],[[1]],[[0.00046625]],NJ
455,[[10]],[[456]],[[17]],['low holistic'],['left'],['upright'],['U0346.bmp'],['female'],[[4]],['female'],[[1]],[[0.00010713]],NJ
456,[[10]],[[457]],[[20]],['low holistic'],['left'],['upright'],['U0362.bmp'],['male'],[[10]],['male'],[[1]],[[0.20040381]],NJ
457,[[10]],[[458]],[[15]],['low holistic'],['right'],['upright'],['U0312.bmp'],['male'],[[4]],['male'],[[1]],[[0.04052366]],NJ
458,[[10]],[[459]],[[18]],['low holistic'],['left'],['upright'],['U0359.bmp'],['male'],[[4]],['male'],[[1]],[[0.10942348]],NJ
459,[[10]],[[460]],[[20]],['high holistic'],['right'],['upright'],['U0362.bmp'],['female'],[[6]],['female'],[[1]],[[0.70534153]],NJ
460,[[10]],[[461]],[[16]],['low holistic'],['left'],['upright'],['U0335.bmp'],['female'],[[4]],['female'],[[1]],[[1.2689615]],NJ
461,[[10]],[[462]],[[18]],['low holistic'],['left'],['inverted'],['U0359.bmp'],['male'],[[6]],['male'],[[1]],[[0.13004101]],NJ
462,[[10]],[[463]],[[3]],['low holistic'],['left'],['inverted'],['U0020.bmp'],['female'],[[2]],['male'],[[0]],[[0.01106007]],NJ
463,[[10]],[[464]],[[1]],['low holistic'],['left'],['inverted'],['U0006.bmp'],['female'],[[6]],['female'],[[1]],[[0.218523]],NJ
464,[[10]],[[465]],[[17]],['high holistic'],['right'],['inverted'],['U0346.bmp'],['male'],[[6]],['male'],[[1]],[[0.16926269]],NJ
465,[[10]],[[466]],[[1]],['high holistic'],['right'],['upright'],['U0006.bmp'],['female'],[[12]],['female'],[[1]],[[0.12193398]],NJ
466,[[10]],[[467]],[[9]],['low holistic'],['fovea'],['inverted'],['U0155.bmp'],['male'],[[0]],['male'],[[1]],[[0.41397112]],NJ
467,[[10]],[[468]],[[2]],['low holistic'],['left'],['upright'],['U0014.bmp'],['male'],[[12]],['male'],[[1]],[[0.26916622]],NJ
468,[[10]],[[469]],[[13]],['low holistic'],['right'],['inverted'],['U0181.bmp'],['male'],[[10]],['male'],[[1]],[[0.17115586]],NJ
469,[[10]],[[470]],[[10]],['high holistic'],['right'],['inverted'],['U0159.bmp'],['male'],[[4]],['male'],[[1]],[[0.3213833]],NJ
470,[[10]],[[471]],[[10]],['high holistic'],['right'],['upright'],['U0159.bmp'],['male'],[[8]],['male'],[[1]],[[0.00017646]],NJ
471,[[10]],[[472]],[[6]],['low holistic'],['right'],['upright'],['U0106.bmp'],['male'],[[6]],['male'],[[1]],[[0.0369331]],NJ
472,[[10]],[[473]],[[12]],['high holistic'],['left'],['inverted'],['U0178.bmp'],['male'],[[4]],['male'],[[1]],[[1.55368035]],NJ
473,[[10]],[[474]],[[2]],['low holistic'],['right'],['upright'],['U0014.bmp'],['male'],[[10]],['male'],[[1]],[[0.05226938]],NJ
474,[[10]],[[475]],[[20]],['low holistic'],['left'],['inverted'],['U0362.bmp'],['male'],[[6]],['male'],[[1]],[[0.18754913]],NJ
475,[[10]],[[476]],[[6]],['high holistic'],['left'],['inverted'],['U0106.bmp'],['female'],[[4]],['female'],[[1]],[[0.41069716]],NJ
476,[[10]],[[477]],[[14]],['high holistic'],['right'],['inverted'],['U0228.bmp'],['male'],[[6]],['female'],[[0]],[[0.00010034]],NJ
477,[[10]],[[478]],[[19]],['high holistic'],['fovea'],['inverted'],['U0361.bmp'],['female'],[[0]],['female'],[[1]],[[0.16914594]],NJ
478,[[10]],[[479]],[[5]],['low holistic'],['left'],['upright'],['U0076.bmp'],['male'],[[4]],['male'],[[1]],[[0.05897354]],NJ
479,[[10]],[[480]],[[5]],['low holistic'],['right'],['upright'],['U0076.bmp'],['male'],[[4]],['male'],[[1]],[[0.04652219]],NJ
480,[[10]],[[481]],[[1]],['low holistic'],['left'],['upright'],['U0006.bmp'],['female'],[[12]],['female'],[[1]],[[0.41246005]],NJ
481,[[10]],[[482]],[[2]],['high holistic'],['right'],['inverted'],['U0014.bmp'],['male'],[[8]],['male'],[[1]],[[3.09383071]],NJ
482,[[10]],[[483]],[[14]],['low holistic'],['right'],['upright'],['U0228.bmp'],['male'],[[6]],['male'],[[1]],[[0.79945537]],NJ
483,[[10]],[[484]],[[15]],['low holistic'],['left'],['inverted'],['U0312.bmp'],['male'],[[2]],['male'],[[1]],[[0.08789713]],NJ
484,[[10]],[[485]],[[11]],['low holistic'],['left'],['inverted'],['U0164.bmp'],['female'],[[4]],['female'],[[1]],[[0.08504709]],NJ
485,[[10]],[[486]],[[1]],['low holistic'],['left'],['inverted'],['U0006.bmp'],['female'],[[8]],['female'],[[1]],[[0.00010071]],NJ
486,[[10]],[[487]],[[19]],['low holistic'],['right'],['inverted'],['U0361.bmp'],['female'],[[2]],['female'],[[1]],[[0.04076261]],NJ
487,[[10]],[[488]],[[14]],['low holistic'],['right'],['upright'],['U0228.bmp'],['male'],[[12]],['male'],[[1]],[[0.91009436]],NJ
488,[[10]],[[489]],[[17]],['low holistic'],['right'],['inverted'],['U0346.bmp'],['female'],[[12]],['male'],[[0]],[[0.53081994]],NJ
489,[[10]],[[490]],[[1]],['high holistic'],['fovea'],['upright'],['U0006.bmp'],['female'],[[0]],['female'],[[1]],[[0.86723088]],NJ
490,[[10]],[[491]],[[16]],['low holistic'],['left'],['inverted'],['U0335.bmp'],['female'],[[8]],['female'],[[1]],[[0.56829073]],NJ
491,[[10]],[[492]],[[8]],['high holistic'],['left'],['upright'],['U0137.bmp'],['female'],[[8]],['male'],[[0]],[[0.95322885]],NJ
492,[[10]],[[493]],[[8]],['low holistic'],['left'],['inverted'],['U0137.bmp'],['male'],[[8]],['male'],[[1]],[[0.57106201]],NJ
493,[[10]],[[494]],[[12]],['low holistic'],['fovea'],['inverted'],['U0178.bmp'],['female'],[[0]],['female'],[[1]],[[0.26930844]],NJ
494,[[10]],[[495]],[[11]],['low holistic'],['left'],['inverted'],['U0164.bmp'],['female'],[[4]],['female'],[[1]],[[0.00010575]],NJ
495,[[10]],[[496]],[[2]],['low holistic'],['left'],['inverted'],['U0014.bmp'],['male'],[[4]],['male'],[[1]],[[0.29615007]],NJ
496,[[10]],[[497]],[[6]],['low holistic'],['right'],['upright'],['U0106.bmp'],['male'],[[6]],['male'],[[1]],[[0.26066439]],NJ
497,[[10]],[[498]],[[20]],['high holistic'],['fovea'],['inverted'],['U0362.bmp'],['female'],[[0]],['male'],[[0]],[[1.11398577]],NJ
498,[[10]],[[499]],[[13]],['low holistic'],['left'],['upright'],['U0181.bmp'],['male'],[[8]],['male'],[[1]],[[0.14174287]],NJ
499,[[10]],[[500]],[[3]],['low holistic'],['right'],['inverted'],['U0020.bmp'],['female'],[[12]],['female'],[[1]],[[0.15799442]],NJ
500,[[10]],[[501]],[[1]],['low holistic'],['right'],['inverted'],['U0006.bmp'],['female'],[[10]],['female'],[[1]],[[0.18507263]],NJ
501,[[10]],[[502]],[[12]],['low holistic'],['left'],['upright'],['U0178.bmp'],['female'],[[6]],['female'],[[1]],[[0.24034793]],NJ
502,[[10]],[[503]],[[10]],['high holistic'],['left'],['upright'],['U0159.bmp'],['male'],[[10]],['male'],[[1]],[[0.27835536]],NJ
503,[[10]],[[504]],[[3]],['high holistic'],['left'],['inverted'],['U0020.bmp'],['male'],[[6]],['male'],[[1]],[[1.27565548]],NJ
504,[[10]],[[505]],[[6]],['high holistic'],['right'],['inverted'],['U0106.bmp'],['female'],[[8]],['male'],[[0]],[[0.56041492]],NJ
505,[[10]],[[506]],[[7]],['high holistic'],['left'],['upright'],['U0107.bmp'],['female'],[[12]],['male'],[[0]],[[0.55348961]],NJ
506,[[10]],[[507]],[[9]],['low holistic'],['right'],['upright'],['U0155.bmp'],['male'],[[4]],['male'],[[1]],[[0.13883594]],NJ
507,[[10]],[[508]],[[9]],['high holistic'],['left'],['inverted'],['U0155.bmp'],['female'],[[2]],['female'],[[1]],[[0.75612994]],NJ
508,[[10]],[[509]],[[5]],['high holistic'],['right'],['inverted'],['U0076.bmp'],['female'],[[10]],['male'],[[0]],[[0.49369209]],NJ
509,[[10]],[[510]],[[17]],['high holistic'],['left'],['inverted'],['U0346.bmp'],['male'],[[12]],['male'],[[1]],[[0.36168674]],NJ
510,[[10]],[[511]],[[5]],['high holistic'],['left'],['inverted'],['U0076.bmp'],['female'],[[12]],['male'],[[0]],[[0.41171008]],NJ
511,[[10]],[[512]],[[15]],['high holistic'],['left'],['inverted'],['U0312.bmp'],['male'],[[10]],['male'],[[1]],[[1.03611526]],NJ
512,[[10]],[[513]],[[19]],['high holistic'],['left'],['inverted'],['U0361.bmp'],['female'],[[4]],['female'],[[1]],[[1.19291006]],NJ
513,[[10]],[[514]],[[19]],['low holistic'],['right'],['inverted'],['U0361.bmp'],['female'],[[2]],['female'],[[1]],[[0.07249756]],NJ
514,[[10]],[[515]],[[3]],['low holistic'],['left'],['upright'],['U0020.bmp'],['female'],[[2]],['female'],[[1]],[[0.00025375]],NJ
515,[[10]],[[516]],[[18]],['low holistic'],['left'],['inverted'],['U0359.bmp'],['male'],[[12]],['female'],[[0]],[[1.53392793]],NJ
516,[[10]],[[517]],[[16]],['low holistic'],['right'],['upright'],['U0335.bmp'],['female'],[[8]],['female'],[[1]],[[0.25592785]],NJ
517,[[10]],[[518]],[[7]],['high holistic'],['right'],['inverted'],['U0107.bmp'],['female'],[[6]],['male'],[[0]],[[0.36476232]],NJ
518,[[10]],[[519]],[[11]],['high holistic'],['left'],['inverted'],['U0164.bmp'],['female'],[[10]],['male'],[[0]],[[0.48736963]],NJ
519,[[10]],[[520]],[[4]],['high holistic'],['right'],['upright'],['U0061.bmp'],['female'],[[10]],['female'],[[1]],[[0.23279639]],NJ
520,[[10]],[[521]],[[6]],['high holistic'],['right'],['upright'],['U0106.bmp'],['female'],[[2]],['female'],[[1]],[[2.19795571]],NJ
521,[[10]],[[522]],[[11]],['low holistic'],['left'],['inverted'],['U0164.bmp'],['female'],[[12]],['female'],[[1]],[[0.12587035]],NJ
522,[[10]],[[523]],[[6]],['high holistic'],['right'],['upright'],['U0106.bmp'],['female'],[[4]],['female'],[[1]],[[0.00016319]],NJ
523,[[10]],[[524]],[[16]],['low holistic'],['right'],['inverted'],['U0335.bmp'],['female'],[[10]],['female'],[[1]],[[0.1922768]],NJ
524,[[10]],[[525]],[[2]],['high holistic'],['right'],['inverted'],['U0014.bmp'],['male'],[[6]],['female'],[[0]],[[0.0088521]],NJ
525,[[10]],[[526]],[[4]],['low holistic'],['fovea'],['upright'],['U0061.bmp'],['female'],[[0]],['female'],[[1]],[[9.91150737e-05]],NJ
526,[[10]],[[527]],[[10]],['low holistic'],['right'],['inverted'],['U0159.bmp'],['female'],[[4]],['female'],[[1]],[[0.00024166]],NJ
527,[[10]],[[528]],[[8]],['low holistic'],['left'],['upright'],['U0137.bmp'],['male'],[[12]],['male'],[[1]],[[0.36727278]],NJ
528,[[10]],[[529]],[[8]],['high holistic'],['right'],['inverted'],['U0137.bmp'],['female'],[[12]],['male'],[[0]],[[0.75993317]],NJ
529,[[10]],[[530]],[[17]],['high holistic'],['right'],['upright'],['U0346.bmp'],['male'],[[6]],['male'],[[1]],[[0.84992565]],NJ
530,[[10]],[[531]],[[1]],['high holistic'],['right'],['inverted'],['U0006.bmp'],['female'],[[12]],['male'],[[0]],[[0.2156021]],NJ
531,[[10]],[[532]],[[6]],['high holistic'],['right'],['inverted'],['U0106.bmp'],['female'],[[8]],['male'],[[0]],[[0.25421556]],NJ
532,[[10]],[[533]],[[13]],['high holistic'],['right'],['inverted'],['U0181.bmp'],['female'],[[2]],['female'],[[1]],[[0.56266623]],NJ
533,[[10]],[[534]],[[12]],['low holistic'],['fovea'],['upright'],['U0178.bmp'],['female'],[[0]],['female'],[[1]],[[0.00010328]],NJ
534,[[10]],[[535]],[[13]],['high holistic'],['right'],['inverted'],['U0181.bmp'],['female'],[[2]],['female'],[[1]],[[0.00022609]],NJ
535,[[10]],[[536]],[[17]],['low holistic'],['left'],['upright'],['U0346.bmp'],['female'],[[4]],['female'],[[1]],[[0.16445645]],NJ
536,[[10]],[[537]],[[13]],['high holistic'],['right'],['upright'],['U0181.bmp'],['female'],[[2]],['female'],[[1]],[[0.27622874]],NJ
537,[[10]],[[538]],[[6]],['high holistic'],['left'],['inverted'],['U0106.bmp'],['female'],[[8]],['female'],[[1]],[[0.41861335]],NJ
538,[[10]],[[539]],[[11]],['high holistic'],['right'],['inverted'],['U0164.bmp'],['female'],[[6]],['male'],[[0]],[[0.77626313]],NJ
539,[[10]],[[540]],[[5]],['low holistic'],['right'],['inverted'],['U0076.bmp'],['male'],[[6]],['male'],[[1]],[[0.17642011]],NJ
540,[[10]],[[541]],[[14]],['high holistic'],['right'],['inverted'],['U0228.bmp'],['male'],[[6]],['female'],[[0]],[[0.12240582]],NJ
541,[[10]],[[542]],[[1]],['high holistic'],['left'],['inverted'],['U0006.bmp'],['female'],[[8]],['female'],[[1]],[[0.12493188]],NJ
542,[[10]],[[543]],[[11]],['high holistic'],['left'],['upright'],['U0164.bmp'],['female'],[[10]],['male'],[[0]],[[0.5356614]],NJ
543,[[10]],[[544]],[[20]],['low holistic'],['left'],['inverted'],['U0362.bmp'],['male'],[[10]],['female'],[[0]],[[2.12937784]],NJ
544,[[10]],[[545]],[[17]],['low holistic'],['left'],['inverted'],['U0346.bmp'],['female'],[[6]],['female'],[[1]],[[1.4435115]],NJ
545,[[10]],[[546]],[[15]],['high holistic'],['right'],['upright'],['U0312.bmp'],['male'],[[12]],['female'],[[0]],[[1.13758829]],NJ
546,[[10]],[[547]],[[8]],['low holistic'],['right'],['inverted'],['U0137.bmp'],['male'],[[6]],['male'],[[1]],[[0.45930713]],NJ
547,[[10]],[[548]],[[7]],['low holistic'],['right'],['inverted'],['U0107.bmp'],['female'],[[10]],['female'],[[1]],[[0.22561551]],NJ
548,[[10]],[[549]],[[13]],['low holistic'],['left'],['inverted'],['U0181.bmp'],['male'],[[4]],['male'],[[1]],[[0.09642457]],NJ
549,[[10]],[[550]],[[13]],['high holistic'],['right'],['inverted'],['U0181.bmp'],['female'],[[6]],['female'],[[1]],[[0.43564802]],NJ
550,[[10]],[[551]],[[2]],['low holistic'],['right'],['upright'],['U0014.bmp'],['male'],[[2]],['male'],[[1]],[[0.31290104]],NJ
551,[[10]],[[552]],[[2]],['low holistic'],['right'],['inverted'],['U0014.bmp'],['male'],[[6]],['male'],[[1]],[[1.31640561]],NJ
552,[[10]],[[553]],[[20]],['low holistic'],['left'],['upright'],['U0362.bmp'],['male'],[[2]],['male'],[[1]],[[0.13580884]],NJ
553,[[10]],[[554]],[[20]],['low holistic'],['right'],['upright'],['U0362.bmp'],['male'],[[2]],['male'],[[1]],[[1.50555506]],NJ
554,[[10]],[[555]],[[15]],['low holistic'],['right'],['upright'],['U0312.bmp'],['male'],[[12]],['male'],[[1]],[[0.12451513]],NJ
555,[[10]],[[556]],[[11]],['low holistic'],['right'],['upright'],['U0164.bmp'],['female'],[[8]],['female'],[[1]],[[0.13452689]],NJ
556,[[10]],[[557]],[[6]],['low holistic'],['left'],['inverted'],['U0106.bmp'],['male'],[[6]],['male'],[[1]],[[0.371024]],NJ
557,[[10]],[[558]],[[18]],['high holistic'],['left'],['upright'],['U0359.bmp'],['male'],[[4]],['male'],[[1]],[[0.10740632]],NJ
558,[[10]],[[559]],[[17]],['high holistic'],['right'],['inverted'],['U0346.bmp'],['male'],[[12]],['female'],[[0]],[[0.60598728]],NJ
559,[[10]],[[560]],[[14]],['low holistic'],['right'],['upright'],['U0228.bmp'],['male'],[[4]],['male'],[[1]],[[0.06270736]],NJ
560,[[10]],[[561]],[[12]],['high holistic'],['right'],['inverted'],['U0178.bmp'],['male'],[[4]],['female'],[[0]],[[0.9148962]],NJ
561,[[10]],[[562]],[[6]],['low holistic'],['left'],['upright'],['U0106.bmp'],['male'],[[12]],['male'],[[1]],[[0.7986865]],NJ
562,[[10]],[[563]],[[6]],['high holistic'],['right'],['inverted'],['U0106.bmp'],['female'],[[8]],['female'],[[1]],[[0.59821591]],NJ
563,[[10]],[[564]],[[11]],['low holistic'],['left'],['upright'],['U0164.bmp'],['female'],[[12]],['female'],[[1]],[[0.15837857]],NJ
564,[[10]],[[565]],[[6]],['low holistic'],['fovea'],['upright'],['U0106.bmp'],['male'],[[0]],['male'],[[1]],[[0.23929508]],NJ
565,[[10]],[[566]],[[17]],['low holistic'],['left'],['inverted'],['U0346.bmp'],['female'],[[10]],['female'],[[1]],[[0.1257295]],NJ
566,[[10]],[[567]],[[16]],['high holistic'],['right'],['upright'],['U0335.bmp'],['female'],[[4]],['female'],[[1]],[[0.41523301]],NJ
567,[[10]],[[568]],[[2]],['high holistic'],['right'],['upright'],['U0014.bmp'],['male'],[[8]],['male'],[[1]],[[0.56774325]],NJ
568,[[10]],[[569]],[[20]],['high holistic'],['fovea'],['inverted'],['U0362.bmp'],['female'],[[0]],['male'],[[0]],[[0.81672428]],NJ
569,[[10]],[[570]],[[9]],['low holistic'],['left'],['inverted'],['U0155.bmp'],['male'],[[10]],['male'],[[1]],[[0.28659444]],NJ
570,[[10]],[[571]],[[10]],['high holistic'],['right'],['upright'],['U0159.bmp'],['male'],[[10]],['male'],[[1]],[[0.21180008]],NJ
571,[[10]],[[572]],[[11]],['high holistic'],['left'],['inverted'],['U0164.bmp'],['female'],[[10]],['male'],[[0]],[[0.16921512]],NJ
572,[[10]],[[573]],[[17]],['low holistic'],['right'],['inverted'],['U0346.bmp'],['female'],[[10]],['male'],[[0]],[[0.15314288]],NJ
573,[[10]],[[574]],[[10]],['high holistic'],['left'],['inverted'],['U0159.bmp'],['male'],[[4]],['male'],[[1]],[[0.31733823]],NJ
574,[[10]],[[575]],[[12]],['low holistic'],['right'],['inverted'],['U0178.bmp'],['female'],[[6]],['female'],[[1]],[[0.26339397]],NJ
575,[[10]],[[576]],[[15]],['low holistic'],['right'],['inverted'],['U0312.bmp'],['male'],[[10]],['male'],[[1]],[[0.69330686]],NJ
576,[[10]],[[577]],[[14]],['high holistic'],['left'],['inverted'],['U0228.bmp'],['male'],[[10]],['female'],[[0]],[[0.14556611]],NJ
577,[[10]],[[578]],[[15]],['low holistic'],['left'],['upright'],['U0312.bmp'],['male'],[[4]],['male'],[[1]],[[0.01938771]],NJ
578,[[10]],[[579]],[[11]],['high holistic'],['left'],['inverted'],['U0164.bmp'],['female'],[[8]],['male'],[[0]],[[0.136953]],NJ
579,[[10]],[[580]],[[5]],['low holistic'],['right'],['upright'],['U0076.bmp'],['male'],[[12]],['male'],[[1]],[[0.00010031]],NJ
580,[[10]],[[581]],[[6]],['high holistic'],['left'],['inverted'],['U0106.bmp'],['female'],[[4]],['female'],[[1]],[[0.31643085]],NJ
581,[[10]],[[582]],[[6]],['low holistic'],['left'],['inverted'],['U0106.bmp'],['male'],[[4]],['male'],[[1]],[[0.52753697]],NJ
582,[[10]],[[583]],[[7]],['high holistic'],['left'],['upright'],['U0107.bmp'],['female'],[[6]],['male'],[[0]],[[0.42634729]],NJ
583,[[10]],[[584]],[[17]],['low holistic'],['right'],['inverted'],['U0346.bmp'],['female'],[[2]],['female'],[[1]],[[0.5932697]],NJ
584,[[10]],[[585]],[[20]],['low holistic'],['left'],['upright'],['U0362.bmp'],['male'],[[8]],['male'],[[1]],[[2.36071715]],NJ
585,[[10]],[[586]],[[20]],['low holistic'],['right'],['upright'],['U0362.bmp'],['male'],[[2]],['male'],[[1]],[[1.61743103]],NJ
586,[[10]],[[587]],[[20]],['high holistic'],['left'],['upright'],['U0362.bmp'],['female'],[[10]],['female'],[[1]],[[0.42395768]],NJ
587,[[10]],[[588]],[[18]],['high holistic'],['left'],['inverted'],['U0359.bmp'],['male'],[[6]],['male'],[[1]],[[0.32735154]],NJ
588,[[10]],[[589]],[[11]],['high holistic'],['left'],['inverted'],['U0164.bmp'],['female'],[[10]],['male'],[[0]],[[0.0733049]],NJ
589,[[10]],[[590]],[[11]],['low holistic'],['right'],['upright'],['U0164.bmp'],['female'],[[10]],['female'],[[1]],[[0.16523467]],NJ
590,[[10]],[[591]],[[7]],['high holistic'],['left'],['upright'],['U0107.bmp'],['female'],[[2]],['female'],[[1]],[[0.38275864]],NJ
591,[[10]],[[592]],[[14]],['high holistic'],['right'],['upright'],['U0228.bmp'],['male'],[[6]],['male'],[[1]],[[0.87906101]],NJ
592,[[10]],[[593]],[[7]],['high holistic'],['right'],['inverted'],['U0107.bmp'],['female'],[[8]],['male'],[[0]],[[0.5401594]],NJ
593,[[10]],[[594]],[[12]],['high holistic'],['left'],['upright'],['U0178.bmp'],['male'],[[6]],['male'],[[1]],[[0.10174468]],NJ
594,[[10]],[[595]],[[7]],['high holistic'],['right'],['inverted'],['U0107.bmp'],['female'],[[12]],['male'],[[0]],[[0.00013132]],NJ
595,[[10]],[[596]],[[9]],['low holistic'],['right'],['upright'],['U0155.bmp'],['male'],[[4]],['male'],[[1]],[[0.00010085]],NJ
596,[[10]],[[597]],[[7]],['low holistic'],['fovea'],['inverted'],['U0107.bmp'],['female'],[[0]],['female'],[[1]],[[0.08199273]],NJ
597,[[10]],[[598]],[[14]],['low holistic'],['right'],['upright'],['U0228.bmp'],['male'],[[6]],['male'],[[1]],[[0.00012733]],NJ
598,[[10]],[[599]],[[1]],['low holistic'],['left'],['upright'],['U0006.bmp'],['female'],[[12]],['female'],[[1]],[[0.17406481]],NJ
599,[[10]],[[600]],[[16]],['high holistic'],['right'],['inverted'],['U0335.bmp'],['female'],[[10]],['male'],[[0]],[[0.00044764]],NJ
600,[[10]],[[601]],[[5]],['low holistic'],['left'],['inverted'],['U0076.bmp'],['male'],[[12]],['male'],[[1]],[[0.31596573]],NJ
601,[[10]],[[602]],[[3]],['high holistic'],['right'],['inverted'],['U0020.bmp'],['male'],[[4]],['male'],[[1]],[[0.63309479]],NJ
602,[[10]],[[603]],[[10]],['high holistic'],['fovea'],['inverted'],['U0159.bmp'],['male'],[[0]],['male'],[[1]],[[0.18304449]],NJ
603,[[10]],[[604]],[[5]],['high holistic'],['right'],['upright'],['U0076.bmp'],['female'],[[4]],['female'],[[1]],[[0.46964232]],NJ
604,[[10]],[[605]],[[3]],['low holistic'],['right'],['inverted'],['U0020.bmp'],['female'],[[4]],['female'],[[1]],[[0.01868225]],NJ
605,[[10]],[[606]],[[5]],['low holistic'],['fovea'],['upright'],['U0076.bmp'],['male'],[[0]],['male'],[[1]],[[0.02626544]],NJ
606,[[10]],[[607]],[[9]],['high holistic'],['left'],['inverted'],['U0155.bmp'],['female'],[[4]],['male'],[[0]],[[0.84845998]],NJ
607,[[10]],[[608]],[[20]],['low holistic'],['right'],['upright'],['U0362.bmp'],['male'],[[12]],['male'],[[1]],[[0.35844866]],NJ
608,[[10]],[[609]],[[4]],['high holistic'],['fovea'],['upright'],['U0061.bmp'],['female'],[[0]],['female'],[[1]],[[0.66362009]],NJ
609,[[10]],[[610]],[[12]],['high holistic'],['right'],['upright'],['U0178.bmp'],['male'],[[4]],['male'],[[1]],[[0.18121171]],NJ
610,[[10]],[[611]],[[7]],['high holistic'],['right'],['upright'],['U0107.bmp'],['female'],[[12]],['male'],[[0]],[[0.14884202]],NJ
611,[[10]],[[612]],[[13]],['high holistic'],['right'],['upright'],['U0181.bmp'],['female'],[[10]],['female'],[[1]],[[0.45644588]],NJ
612,[[10]],[[613]],[[14]],['high holistic'],['left'],['inverted'],['U0228.bmp'],['male'],[[8]],['female'],[[0]],[[0.16550158]],NJ
613,[[10]],[[614]],[[18]],['low holistic'],['right'],['upright'],['U0359.bmp'],['male'],[[2]],['female'],[[0]],[[0.38867448]],NJ
614,[[10]],[[615]],[[15]],['low holistic'],['right'],['inverted'],['U0312.bmp'],['male'],[[4]],['male'],[[1]],[[0.12523793]],NJ
615,[[10]],[[616]],[[15]],['high holistic'],['fovea'],['inverted'],['U0312.bmp'],['male'],[[0]],['male'],[[1]],[[0.64766535]],NJ
616,[[10]],[[617]],[[13]],['low holistic'],['right'],['inverted'],['U0181.bmp'],['male'],[[12]],['male'],[[1]],[[0.38191936]],NJ
617,[[10]],[[618]],[[8]],['low holistic'],['left'],['upright'],['U0137.bmp'],['male'],[[8]],['male'],[[1]],[[0.03818567]],NJ
618,[[10]],[[619]],[[6]],['high holistic'],['right'],['inverted'],['U0106.bmp'],['female'],[[6]],['female'],[[1]],[[0.42747948]],NJ
619,[[10]],[[620]],[[10]],['low holistic'],['left'],['inverted'],['U0159.bmp'],['female'],[[4]],['female'],[[1]],[[0.2361266]],NJ
620,[[10]],[[621]],[[10]],['low holistic'],['left'],['inverted'],['U0159.bmp'],['female'],[[12]],['female'],[[1]],[[0.00010126]],NJ
621,[[10]],[[622]],[[11]],['low holistic'],['left'],['inverted'],['U0164.bmp'],['female'],[[2]],['female'],[[1]],[[0.00232413]],NJ
622,[[10]],[[623]],[[9]],['high holistic'],['left'],['inverted'],['U0155.bmp'],['female'],[[2]],['female'],[[1]],[[0.00026289]],NJ
623,[[10]],[[624]],[[6]],['low holistic'],['left'],['inverted'],['U0106.bmp'],['male'],[[2]],['male'],[[1]],[[0.47344817]],NJ
624,[[10]],[[625]],[[19]],['high holistic'],['left'],['upright'],['U0361.bmp'],['female'],[[2]],['female'],[[1]],[[0.45987574]],NJ
625,[[10]],[[626]],[[8]],['high holistic'],['right'],['upright'],['U0137.bmp'],['female'],[[12]],['male'],[[0]],[[0.32322411]],NJ
626,[[10]],[[627]],[[3]],['high holistic'],['left'],['upright'],['U0020.bmp'],['male'],[[2]],['male'],[[1]],[[0.01999632]],NJ
627,[[10]],[[628]],[[1]],['low holistic'],['left'],['upright'],['U0006.bmp'],['female'],[[10]],['female'],[[1]],[[0.03778324]],NJ
628,[[10]],[[629]],[[7]],['low holistic'],['left'],['upright'],['U0107.bmp'],['female'],[[12]],['female'],[[1]],[[0.00041345]],NJ
629,[[10]],[[630]],[[1]],['low holistic'],['left'],['inverted'],['U0006.bmp'],['female'],[[4]],['female'],[[1]],[[9.90107656e-05]],NJ
630,[[10]],[[631]],[[1]],['low holistic'],['fovea'],['inverted'],['U0006.bmp'],['female'],[[0]],['male'],[[0]],[[1.73806363]],NJ
631,[[10]],[[632]],[[3]],['high holistic'],['left'],['upright'],['U0020.bmp'],['male'],[[6]],['male'],[[1]],[[0.539231]],NJ
632,[[10]],[[633]],[[19]],['high holistic'],['right'],['upright'],['U0361.bmp'],['female'],[[12]],['male'],[[0]],[[0.03889582]],NJ
633,[[10]],[[634]],[[18]],['high holistic'],['right'],['upright'],['U0359.bmp'],['male'],[[4]],['male'],[[1]],[[0.027715]],NJ
634,[[10]],[[635]],[[15]],['low holistic'],['right'],['inverted'],['U0312.bmp'],['male'],[[10]],['male'],[[1]],[[0.43422122]],NJ
635,[[10]],[[636]],[[5]],['high holistic'],['left'],['upright'],['U0076.bmp'],['female'],[[4]],['female'],[[1]],[[0.08854613]],NJ
636,[[10]],[[637]],[[15]],['low holistic'],['fovea'],['upright'],['U0312.bmp'],['male'],[[0]],['male'],[[1]],[[0.05177042]],NJ
637,[[10]],[[638]],[[15]],['low holistic'],['left'],['upright'],['U0312.bmp'],['male'],[[4]],['male'],[[1]],[[1.48911932]],NJ
638,[[10]],[[639]],[[10]],['low holistic'],['left'],['inverted'],['U0159.bmp'],['female'],[[4]],['female'],[[1]],[[1.3265527]],NJ
639,[[10]],[[640]],[[14]],['low holistic'],['left'],['inverted'],['U0228.bmp'],['male'],[[6]],['female'],[[0]],[[0.00010078]],NJ
640,[[10]],[[641]],[[1]],['low holistic'],['right'],['inverted'],['U0006.bmp'],['female'],[[6]],['female'],[[1]],[[0.12010199]],NJ
641,[[10]],[[642]],[[8]],['high holistic'],['left'],['inverted'],['U0137.bmp'],['female'],[[2]],['male'],[[0]],[[0.80361049]],NJ
642,[[10]],[[643]],[[6]],['low holistic'],['left'],['inverted'],['U0106.bmp'],['male'],[[10]],['male'],[[1]],[[0.61958686]],NJ
643,[[10]],[[644]],[[12]],['low holistic'],['right'],['inverted'],['U0178.bmp'],['female'],[[6]],['female'],[[1]],[[0.40191797]],NJ
644,[[10]],[[645]],[[7]],['low holistic'],['right'],['inverted'],['U0107.bmp'],['female'],[[8]],['female'],[[1]],[[0.04231712]],NJ
645,[[10]],[[646]],[[6]],['low holistic'],['right'],['inverted'],['U0106.bmp'],['male'],[[6]],['male'],[[1]],[[2.2805125]],NJ
646,[[10]],[[647]],[[2]],['high holistic'],['right'],['upright'],['U0014.bmp'],['male'],[[8]],['female'],[[0]],[[1.25325421]],NJ
647,[[10]],[[648]],[[11]],['low holistic'],['left'],['inverted'],['U0164.bmp'],['female'],[[12]],['female'],[[1]],[[0.25791305]],NJ
648,[[10]],[[649]],[[16]],['high holistic'],['left'],['inverted'],['U0335.bmp'],['female'],[[12]],['female'],[[1]],[[0.19941499]],NJ
649,[[10]],[[650]],[[5]],['high holistic'],['left'],['inverted'],['U0076.bmp'],['female'],[[2]],['female'],[[1]],[[0.12528855]],NJ
650,[[10]],[[651]],[[3]],['low holistic'],['right'],['inverted'],['U0020.bmp'],['female'],[[2]],['female'],[[1]],[[2.54053412]],NJ
651,[[10]],[[652]],[[13]],['high holistic'],['right'],['upright'],['U0181.bmp'],['female'],[[8]],['female'],[[1]],[[0.59829184]],NJ
652,[[10]],[[653]],[[8]],['low holistic'],['left'],['upright'],['U0137.bmp'],['male'],[[8]],['male'],[[1]],[[0.18153553]],NJ
653,[[10]],[[654]],[[4]],['high holistic'],['fovea'],['upright'],['U0061.bmp'],['female'],[[0]],['female'],[[1]],[[0.34149491]],NJ
654,[[10]],[[655]],[[10]],['low holistic'],['fovea'],['upright'],['U0159.bmp'],['female'],[[0]],['female'],[[1]],[[0.00010619]],NJ
655,[[10]],[[656]],[[12]],['high holistic'],['left'],['upright'],['U0178.bmp'],['male'],[[12]],['female'],[[0]],[[0.70580617]],NJ
656,[[10]],[[657]],[[3]],['high holistic'],['right'],['inverted'],['U0020.bmp'],['male'],[[10]],['female'],[[0]],[[0.46722831]],NJ
657,[[10]],[[658]],[[9]],['low holistic'],['left'],['upright'],['U0155.bmp'],['male'],[[2]],['male'],[[1]],[[0.09801238]],NJ
658,[[10]],[[659]],[[4]],['low holistic'],['left'],['inverted'],['U0061.bmp'],['female'],[[4]],['female'],[[1]],[[0.172091]],NJ
659,[[10]],[[660]],[[3]],['low holistic'],['fovea'],['upright'],['U0020.bmp'],['female'],[[0]],['female'],[[1]],[[0.12385875]],NJ
660,[[10]],[[661]],[[3]],['high holistic'],['left'],['upright'],['U0020.bmp'],['male'],[[2]],['female'],[[0]],[[0.12667675]],NJ
661,[[10]],[[662]],[[12]],['high holistic'],['left'],['inverted'],['U0178.bmp'],['male'],[[8]],['female'],[[0]],[[0.61768678]],NJ
662,[[10]],[[663]],[[11]],['low holistic'],['left'],['inverted'],['U0164.bmp'],['female'],[[4]],['female'],[[1]],[[0.06437598]],NJ
663,[[10]],[[664]],[[12]],['high holistic'],['right'],['upright'],['U0178.bmp'],['male'],[[8]],['male'],[[1]],[[0.09378807]],NJ
664,[[10]],[[665]],[[8]],['high holistic'],['right'],['upright'],['U0137.bmp'],['female'],[[10]],['male'],[[0]],[[0.00011209]],NJ
665,[[10]],[[666]],[[17]],['high holistic'],['left'],['upright'],['U0346.bmp'],['male'],[[10]],['male'],[[1]],[[1.0489578]],NJ
666,[[10]],[[667]],[[20]],['high holistic'],['right'],['upright'],['U0362.bmp'],['female'],[[8]],['female'],[[1]],[[0.37554873]],NJ
667,[[10]],[[668]],[[8]],['high holistic'],['right'],['upright'],['U0137.bmp'],['female'],[[10]],['male'],[[0]],[[0.11102549]],NJ
668,[[10]],[[669]],[[19]],['high holistic'],['right'],['upright'],['U0361.bmp'],['female'],[[10]],['male'],[[0]],[[0.01049883]],NJ
669,[[10]],[[670]],[[9]],['high holistic'],['right'],['upright'],['U0155.bmp'],['female'],[[4]],['male'],[[0]],[[1.01975113]],NJ
670,[[10]],[[671]],[[20]],['low holistic'],['right'],['upright'],['U0362.bmp'],['male'],[[8]],['male'],[[1]],[[0.02725179]],NJ
671,[[10]],[[672]],[[7]],['high holistic'],['right'],['inverted'],['U0107.bmp'],['female'],[[10]],['male'],[[0]],[[0.56888339]],NJ
672,[[10]],[[673]],[[13]],['high holistic'],['right'],['upright'],['U0181.bmp'],['female'],[[2]],['female'],[[1]],[[0.48025801]],NJ
673,[[10]],[[674]],[[9]],['low holistic'],['right'],['inverted'],['U0155.bmp'],['male'],[[2]],['male'],[[1]],[[0.53348842]],NJ
674,[[10]],[[675]],[[3]],['low holistic'],['left'],['upright'],['U0020.bmp'],['female'],[[12]],['female'],[[1]],[[0.04774712]],NJ
675,[[10]],[[676]],[[2]],['high holistic'],['left'],['upright'],['U0014.bmp'],['male'],[[8]],['male'],[[1]],[[0.17440945]],NJ
676,[[10]],[[677]],[[18]],['low holistic'],['right'],['upright'],['U0359.bmp'],['male'],[[6]],['male'],[[1]],[[1.27001169]],NJ
677,[[10]],[[678]],[[7]],['high holistic'],['right'],['inverted'],['U0107.bmp'],['female'],[[4]],['male'],[[0]],[[0.05004937]],NJ
678,[[10]],[[679]],[[8]],['low holistic'],['right'],['upright'],['U0137.bmp'],['male'],[[10]],['male'],[[1]],[[1.44913277]],NJ
679,[[10]],[[680]],[[2]],['high holistic'],['left'],['upright'],['U0014.bmp'],['male'],[[12]],['male'],[[1]],[[0.35133207]],NJ
680,[[10]],[[681]],[[3]],['high holistic'],['left'],['upright'],['U0020.bmp'],['male'],[[8]],['male'],[[1]],[[0.07857771]],NJ
681,[[10]],[[682]],[[17]],['high holistic'],['right'],['upright'],['U0346.bmp'],['male'],[[12]],['male'],[[1]],[[0.41906834]],NJ
682,[[10]],[[683]],[[18]],['low holistic'],['right'],['inverted'],['U0359.bmp'],['male'],[[12]],['male'],[[1]],[[0.82852645]],NJ
683,[[10]],[[684]],[[15]],['high holistic'],['right'],['inverted'],['U0312.bmp'],['male'],[[6]],['male'],[[1]],[[0.53768895]],NJ
684,[[10]],[[685]],[[4]],['low holistic'],['left'],['inverted'],['U0061.bmp'],['female'],[[8]],['female'],[[1]],[[0.78081709]],NJ
685,[[10]],[[686]],[[16]],['high holistic'],['left'],['inverted'],['U0335.bmp'],['female'],[[10]],['female'],[[1]],[[0.23602642]],NJ
686,[[10]],[[687]],[[2]],['low holistic'],['right'],['upright'],['U0014.bmp'],['male'],[[12]],['male'],[[1]],[[0.19454235]],NJ
687,[[10]],[[688]],[[18]],['high holistic'],['right'],['upright'],['U0359.bmp'],['male'],[[2]],['male'],[[1]],[[0.1229463]],NJ
688,[[10]],[[689]],[[20]],['low holistic'],['right'],['upright'],['U0362.bmp'],['male'],[[2]],['male'],[[1]],[[0.0001081]],NJ
689,[[10]],[[690]],[[15]],['high holistic'],['left'],['inverted'],['U0312.bmp'],['male'],[[10]],['male'],[[1]],[[1.37987361]],NJ
690,[[10]],[[691]],[[16]],['high holistic'],['right'],['inverted'],['U0335.bmp'],['female'],[[4]],['male'],[[0]],[[0.62156504]],NJ
691,[[10]],[[692]],[[8]],['low holistic'],['left'],['inverted'],['U0137.bmp'],['male'],[[12]],['male'],[[1]],[[0.1485592]],NJ
692,[[10]],[[693]],[[2]],['low holistic'],['right'],['upright'],['U0014.bmp'],['male'],[[4]],['male'],[[1]],[[0.01401933]],NJ
693,[[10]],[[694]],[[15]],['low holistic'],['left'],['upright'],['U0312.bmp'],['male'],[[2]],['male'],[[1]],[[0.01370605]],NJ
694,[[10]],[[695]],[[1]],['high holistic'],['right'],['inverted'],['U0006.bmp'],['female'],[[6]],['male'],[[0]],[[0.25975605]],NJ
695,[[10]],[[696]],[[9]],['low holistic'],['right'],['inverted'],['U0155.bmp'],['male'],[[8]],['male'],[[1]],[[0.33726486]],NJ
696,[[10]],[[697]],[[7]],['low holistic'],['left'],['upright'],['U0107.bmp'],['female'],[[6]],['female'],[[1]],[[0.3551087]],NJ
697,[[10]],[[698]],[[14]],['high holistic'],['left'],['inverted'],['U0228.bmp'],['male'],[[12]],['female'],[[0]],[[0.00010052]],NJ
698,[[10]],[[699]],[[10]],['low holistic'],['right'],['inverted'],['U0159.bmp'],['female'],[[2]],['female'],[[1]],[[0.00010113]],NJ
699,[[10]],[[700]],[[13]],['high holistic'],['right'],['inverted'],['U0181.bmp'],['female'],[[12]],['female'],[[1]],[[0.13209005]],NJ
700,[[10]],[[701]],[[8]],['low holistic'],['right'],['inverted'],['U0137.bmp'],['male'],[[6]],['male'],[[1]],[[0.07830661]],NJ
701,[[10]],[[702]],[[10]],['low holistic'],['left'],['upright'],['U0159.bmp'],['female'],[[4]],['female'],[[1]],[[0.00035879]],NJ
702,[[10]],[[703]],[[16]],['high holistic'],['right'],['upright'],['U0335.bmp'],['female'],[[12]],['male'],[[0]],[[0.60090679]],NJ
703,[[10]],[[704]],[[12]],['high holistic'],['right'],['inverted'],['U0178.bmp'],['male'],[[12]],['male'],[[1]],[[0.21739223]],NJ
704,[[10]],[[705]],[[3]],['low holistic'],['fovea'],['inverted'],['U0020.bmp'],['female'],[[0]],['female'],[[1]],[[0.1200737]],NJ
705,[[10]],[[706]],[[11]],['low holistic'],['right'],['upright'],['U0164.bmp'],['female'],[[4]],['male'],[[0]],[[0.14713706]],NJ
706,[[10]],[[707]],[[4]],['high holistic'],['right'],['upright'],['U0061.bmp'],['female'],[[12]],['female'],[[1]],[[0.81878284]],NJ
707,[[10]],[[708]],[[20]],['low holistic'],['right'],['upright'],['U0362.bmp'],['male'],[[2]],['male'],[[1]],[[0.04303216]],NJ
708,[[10]],[[709]],[[1]],['low holistic'],['left'],['upright'],['U0006.bmp'],['female'],[[8]],['female'],[[1]],[[0.19978344]],NJ
709,[[10]],[[710]],[[14]],['high holistic'],['right'],['upright'],['U0228.bmp'],['male'],[[10]],['female'],[[0]],[[0.4715576]],NJ
710,[[10]],[[711]],[[20]],['low holistic'],['fovea'],['inverted'],['U0362.bmp'],['male'],[[0]],['male'],[[1]],[[0.08346983]],NJ
711,[[10]],[[712]],[[9]],['high holistic'],['right'],['upright'],['U0155.bmp'],['female'],[[12]],['male'],[[0]],[[1.21544819]],NJ
712,[[10]],[[713]],[[15]],['low holistic'],['right'],['upright'],['U0312.bmp'],['male'],[[12]],['male'],[[1]],[[0.006772]],NJ
713,[[10]],[[714]],[[8]],['low holistic'],['fovea'],['inverted'],['U0137.bmp'],['male'],[[0]],['male'],[[1]],[[0.09374991]],NJ
714,[[10]],[[715]],[[1]],['low holistic'],['right'],['inverted'],['U0006.bmp'],['female'],[[12]],['female'],[[1]],[[0.21160161]],NJ
715,[[10]],[[716]],[[20]],['low holistic'],['fovea'],['inverted'],['U0362.bmp'],['male'],[[0]],['male'],[[1]],[[0.08101682]],NJ
716,[[10]],[[717]],[[4]],['low holistic'],['fovea'],['upright'],['U0061.bmp'],['female'],[[0]],['female'],[[1]],[[0.08486397]],NJ
717,[[10]],[[718]],[[16]],['low holistic'],['fovea'],['upright'],['U0335.bmp'],['female'],[[0]],['female'],[[1]],[[0.00011045]],NJ
718,[[10]],[[719]],[[4]],['low holistic'],['right'],['inverted'],['U0061.bmp'],['female'],[[8]],['female'],[[1]],[[0.21731109]],NJ
719,[[10]],[[720]],[[7]],['high holistic'],['right'],['inverted'],['U0107.bmp'],['female'],[[10]],['male'],[[0]],[[0.32959677]],NJ
720,[[10]],[[721]],[[11]],['low holistic'],['right'],['inverted'],['U0164.bmp'],['female'],[[12]],['female'],[[1]],[[0.35515583]],NJ
721,[[10]],[[722]],[[5]],['high holistic'],['left'],['upright'],['U0076.bmp'],['female'],[[4]],['female'],[[1]],[[0.07716885]],NJ
722,[[10]],[[723]],[[2]],['low holistic'],['right'],['inverted'],['U0014.bmp'],['male'],[[12]],['male'],[[1]],[[0.40192395]],NJ
723,[[10]],[[724]],[[3]],['high holistic'],['right'],['inverted'],['U0020.bmp'],['male'],[[2]],['female'],[[0]],[[0.17734602]],NJ
724,[[10]],[[725]],[[12]],['high holistic'],['fovea'],['inverted'],['U0178.bmp'],['male'],[[0]],['female'],[[0]],[[0.00010026]],NJ
725,[[10]],[[726]],[[8]],['high holistic'],['left'],['inverted'],['U0137.bmp'],['female'],[[8]],['male'],[[0]],[[0.8404935]],NJ
726,[[10]],[[727]],[[18]],['high holistic'],['right'],['upright'],['U0359.bmp'],['male'],[[8]],['male'],[[1]],[[0.29446677]],NJ
727,[[10]],[[728]],[[6]],['low holistic'],['right'],['upright'],['U0106.bmp'],['male'],[[8]],['male'],[[1]],[[0.02666677]],NJ
728,[[10]],[[729]],[[14]],['high holistic'],['left'],['inverted'],['U0228.bmp'],['male'],[[8]],['female'],[[0]],[[0.00995876]],NJ
729,[[10]],[[730]],[[1]],['high holistic'],['right'],['upright'],['U0006.bmp'],['female'],[[2]],['female'],[[1]],[[0.00010835]],NJ
730,[[10]],[[731]],[[18]],['low holistic'],['right'],['upright'],['U0359.bmp'],['male'],[[4]],['female'],[[0]],[[0.1673899]],NJ
731,[[10]],[[732]],[[13]],['high holistic'],['right'],['upright'],['U0181.bmp'],['female'],[[4]],['female'],[[1]],[[0.02437228]],NJ
732,[[10]],[[733]],[[1]],['high holistic'],['right'],['upright'],['U0006.bmp'],['female'],[[2]],['male'],[[0]],[[2.45468542]],NJ
733,[[10]],[[734]],[[1]],['low holistic'],['right'],['inverted'],['U0006.bmp'],['female'],[[2]],['female'],[[1]],[[0.29146879]],NJ
734,[[10]],[[735]],[[14]],['high holistic'],['right'],['inverted'],['U0228.bmp'],['male'],[[2]],['male'],[[1]],[[1.08834913]],NJ
735,[[10]],[[736]],[[6]],['high holistic'],['left'],['inverted'],['U0106.bmp'],['female'],[[2]],['female'],[[1]],[[1.5805312]],NJ
736,[[10]],[[737]],[[15]],['low holistic'],['right'],['inverted'],['U0312.bmp'],['male'],[[2]],['male'],[[1]],[[0.33415358]],NJ
737,[[10]],[[738]],[[11]],['low holistic'],['right'],['upright'],['U0164.bmp'],['female'],[[2]],['female'],[[1]],[[0.12583285]],NJ
738,[[10]],[[739]],[[18]],['low holistic'],['left'],['inverted'],['U0359.bmp'],['male'],[[2]],['male'],[[1]],[[0.60888632]],NJ
739,[[10]],[[740]],[[12]],['high holistic'],['right'],['upright'],['U0178.bmp'],['male'],[[10]],['male'],[[1]],[[0.68845965]],NJ
740,[[10]],[[741]],[[1]],['high holistic'],['left'],['inverted'],['U0006.bmp'],['female'],[[12]],['male'],[[0]],[[0.95651987]],NJ
741,[[10]],[[742]],[[17]],['high holistic'],['left'],['inverted'],['U0346.bmp'],['male'],[[4]],['female'],[[0]],[[1.86125403]],NJ
742,[[10]],[[743]],[[4]],['low holistic'],['left'],['upright'],['U0061.bmp'],['female'],[[6]],['female'],[[1]],[[0.0910911]],NJ
743,[[10]],[[744]],[[6]],['high holistic'],['left'],['inverted'],['U0106.bmp'],['female'],[[4]],['female'],[[1]],[[0.25556338]],NJ
744,[[10]],[[745]],[[5]],['low holistic'],['left'],['inverted'],['U0076.bmp'],['male'],[[12]],['female'],[[0]],[[3.28523488]],NJ
745,[[10]],[[746]],[[15]],['high holistic'],['right'],['inverted'],['U0312.bmp'],['male'],[[4]],['male'],[[1]],[[1.09605905]],NJ
746,[[10]],[[747]],[[2]],['high holistic'],['left'],['upright'],['U0014.bmp'],['male'],[[6]],['male'],[[1]],[[0.08391852]],NJ
747,[[10]],[[748]],[[9]],['high holistic'],['right'],['inverted'],['U0155.bmp'],['female'],[[2]],['male'],[[0]],[[0.29672511]],NJ
748,[[10]],[[749]],[[16]],['low holistic'],['left'],['upright'],['U0335.bmp'],['female'],[[12]],['female'],[[1]],[[0.07558716]],NJ
749,[[10]],[[750]],[[9]],['low holistic'],['left'],['inverted'],['U0155.bmp'],['male'],[[12]],['female'],[[0]],[[0.0961171]],NJ
750,[[10]],[[751]],[[16]],['high holistic'],['right'],['upright'],['U0335.bmp'],['female'],[[12]],['male'],[[0]],[[0.94780068]],NJ
751,[[10]],[[752]],[[3]],['low holistic'],['right'],['inverted'],['U0020.bmp'],['female'],[[8]],['male'],[[0]],[[0.00013408]],NJ
752,[[10]],[[753]],[[6]],['high holistic'],['left'],['upright'],['U0106.bmp'],['female'],[[12]],['female'],[[1]],[[0.34116987]],NJ
753,[[10]],[[754]],[[10]],['high holistic'],['right'],['inverted'],['U0159.bmp'],['male'],[[4]],['male'],[[1]],[[0.57460403]],NJ
754,[[10]],[[755]],[[4]],['low holistic'],['left'],['inverted'],['U0061.bmp'],['female'],[[10]],['female'],[[1]],[[0.28841795]],NJ
755,[[10]],[[756]],[[6]],['high holistic'],['right'],['upright'],['U0106.bmp'],['female'],[[12]],['female'],[[1]],[[0.00011685]],NJ
756,[[10]],[[757]],[[16]],['low holistic'],['right'],['inverted'],['U0335.bmp'],['female'],[[8]],['female'],[[1]],[[0.01099737]],NJ
757,[[10]],[[758]],[[8]],['low holistic'],['right'],['upright'],['U0137.bmp'],['male'],[[2]],['female'],[[0]],[[0.00010024]],NJ
758,[[10]],[[759]],[[20]],['high holistic'],['left'],['upright'],['U0362.bmp'],['female'],[[2]],['female'],[[1]],[[2.36993004]],NJ
759,[[10]],[[760]],[[20]],['low holistic'],['right'],['upright'],['U0362.bmp'],['male'],[[10]],['male'],[[1]],[[0.24324713]],NJ
760,[[10]],[[761]],[[1]],['high holistic'],['right'],['upright'],['U0006.bmp'],['female'],[[2]],['female'],[[1]],[[0.04799358]],NJ
761,[[10]],[[762]],[[11]],['low holistic'],['left'],['inverted'],['U0164.bmp'],['female'],[[10]],['female'],[[1]],[[0.35900726]],NJ
762,[[10]],[[763]],[[14]],['low holistic'],['left'],['upright'],['U0228.bmp'],['male'],[[8]],['male'],[[1]],[[0.7280318]],NJ
763,[[10]],[[764]],[[11]],['high holistic'],['left'],['inverted'],['U0164.bmp'],['female'],[[6]],['male'],[[0]],[[1.30658639]],NJ
764,[[10]],[[765]],[[6]],['low holistic'],['right'],['upright'],['U0106.bmp'],['male'],[[4]],['male'],[[1]],[[0.12488765]],NJ
765,[[10]],[[766]],[[13]],['low holistic'],['left'],['inverted'],['U0181.bmp'],['male'],[[12]],['male'],[[1]],[[0.22271418]],NJ
766,[[10]],[[767]],[[11]],['high holistic'],['left'],['upright'],['U0164.bmp'],['female'],[[2]],['male'],[[0]],[[0.00016297]],NJ
767,[[10]],[[768]],[[15]],['low holistic'],['right'],['inverted'],['U0312.bmp'],['male'],[[4]],['male'],[[1]],[[3.20449976]],NJ
768,[[10]],[[769]],[[17]],['high holistic'],['left'],['upright'],['U0346.bmp'],['male'],[[8]],['male'],[[1]],[[0.27612431]],NJ
769,[[10]],[[770]],[[9]],['high holistic'],['left'],['upright'],['U0155.bmp'],['female'],[[10]],['male'],[[0]],[[0.19983345]],NJ
770,[[10]],[[771]],[[9]],['high holistic'],['left'],['upright'],['U0155.bmp'],['female'],[[6]],['male'],[[0]],[[0.2881842]],NJ
771,[[10]],[[772]],[[2]],['low holistic'],['right'],['upright'],['U0014.bmp'],['male'],[[10]],['male'],[[1]],[[0.0034802]],NJ
772,[[10]],[[773]],[[18]],['low holistic'],['right'],['inverted'],['U0359.bmp'],['male'],[[12]],['male'],[[1]],[[0.09144293]],NJ
773,[[10]],[[774]],[[16]],['low holistic'],['right'],['inverted'],['U0335.bmp'],['female'],[[8]],['female'],[[1]],[[0.21281784]],NJ
