,SUBID,TRIAL,MOONEYID,MOONEYCATEGORY,LOC,COND,MOONEY_NAME,MOONEY_GENDER,ECCENTRICITY,RESPONSE,ACCURACY,RT,SUBINIT
0,[[7]],[[1]],[[6]],['high holistic'],['right'],['inverted'],['U0106.bmp'],['female'],[[6]],['female'],[[1]],[[0.3995536]],SC
1,[[7]],[[2]],[[5]],['low holistic'],['right'],['upright'],['U0076.bmp'],['male'],[[4]],['female'],[[0]],[[0.69506615]],SC
2,[[7]],[[3]],[[20]],['high holistic'],['right'],['upright'],['U0362.bmp'],['female'],[[8]],['female'],[[1]],[[0.2924974]],SC
3,[[7]],[[4]],[[8]],['low holistic'],['left'],['inverted'],['U0137.bmp'],['male'],[[10]],['female'],[[0]],[[0.55996582]],SC
4,[[7]],[[5]],[[3]],['low holistic'],['right'],['inverted'],['U0020.bmp'],['female'],[[10]],['female'],[[1]],[[0.40273914]],SC
5,[[7]],[[6]],[[1]],['low holistic'],['right'],['inverted'],['U0006.bmp'],['female'],[[4]],['female'],[[1]],[[0.17783547]],SC
6,[[7]],[[7]],[[1]],['high holistic'],['right'],['inverted'],['U0006.bmp'],['female'],[[2]],['female'],[[1]],[[0.2761406]],SC
7,[[7]],[[8]],[[18]],['high holistic'],['left'],['inverted'],['U0359.bmp'],['male'],[[2]],['female'],[[0]],[[0.44128594]],SC
8,[[7]],[[9]],[[17]],['high holistic'],['left'],['inverted'],['U0346.bmp'],['male'],[[8]],['female'],[[0]],[[0.39105495]],SC
9,[[7]],[[10]],[[5]],['high holistic'],['left'],['inverted'],['U0076.bmp'],['female'],[[10]],['female'],[[1]],[[0.2550002]],SC
10,[[7]],[[11]],[[4]],['high holistic'],['right'],['upright'],['U0061.bmp'],['female'],[[2]],['female'],[[1]],[[0.38182743]],SC
11,[[7]],[[12]],[[6]],['high holistic'],['right'],['inverted'],['U0106.bmp'],['female'],[[2]],['female'],[[1]],[[0.27737244]],SC
12,[[7]],[[13]],[[1]],['low holistic'],['left'],['inverted'],['U0006.bmp'],['female'],[[2]],['female'],[[1]],[[0.18735163]],SC
13,[[7]],[[14]],[[5]],['high holistic'],['left'],['inverted'],['U0076.bmp'],['female'],[[10]],['female'],[[1]],[[0.61296406]],SC
14,[[7]],[[15]],[[20]],['high holistic'],['right'],['upright'],['U0362.bmp'],['female'],[[6]],['female'],[[1]],[[0.26001257]],SC
15,[[7]],[[16]],[[14]],['high holistic'],['right'],['inverted'],['U0228.bmp'],['male'],[[12]],['female'],[[0]],[[0.25723203]],SC
16,[[7]],[[17]],[[13]],['high holistic'],['right'],['upright'],['U0181.bmp'],['female'],[[6]],['male'],[[0]],[[0.44030081]],SC
17,[[7]],[[18]],[[15]],['high holistic'],['left'],['inverted'],['U0312.bmp'],['male'],[[12]],['male'],[[1]],[[0.64469377]],SC
18,[[7]],[[19]],[[8]],['high holistic'],['right'],['upright'],['U0137.bmp'],['female'],[[8]],['female'],[[1]],[[0.16452265]],SC
19,[[7]],[[20]],[[4]],['low holistic'],['left'],['inverted'],['U0061.bmp'],['female'],[[10]],['female'],[[1]],[[0.42858954]],SC
20,[[7]],[[21]],[[20]],['high holistic'],['right'],['upright'],['U0362.bmp'],['female'],[[12]],['female'],[[1]],[[0.52459061]],SC
21,[[7]],[[22]],[[2]],['high holistic'],['left'],['inverted'],['U0014.bmp'],['male'],[[4]],['female'],[[0]],[[0.38504214]],SC
22,[[7]],[[23]],[[3]],['low holistic'],['left'],['upright'],['U0020.bmp'],['female'],[[4]],['male'],[[0]],[[0.39350379]],SC
23,[[7]],[[24]],[[15]],['low holistic'],['right'],['upright'],['U0312.bmp'],['male'],[[12]],['male'],[[1]],[[0.08740775]],SC
24,[[7]],[[25]],[[10]],['low holistic'],['right'],['upright'],['U0159.bmp'],['female'],[[10]],['female'],[[1]],[[0.09340069]],SC
25,[[7]],[[26]],[[20]],['high holistic'],['left'],['inverted'],['U0362.bmp'],['female'],[[8]],['female'],[[1]],[[0.41770165]],SC
26,[[7]],[[27]],[[15]],['low holistic'],['fovea'],['inverted'],['U0312.bmp'],['male'],[[0]],['male'],[[1]],[[0.03571124]],SC
27,[[7]],[[28]],[[8]],['low holistic'],['left'],['inverted'],['U0137.bmp'],['male'],[[2]],['male'],[[1]],[[0.02381331]],SC
28,[[7]],[[29]],[[13]],['low holistic'],['left'],['inverted'],['U0181.bmp'],['male'],[[6]],['male'],[[1]],[[0.07172579]],SC
29,[[7]],[[30]],[[20]],['high holistic'],['left'],['inverted'],['U0362.bmp'],['female'],[[2]],['female'],[[1]],[[0.27767894]],SC
30,[[7]],[[31]],[[14]],['high holistic'],['left'],['inverted'],['U0228.bmp'],['male'],[[2]],['female'],[[0]],[[0.13048771]],SC
31,[[7]],[[32]],[[3]],['high holistic'],['left'],['inverted'],['U0020.bmp'],['male'],[[10]],['female'],[[0]],[[0.07745403]],SC
32,[[7]],[[33]],[[2]],['high holistic'],['right'],['inverted'],['U0014.bmp'],['male'],[[8]],['female'],[[0]],[[0.56201131]],SC
33,[[7]],[[34]],[[9]],['high holistic'],['left'],['upright'],['U0155.bmp'],['female'],[[12]],['female'],[[1]],[[0.52404725]],SC
34,[[7]],[[35]],[[7]],['high holistic'],['right'],['inverted'],['U0107.bmp'],['female'],[[6]],['female'],[[1]],[[0.31847407]],SC
35,[[7]],[[36]],[[1]],['high holistic'],['left'],['inverted'],['U0006.bmp'],['female'],[[8]],['male'],[[0]],[[0.1471606]],SC
36,[[7]],[[37]],[[4]],['low holistic'],['right'],['inverted'],['U0061.bmp'],['female'],[[12]],['female'],[[1]],[[0.33157056]],SC
37,[[7]],[[38]],[[16]],['high holistic'],['right'],['inverted'],['U0335.bmp'],['female'],[[2]],['male'],[[0]],[[0.3434445]],SC
38,[[7]],[[39]],[[20]],['low holistic'],['left'],['upright'],['U0362.bmp'],['male'],[[8]],['male'],[[1]],[[0.61030616]],SC
39,[[7]],[[40]],[[15]],['low holistic'],['right'],['upright'],['U0312.bmp'],['male'],[[12]],['male'],[[1]],[[0.05740763]],SC
40,[[7]],[[41]],[[8]],['low holistic'],['right'],['upright'],['U0137.bmp'],['male'],[[8]],['male'],[[1]],[[0.00804957]],SC
41,[[7]],[[42]],[[8]],['high holistic'],['left'],['inverted'],['U0137.bmp'],['female'],[[10]],['female'],[[1]],[[0.60543537]],SC
42,[[7]],[[43]],[[4]],['low holistic'],['fovea'],['upright'],['U0061.bmp'],['female'],[[0]],['female'],[[1]],[[0.06199681]],SC
43,[[7]],[[44]],[[15]],['high holistic'],['left'],['inverted'],['U0312.bmp'],['male'],[[6]],['male'],[[1]],[[0.53927088]],SC
44,[[7]],[[45]],[[11]],['high holistic'],['right'],['upright'],['U0164.bmp'],['female'],[[12]],['female'],[[1]],[[0.43892791]],SC
45,[[7]],[[46]],[[2]],['low holistic'],['right'],['upright'],['U0014.bmp'],['male'],[[4]],['male'],[[1]],[[0.41992514]],SC
46,[[7]],[[47]],[[7]],['low holistic'],['right'],['inverted'],['U0107.bmp'],['female'],[[4]],['male'],[[0]],[[0.62093208]],SC
47,[[7]],[[48]],[[9]],['low holistic'],['right'],['inverted'],['U0155.bmp'],['male'],[[8]],['male'],[[1]],[[0.16445599]],SC
48,[[7]],[[49]],[[9]],['high holistic'],['right'],['inverted'],['U0155.bmp'],['female'],[[6]],['male'],[[0]],[[0.33356507]],SC
49,[[7]],[[50]],[[12]],['low holistic'],['left'],['inverted'],['U0178.bmp'],['female'],[[10]],['female'],[[1]],[[0.34257694]],SC
50,[[7]],[[51]],[[11]],['low holistic'],['right'],['inverted'],['U0164.bmp'],['female'],[[10]],['female'],[[1]],[[0.15450282]],SC
51,[[7]],[[52]],[[9]],['high holistic'],['left'],['upright'],['U0155.bmp'],['female'],[[2]],['male'],[[0]],[[0.46729629]],SC
52,[[7]],[[53]],[[15]],['low holistic'],['right'],['upright'],['U0312.bmp'],['male'],[[6]],['male'],[[1]],[[0.00034291]],SC
53,[[7]],[[54]],[[9]],['high holistic'],['right'],['upright'],['U0155.bmp'],['female'],[[2]],['female'],[[1]],[[0.56153902]],SC
54,[[7]],[[55]],[[8]],['low holistic'],['left'],['upright'],['U0137.bmp'],['male'],[[2]],['male'],[[1]],[[0.07482582]],SC
55,[[7]],[[56]],[[18]],['low holistic'],['right'],['upright'],['U0359.bmp'],['male'],[[8]],['male'],[[1]],[[0.65528327]],SC
56,[[7]],[[57]],[[4]],['low holistic'],['left'],['inverted'],['U0061.bmp'],['female'],[[10]],['male'],[[0]],[[0.1823726]],SC
57,[[7]],[[58]],[[10]],['high holistic'],['right'],['inverted'],['U0159.bmp'],['male'],[[6]],['male'],[[1]],[[0.2244047]],SC
58,[[7]],[[59]],[[9]],['low holistic'],['right'],['upright'],['U0155.bmp'],['male'],[[2]],['female'],[[0]],[[0.27895628]],SC
59,[[7]],[[60]],[[20]],['low holistic'],['fovea'],['upright'],['U0362.bmp'],['male'],[[0]],['male'],[[1]],[[0.06712204]],SC
60,[[7]],[[61]],[[19]],['low holistic'],['right'],['inverted'],['U0361.bmp'],['female'],[[6]],['female'],[[1]],[[0.86471783]],SC
61,[[7]],[[62]],[[17]],['low holistic'],['left'],['inverted'],['U0346.bmp'],['female'],[[10]],['male'],[[0]],[[0.79676437]],SC
62,[[7]],[[63]],[[16]],['low holistic'],['left'],['upright'],['U0335.bmp'],['female'],[[12]],['female'],[[1]],[[1.35074827]],SC
63,[[7]],[[64]],[[10]],['low holistic'],['right'],['inverted'],['U0159.bmp'],['female'],[[12]],['female'],[[1]],[[0.35305714]],SC
64,[[7]],[[65]],[[5]],['low holistic'],['fovea'],['inverted'],['U0076.bmp'],['male'],[[0]],['male'],[[1]],[[1.67463578]],SC
65,[[7]],[[66]],[[14]],['high holistic'],['left'],['inverted'],['U0228.bmp'],['male'],[[10]],['male'],[[1]],[[0.13438424]],SC
66,[[7]],[[67]],[[8]],['low holistic'],['left'],['inverted'],['U0137.bmp'],['male'],[[10]],['male'],[[1]],[[0.02579997]],SC
67,[[7]],[[68]],[[9]],['high holistic'],['right'],['upright'],['U0155.bmp'],['female'],[[2]],['male'],[[0]],[[0.00012609]],SC
68,[[7]],[[69]],[[9]],['high holistic'],['right'],['inverted'],['U0155.bmp'],['female'],[[2]],['male'],[[0]],[[0.22453035]],SC
69,[[7]],[[70]],[[19]],['low holistic'],['fovea'],['upright'],['U0361.bmp'],['female'],[[0]],['female'],[[1]],[[0.00012076]],SC
70,[[7]],[[71]],[[17]],['high holistic'],['fovea'],['upright'],['U0346.bmp'],['male'],[[0]],['male'],[[1]],[[0.08689943]],SC
71,[[7]],[[72]],[[16]],['high holistic'],['left'],['upright'],['U0335.bmp'],['female'],[[6]],['female'],[[1]],[[0.18761401]],SC
72,[[7]],[[73]],[[2]],['high holistic'],['left'],['upright'],['U0014.bmp'],['male'],[[6]],['male'],[[1]],[[0.42926032]],SC
73,[[7]],[[74]],[[12]],['low holistic'],['right'],['inverted'],['U0178.bmp'],['female'],[[10]],['female'],[[1]],[[0.45856162]],SC
74,[[7]],[[75]],[[16]],['high holistic'],['right'],['inverted'],['U0335.bmp'],['female'],[[6]],['male'],[[0]],[[1.64051703]],SC
75,[[7]],[[76]],[[4]],['high holistic'],['right'],['inverted'],['U0061.bmp'],['female'],[[6]],['female'],[[1]],[[0.55162097]],SC
76,[[7]],[[77]],[[20]],['high holistic'],['left'],['inverted'],['U0362.bmp'],['female'],[[8]],['male'],[[0]],[[0.73642912]],SC
77,[[7]],[[78]],[[2]],['low holistic'],['left'],['upright'],['U0014.bmp'],['male'],[[8]],['male'],[[1]],[[0.1152328]],SC
78,[[7]],[[79]],[[16]],['low holistic'],['right'],['upright'],['U0335.bmp'],['female'],[[4]],['female'],[[1]],[[0.21641424]],SC
79,[[7]],[[80]],[[13]],['low holistic'],['right'],['upright'],['U0181.bmp'],['male'],[[4]],['male'],[[1]],[[0.02981151]],SC
80,[[7]],[[81]],[[10]],['low holistic'],['right'],['upright'],['U0159.bmp'],['female'],[[10]],['female'],[[1]],[[0.2372845]],SC
81,[[7]],[[82]],[[20]],['high holistic'],['right'],['upright'],['U0362.bmp'],['female'],[[4]],['male'],[[0]],[[1.01209663]],SC
82,[[7]],[[83]],[[6]],['low holistic'],['right'],['inverted'],['U0106.bmp'],['male'],[[12]],['female'],[[0]],[[1.53190521]],SC
83,[[7]],[[84]],[[7]],['high holistic'],['left'],['upright'],['U0107.bmp'],['female'],[[6]],['male'],[[0]],[[1.49585704]],SC
84,[[7]],[[85]],[[10]],['high holistic'],['right'],['upright'],['U0159.bmp'],['male'],[[8]],['male'],[[1]],[[0.02812631]],SC
85,[[7]],[[86]],[[17]],['high holistic'],['right'],['inverted'],['U0346.bmp'],['male'],[[4]],['male'],[[1]],[[1.14513916]],SC
86,[[7]],[[87]],[[3]],['low holistic'],['left'],['upright'],['U0020.bmp'],['female'],[[6]],['male'],[[0]],[[0.46831205]],SC
87,[[7]],[[88]],[[3]],['low holistic'],['left'],['inverted'],['U0020.bmp'],['female'],[[4]],['male'],[[0]],[[0.04932642]],SC
88,[[7]],[[89]],[[10]],['high holistic'],['right'],['upright'],['U0159.bmp'],['male'],[[6]],['female'],[[0]],[[0.27883524]],SC
89,[[7]],[[90]],[[12]],['high holistic'],['left'],['inverted'],['U0178.bmp'],['male'],[[4]],['female'],[[0]],[[0.30760441]],SC
90,[[7]],[[91]],[[16]],['low holistic'],['left'],['inverted'],['U0335.bmp'],['female'],[[2]],['female'],[[1]],[[0.3827497]],SC
91,[[7]],[[92]],[[9]],['high holistic'],['left'],['inverted'],['U0155.bmp'],['female'],[[6]],['male'],[[0]],[[0.44895082]],SC
92,[[7]],[[93]],[[12]],['low holistic'],['right'],['upright'],['U0178.bmp'],['female'],[[10]],['female'],[[1]],[[0.23919605]],SC
93,[[7]],[[94]],[[19]],['low holistic'],['right'],['inverted'],['U0361.bmp'],['female'],[[4]],['female'],[[1]],[[0.66940801]],SC
94,[[7]],[[95]],[[11]],['low holistic'],['left'],['upright'],['U0164.bmp'],['female'],[[6]],['female'],[[1]],[[0.18614594]],SC
95,[[7]],[[96]],[[10]],['high holistic'],['right'],['upright'],['U0159.bmp'],['male'],[[6]],['male'],[[1]],[[0.2751472]],SC
96,[[7]],[[97]],[[5]],['low holistic'],['left'],['inverted'],['U0076.bmp'],['male'],[[8]],['female'],[[0]],[[2.35137619]],SC
97,[[7]],[[98]],[[16]],['low holistic'],['right'],['upright'],['U0335.bmp'],['female'],[[4]],['female'],[[1]],[[0.25748816]],SC
98,[[7]],[[99]],[[15]],['high holistic'],['left'],['inverted'],['U0312.bmp'],['male'],[[10]],['female'],[[0]],[[0.99970217]],SC
99,[[7]],[[100]],[[2]],['high holistic'],['left'],['upright'],['U0014.bmp'],['male'],[[10]],['male'],[[1]],[[0.00010719]],SC
100,[[7]],[[101]],[[10]],['low holistic'],['left'],['upright'],['U0159.bmp'],['female'],[[6]],['female'],[[1]],[[0.28739281]],SC
101,[[7]],[[102]],[[3]],['low holistic'],['fovea'],['inverted'],['U0020.bmp'],['female'],[[0]],['female'],[[1]],[[0.5872288]],SC
102,[[7]],[[103]],[[4]],['low holistic'],['left'],['upright'],['U0061.bmp'],['female'],[[12]],['female'],[[1]],[[0.25341067]],SC
103,[[7]],[[104]],[[16]],['high holistic'],['right'],['inverted'],['U0335.bmp'],['female'],[[10]],['male'],[[0]],[[0.53806153]],SC
104,[[7]],[[105]],[[17]],['high holistic'],['left'],['upright'],['U0346.bmp'],['male'],[[6]],['male'],[[1]],[[0.35733809]],SC
105,[[7]],[[106]],[[13]],['high holistic'],['left'],['inverted'],['U0181.bmp'],['female'],[[6]],['female'],[[1]],[[0.19863527]],SC
106,[[7]],[[107]],[[11]],['high holistic'],['left'],['upright'],['U0164.bmp'],['female'],[[2]],['female'],[[1]],[[0.75805579]],SC
107,[[7]],[[108]],[[14]],['low holistic'],['left'],['inverted'],['U0228.bmp'],['male'],[[6]],['male'],[[1]],[[0.11136172]],SC
108,[[7]],[[109]],[[20]],['high holistic'],['left'],['upright'],['U0362.bmp'],['female'],[[6]],['male'],[[0]],[[2.88247142]],SC
109,[[7]],[[110]],[[3]],['high holistic'],['right'],['inverted'],['U0020.bmp'],['male'],[[4]],['female'],[[0]],[[0.67079474]],SC
110,[[7]],[[111]],[[14]],['low holistic'],['right'],['upright'],['U0228.bmp'],['male'],[[12]],['female'],[[0]],[[0.18864705]],SC
111,[[7]],[[112]],[[8]],['high holistic'],['right'],['inverted'],['U0137.bmp'],['female'],[[12]],['male'],[[0]],[[9.94894654e-05]],SC
112,[[7]],[[113]],[[18]],['low holistic'],['left'],['upright'],['U0359.bmp'],['male'],[[12]],['male'],[[1]],[[0.00043618]],SC
113,[[7]],[[114]],[[8]],['low holistic'],['left'],['inverted'],['U0137.bmp'],['male'],[[4]],['male'],[[1]],[[0.00671898]],SC
114,[[7]],[[115]],[[14]],['high holistic'],['left'],['upright'],['U0228.bmp'],['male'],[[6]],['female'],[[0]],[[1.06248941]],SC
115,[[7]],[[116]],[[18]],['low holistic'],['right'],['inverted'],['U0359.bmp'],['male'],[[10]],['male'],[[1]],[[0.26864428]],SC
116,[[7]],[[117]],[[7]],['high holistic'],['left'],['upright'],['U0107.bmp'],['female'],[[4]],['female'],[[1]],[[0.19276336]],SC
117,[[7]],[[118]],[[12]],['low holistic'],['left'],['inverted'],['U0178.bmp'],['female'],[[12]],['female'],[[1]],[[1.51945305]],SC
118,[[7]],[[119]],[[18]],['high holistic'],['left'],['inverted'],['U0359.bmp'],['male'],[[4]],['male'],[[1]],[[0.15607148]],SC
119,[[7]],[[120]],[[4]],['low holistic'],['right'],['upright'],['U0061.bmp'],['female'],[[4]],['female'],[[1]],[[0.06905068]],SC
120,[[7]],[[121]],[[9]],['low holistic'],['right'],['inverted'],['U0155.bmp'],['male'],[[4]],['male'],[[1]],[[0.37828055]],SC
121,[[7]],[[122]],[[6]],['high holistic'],['left'],['inverted'],['U0106.bmp'],['female'],[[2]],['female'],[[1]],[[0.57238282]],SC
122,[[7]],[[123]],[[1]],['high holistic'],['left'],['upright'],['U0006.bmp'],['female'],[[4]],['female'],[[1]],[[0.1719998]],SC
123,[[7]],[[124]],[[16]],['low holistic'],['left'],['inverted'],['U0335.bmp'],['female'],[[2]],['female'],[[1]],[[0.06916779]],SC
124,[[7]],[[125]],[[1]],['low holistic'],['right'],['upright'],['U0006.bmp'],['female'],[[10]],['female'],[[1]],[[0.16381531]],SC
125,[[7]],[[126]],[[17]],['high holistic'],['right'],['upright'],['U0346.bmp'],['male'],[[10]],['male'],[[1]],[[0.63686432]],SC
126,[[7]],[[127]],[[4]],['high holistic'],['right'],['upright'],['U0061.bmp'],['female'],[[6]],['female'],[[1]],[[0.43545837]],SC
127,[[7]],[[128]],[[3]],['low holistic'],['left'],['inverted'],['U0020.bmp'],['female'],[[4]],['female'],[[1]],[[0.36301967]],SC
128,[[7]],[[129]],[[2]],['high holistic'],['right'],['upright'],['U0014.bmp'],['male'],[[2]],['male'],[[1]],[[0.0666186]],SC
129,[[7]],[[130]],[[4]],['low holistic'],['right'],['upright'],['U0061.bmp'],['female'],[[8]],['female'],[[1]],[[0.21732844]],SC
130,[[7]],[[131]],[[20]],['high holistic'],['left'],['upright'],['U0362.bmp'],['female'],[[4]],['female'],[[1]],[[0.0924755]],SC
131,[[7]],[[132]],[[11]],['high holistic'],['fovea'],['inverted'],['U0164.bmp'],['female'],[[0]],['female'],[[1]],[[0.40820989]],SC
132,[[7]],[[133]],[[20]],['low holistic'],['right'],['inverted'],['U0362.bmp'],['male'],[[10]],['male'],[[1]],[[0.06301694]],SC
133,[[7]],[[134]],[[14]],['high holistic'],['left'],['upright'],['U0228.bmp'],['male'],[[6]],['female'],[[0]],[[1.79883965]],SC
134,[[7]],[[135]],[[3]],['low holistic'],['right'],['inverted'],['U0020.bmp'],['female'],[[12]],['female'],[[1]],[[0.41228047]],SC
135,[[7]],[[136]],[[7]],['low holistic'],['left'],['inverted'],['U0107.bmp'],['female'],[[12]],['female'],[[1]],[[0.10786068]],SC
136,[[7]],[[137]],[[2]],['low holistic'],['left'],['upright'],['U0014.bmp'],['male'],[[12]],['male'],[[1]],[[0.52082564]],SC
137,[[7]],[[138]],[[5]],['high holistic'],['right'],['inverted'],['U0076.bmp'],['female'],[[12]],['male'],[[0]],[[0.24410314]],SC
138,[[7]],[[139]],[[1]],['low holistic'],['right'],['upright'],['U0006.bmp'],['female'],[[4]],['female'],[[1]],[[0.00010114]],SC
139,[[7]],[[140]],[[5]],['low holistic'],['left'],['upright'],['U0076.bmp'],['male'],[[2]],['male'],[[1]],[[1.00149428]],SC
140,[[7]],[[141]],[[19]],['high holistic'],['left'],['inverted'],['U0361.bmp'],['female'],[[2]],['male'],[[0]],[[0.29721297]],SC
141,[[7]],[[142]],[[5]],['high holistic'],['right'],['inverted'],['U0076.bmp'],['female'],[[12]],['male'],[[0]],[[0.18226245]],SC
142,[[7]],[[143]],[[6]],['low holistic'],['left'],['upright'],['U0106.bmp'],['male'],[[12]],['male'],[[1]],[[0.55153832]],SC
143,[[7]],[[144]],[[2]],['low holistic'],['right'],['upright'],['U0014.bmp'],['male'],[[4]],['male'],[[1]],[[0.12857623]],SC
144,[[7]],[[145]],[[6]],['high holistic'],['left'],['upright'],['U0106.bmp'],['female'],[[12]],['male'],[[0]],[[0.34786842]],SC
145,[[7]],[[146]],[[20]],['high holistic'],['right'],['upright'],['U0362.bmp'],['female'],[[6]],['male'],[[0]],[[0.46109678]],SC
146,[[7]],[[147]],[[18]],['low holistic'],['left'],['inverted'],['U0359.bmp'],['male'],[[10]],['male'],[[1]],[[0.07623029]],SC
147,[[7]],[[148]],[[11]],['high holistic'],['right'],['upright'],['U0164.bmp'],['female'],[[4]],['female'],[[1]],[[0.68828439]],SC
148,[[7]],[[149]],[[12]],['low holistic'],['left'],['upright'],['U0178.bmp'],['female'],[[10]],['female'],[[1]],[[0.05366999]],SC
149,[[7]],[[150]],[[16]],['high holistic'],['left'],['inverted'],['U0335.bmp'],['female'],[[4]],['male'],[[0]],[[1.19615405]],SC
150,[[7]],[[151]],[[6]],['low holistic'],['left'],['upright'],['U0106.bmp'],['male'],[[4]],['male'],[[1]],[[9.96589661e-05]],SC
151,[[7]],[[152]],[[6]],['low holistic'],['left'],['upright'],['U0106.bmp'],['male'],[[2]],['male'],[[1]],[[0.05949354]],SC
152,[[7]],[[153]],[[19]],['high holistic'],['right'],['inverted'],['U0361.bmp'],['female'],[[12]],['male'],[[0]],[[0.40060124]],SC
153,[[7]],[[154]],[[2]],['low holistic'],['left'],['inverted'],['U0014.bmp'],['male'],[[10]],['male'],[[1]],[[0.43261825]],SC
154,[[7]],[[155]],[[9]],['low holistic'],['left'],['upright'],['U0155.bmp'],['male'],[[10]],['male'],[[1]],[[0.68708996]],SC
155,[[7]],[[156]],[[18]],['low holistic'],['right'],['upright'],['U0359.bmp'],['male'],[[10]],['male'],[[1]],[[0.59672102]],SC
156,[[7]],[[157]],[[12]],['high holistic'],['left'],['inverted'],['U0178.bmp'],['male'],[[2]],['female'],[[0]],[[0.16480301]],SC
157,[[7]],[[158]],[[20]],['high holistic'],['left'],['upright'],['U0362.bmp'],['female'],[[8]],['female'],[[1]],[[0.62228028]],SC
158,[[7]],[[159]],[[10]],['high holistic'],['right'],['inverted'],['U0159.bmp'],['male'],[[4]],['female'],[[0]],[[0.29992469]],SC
159,[[7]],[[160]],[[6]],['high holistic'],['right'],['upright'],['U0106.bmp'],['female'],[[4]],['female'],[[1]],[[0.35191291]],SC
160,[[7]],[[161]],[[9]],['high holistic'],['right'],['upright'],['U0155.bmp'],['female'],[[6]],['female'],[[1]],[[1.55506182]],SC
161,[[7]],[[162]],[[2]],['low holistic'],['left'],['inverted'],['U0014.bmp'],['male'],[[12]],['male'],[[1]],[[0.06083596]],SC
162,[[7]],[[163]],[[1]],['low holistic'],['right'],['upright'],['U0006.bmp'],['female'],[[2]],['female'],[[1]],[[0.0105796]],SC
163,[[7]],[[164]],[[17]],['high holistic'],['left'],['inverted'],['U0346.bmp'],['male'],[[6]],['female'],[[0]],[[0.49790758]],SC
164,[[7]],[[165]],[[2]],['high holistic'],['left'],['inverted'],['U0014.bmp'],['male'],[[6]],['female'],[[0]],[[0.34969782]],SC
165,[[7]],[[166]],[[3]],['low holistic'],['right'],['inverted'],['U0020.bmp'],['female'],[[8]],['female'],[[1]],[[0.24813398]],SC
166,[[7]],[[167]],[[11]],['low holistic'],['right'],['inverted'],['U0164.bmp'],['female'],[[10]],['male'],[[0]],[[1.76514907]],SC
167,[[7]],[[168]],[[18]],['high holistic'],['left'],['upright'],['U0359.bmp'],['male'],[[2]],['male'],[[1]],[[0.48657066]],SC
168,[[7]],[[169]],[[11]],['high holistic'],['left'],['upright'],['U0164.bmp'],['female'],[[8]],['male'],[[0]],[[0.28240594]],SC
169,[[7]],[[170]],[[16]],['low holistic'],['right'],['inverted'],['U0335.bmp'],['female'],[[10]],['male'],[[0]],[[0.1830605]],SC
170,[[7]],[[171]],[[18]],['low holistic'],['right'],['inverted'],['U0359.bmp'],['male'],[[12]],['male'],[[1]],[[0.00013532]],SC
171,[[7]],[[172]],[[1]],['high holistic'],['right'],['inverted'],['U0006.bmp'],['female'],[[10]],['female'],[[1]],[[1.40104058]],SC
172,[[7]],[[173]],[[5]],['low holistic'],['right'],['inverted'],['U0076.bmp'],['male'],[[8]],['male'],[[1]],[[2.59185162]],SC
173,[[7]],[[174]],[[4]],['low holistic'],['left'],['upright'],['U0061.bmp'],['female'],[[12]],['female'],[[1]],[[0.1043218]],SC
174,[[7]],[[175]],[[13]],['high holistic'],['right'],['upright'],['U0181.bmp'],['female'],[[12]],['female'],[[1]],[[2.10831103]],SC
175,[[7]],[[176]],[[13]],['high holistic'],['right'],['inverted'],['U0181.bmp'],['female'],[[4]],['male'],[[0]],[[0.17746134]],SC
176,[[7]],[[177]],[[18]],['high holistic'],['right'],['upright'],['U0359.bmp'],['male'],[[4]],['male'],[[1]],[[0.40830064]],SC
177,[[7]],[[178]],[[10]],['low holistic'],['left'],['upright'],['U0159.bmp'],['female'],[[2]],['female'],[[1]],[[0.0582487]],SC
178,[[7]],[[179]],[[9]],['low holistic'],['right'],['inverted'],['U0155.bmp'],['male'],[[10]],['male'],[[1]],[[2.51929226]],SC
179,[[7]],[[180]],[[12]],['high holistic'],['right'],['upright'],['U0178.bmp'],['male'],[[4]],['male'],[[1]],[[0.42723086]],SC
180,[[7]],[[181]],[[20]],['high holistic'],['right'],['upright'],['U0362.bmp'],['female'],[[6]],['male'],[[0]],[[0.68040776]],SC
181,[[7]],[[182]],[[6]],['high holistic'],['right'],['inverted'],['U0106.bmp'],['female'],[[12]],['male'],[[0]],[[0.82207922]],SC
182,[[7]],[[183]],[[13]],['low holistic'],['right'],['upright'],['U0181.bmp'],['male'],[[12]],['male'],[[1]],[[0.50765325]],SC
183,[[7]],[[184]],[[17]],['low holistic'],['right'],['upright'],['U0346.bmp'],['female'],[[10]],['female'],[[1]],[[0.2811164]],SC
184,[[7]],[[185]],[[20]],['high holistic'],['right'],['inverted'],['U0362.bmp'],['female'],[[4]],['female'],[[1]],[[0.66203662]],SC
185,[[7]],[[186]],[[3]],['low holistic'],['left'],['upright'],['U0020.bmp'],['female'],[[12]],['female'],[[1]],[[0.2809776]],SC
186,[[7]],[[187]],[[2]],['low holistic'],['left'],['upright'],['U0014.bmp'],['male'],[[10]],['male'],[[1]],[[0.15160691]],SC
187,[[7]],[[188]],[[13]],['high holistic'],['right'],['upright'],['U0181.bmp'],['female'],[[12]],['female'],[[1]],[[0.27442578]],SC
188,[[7]],[[189]],[[19]],['high holistic'],['left'],['inverted'],['U0361.bmp'],['female'],[[4]],['male'],[[0]],[[0.40731678]],SC
189,[[7]],[[190]],[[3]],['low holistic'],['left'],['upright'],['U0020.bmp'],['female'],[[6]],['female'],[[1]],[[0.02913098]],SC
190,[[7]],[[191]],[[10]],['low holistic'],['right'],['inverted'],['U0159.bmp'],['female'],[[4]],['female'],[[1]],[[0.0920808]],SC
191,[[7]],[[192]],[[14]],['high holistic'],['right'],['inverted'],['U0228.bmp'],['male'],[[12]],['female'],[[0]],[[0.88916891]],SC
192,[[7]],[[193]],[[10]],['high holistic'],['right'],['inverted'],['U0159.bmp'],['male'],[[2]],['female'],[[0]],[[0.86848313]],SC
193,[[7]],[[194]],[[19]],['low holistic'],['left'],['upright'],['U0361.bmp'],['female'],[[6]],['female'],[[1]],[[0.02639823]],SC
194,[[7]],[[195]],[[19]],['high holistic'],['left'],['inverted'],['U0361.bmp'],['female'],[[12]],['male'],[[0]],[[0.32229295]],SC
195,[[7]],[[196]],[[14]],['high holistic'],['fovea'],['inverted'],['U0228.bmp'],['male'],[[0]],['male'],[[1]],[[1.41218021]],SC
196,[[7]],[[197]],[[15]],['high holistic'],['left'],['inverted'],['U0312.bmp'],['male'],[[6]],['male'],[[1]],[[1.51650833]],SC
197,[[7]],[[198]],[[1]],['high holistic'],['left'],['upright'],['U0006.bmp'],['female'],[[12]],['female'],[[1]],[[0.17624582]],SC
198,[[7]],[[199]],[[4]],['low holistic'],['fovea'],['inverted'],['U0061.bmp'],['female'],[[0]],['female'],[[1]],[[0.25590822]],SC
199,[[7]],[[200]],[[13]],['low holistic'],['left'],['upright'],['U0181.bmp'],['male'],[[12]],['male'],[[1]],[[0.39863301]],SC
200,[[7]],[[201]],[[19]],['high holistic'],['left'],['upright'],['U0361.bmp'],['female'],[[8]],['female'],[[1]],[[0.76620412]],SC
201,[[7]],[[202]],[[18]],['high holistic'],['right'],['upright'],['U0359.bmp'],['male'],[[8]],['male'],[[1]],[[0.49610178]],SC
202,[[7]],[[203]],[[2]],['low holistic'],['right'],['inverted'],['U0014.bmp'],['male'],[[8]],['male'],[[1]],[[2.27462437]],SC
203,[[7]],[[204]],[[20]],['low holistic'],['right'],['inverted'],['U0362.bmp'],['male'],[[4]],['male'],[[1]],[[0.30366616]],SC
204,[[7]],[[205]],[[9]],['low holistic'],['right'],['inverted'],['U0155.bmp'],['male'],[[6]],['female'],[[0]],[[0.18141905]],SC
205,[[7]],[[206]],[[6]],['low holistic'],['left'],['upright'],['U0106.bmp'],['male'],[[2]],['male'],[[1]],[[1.43713174]],SC
206,[[7]],[[207]],[[13]],['high holistic'],['left'],['inverted'],['U0181.bmp'],['female'],[[2]],['female'],[[1]],[[0.35502769]],SC
207,[[7]],[[208]],[[10]],['low holistic'],['left'],['upright'],['U0159.bmp'],['female'],[[12]],['female'],[[1]],[[0.10140831]],SC
208,[[7]],[[209]],[[2]],['low holistic'],['fovea'],['inverted'],['U0014.bmp'],['male'],[[0]],['male'],[[1]],[[0.22559244]],SC
209,[[7]],[[210]],[[16]],['high holistic'],['left'],['upright'],['U0335.bmp'],['female'],[[2]],['female'],[[1]],[[0.22253291]],SC
210,[[7]],[[211]],[[15]],['high holistic'],['left'],['inverted'],['U0312.bmp'],['male'],[[8]],['female'],[[0]],[[0.89575801]],SC
211,[[7]],[[212]],[[19]],['low holistic'],['right'],['upright'],['U0361.bmp'],['female'],[[6]],['female'],[[1]],[[0.09075409]],SC
212,[[7]],[[213]],[[16]],['low holistic'],['left'],['inverted'],['U0335.bmp'],['female'],[[2]],['female'],[[1]],[[0.04693096]],SC
213,[[7]],[[214]],[[6]],['high holistic'],['left'],['upright'],['U0106.bmp'],['female'],[[12]],['male'],[[0]],[[0.18047945]],SC
214,[[7]],[[215]],[[20]],['low holistic'],['right'],['inverted'],['U0362.bmp'],['male'],[[8]],['male'],[[1]],[[0.12545333]],SC
215,[[7]],[[216]],[[13]],['low holistic'],['left'],['upright'],['U0181.bmp'],['male'],[[8]],['male'],[[1]],[[0.0648483]],SC
216,[[7]],[[217]],[[14]],['high holistic'],['left'],['upright'],['U0228.bmp'],['male'],[[4]],['male'],[[1]],[[1.13421883]],SC
217,[[7]],[[218]],[[11]],['high holistic'],['right'],['upright'],['U0164.bmp'],['female'],[[6]],['male'],[[0]],[[0.04200013]],SC
218,[[7]],[[219]],[[19]],['low holistic'],['left'],['upright'],['U0361.bmp'],['female'],[[10]],['female'],[[1]],[[0.1508327]],SC
219,[[7]],[[220]],[[4]],['high holistic'],['right'],['upright'],['U0061.bmp'],['female'],[[8]],['female'],[[1]],[[0.76919113]],SC
220,[[7]],[[221]],[[13]],['high holistic'],['right'],['inverted'],['U0181.bmp'],['female'],[[12]],['female'],[[1]],[[0.54576888]],SC
221,[[7]],[[222]],[[14]],['high holistic'],['left'],['inverted'],['U0228.bmp'],['male'],[[8]],['male'],[[1]],[[0.30841522]],SC
222,[[7]],[[223]],[[5]],['high holistic'],['fovea'],['upright'],['U0076.bmp'],['female'],[[0]],['female'],[[1]],[[0.61572163]],SC
223,[[7]],[[224]],[[6]],['high holistic'],['right'],['upright'],['U0106.bmp'],['female'],[[10]],['female'],[[1]],[[0.30372179]],SC
224,[[7]],[[225]],[[20]],['high holistic'],['right'],['inverted'],['U0362.bmp'],['female'],[[12]],['female'],[[1]],[[0.15614423]],SC
225,[[7]],[[226]],[[6]],['high holistic'],['fovea'],['inverted'],['U0106.bmp'],['female'],[[0]],['female'],[[1]],[[0.17366871]],SC
226,[[7]],[[227]],[[12]],['low holistic'],['right'],['upright'],['U0178.bmp'],['female'],[[10]],['female'],[[1]],[[0.16497738]],SC
227,[[7]],[[228]],[[5]],['low holistic'],['right'],['inverted'],['U0076.bmp'],['male'],[[12]],['female'],[[0]],[[1.46555267]],SC
228,[[7]],[[229]],[[1]],['high holistic'],['left'],['upright'],['U0006.bmp'],['female'],[[8]],['female'],[[1]],[[0.09393416]],SC
229,[[7]],[[230]],[[13]],['low holistic'],['right'],['inverted'],['U0181.bmp'],['male'],[[4]],['male'],[[1]],[[0.15298918]],SC
230,[[7]],[[231]],[[4]],['high holistic'],['right'],['upright'],['U0061.bmp'],['female'],[[12]],['female'],[[1]],[[0.26817554]],SC
231,[[7]],[[232]],[[11]],['high holistic'],['right'],['inverted'],['U0164.bmp'],['female'],[[10]],['female'],[[1]],[[0.68166662]],SC
232,[[7]],[[233]],[[7]],['low holistic'],['right'],['inverted'],['U0107.bmp'],['female'],[[2]],['female'],[[1]],[[3.63765465]],SC
233,[[7]],[[234]],[[12]],['low holistic'],['left'],['inverted'],['U0178.bmp'],['female'],[[8]],['female'],[[1]],[[0.22052127]],SC
234,[[7]],[[235]],[[19]],['low holistic'],['left'],['upright'],['U0361.bmp'],['female'],[[10]],['female'],[[1]],[[0.00012244]],SC
235,[[7]],[[236]],[[13]],['low holistic'],['right'],['upright'],['U0181.bmp'],['male'],[[8]],['male'],[[1]],[[0.00010165]],SC
236,[[7]],[[237]],[[16]],['high holistic'],['right'],['upright'],['U0335.bmp'],['female'],[[10]],['male'],[[0]],[[0.29990993]],SC
237,[[7]],[[238]],[[4]],['high holistic'],['right'],['upright'],['U0061.bmp'],['female'],[[10]],['female'],[[1]],[[0.21354489]],SC
238,[[7]],[[239]],[[19]],['low holistic'],['right'],['upright'],['U0361.bmp'],['female'],[[8]],['female'],[[1]],[[0.0385307]],SC
239,[[7]],[[240]],[[5]],['high holistic'],['right'],['inverted'],['U0076.bmp'],['female'],[[2]],['male'],[[0]],[[2.24029987]],SC
240,[[7]],[[241]],[[11]],['high holistic'],['left'],['upright'],['U0164.bmp'],['female'],[[8]],['female'],[[1]],[[1.03102821]],SC
241,[[7]],[[242]],[[7]],['high holistic'],['right'],['upright'],['U0107.bmp'],['female'],[[10]],['female'],[[1]],[[0.34012124]],SC
242,[[7]],[[243]],[[17]],['low holistic'],['left'],['upright'],['U0346.bmp'],['female'],[[10]],['female'],[[1]],[[0.02304745]],SC
243,[[7]],[[244]],[[5]],['low holistic'],['right'],['upright'],['U0076.bmp'],['male'],[[4]],['male'],[[1]],[[0.80537041]],SC
244,[[7]],[[245]],[[16]],['low holistic'],['right'],['inverted'],['U0335.bmp'],['female'],[[2]],['male'],[[0]],[[0.38247348]],SC
245,[[7]],[[246]],[[5]],['high holistic'],['right'],['upright'],['U0076.bmp'],['female'],[[12]],['female'],[[1]],[[0.35775634]],SC
246,[[7]],[[247]],[[10]],['low holistic'],['fovea'],['upright'],['U0159.bmp'],['female'],[[0]],['female'],[[1]],[[0.1121688]],SC
247,[[7]],[[248]],[[17]],['high holistic'],['right'],['upright'],['U0346.bmp'],['male'],[[4]],['male'],[[1]],[[1.17926046]],SC
248,[[7]],[[249]],[[7]],['high holistic'],['right'],['inverted'],['U0107.bmp'],['female'],[[12]],['female'],[[1]],[[0.38966698]],SC
249,[[7]],[[250]],[[9]],['low holistic'],['left'],['inverted'],['U0155.bmp'],['male'],[[8]],['female'],[[0]],[[0.69226862]],SC
250,[[7]],[[251]],[[20]],['low holistic'],['left'],['upright'],['U0362.bmp'],['male'],[[6]],['male'],[[1]],[[0.32922983]],SC
251,[[7]],[[252]],[[10]],['high holistic'],['left'],['inverted'],['U0159.bmp'],['male'],[[2]],['female'],[[0]],[[0.26044485]],SC
252,[[7]],[[253]],[[10]],['high holistic'],['right'],['inverted'],['U0159.bmp'],['male'],[[12]],['female'],[[0]],[[0.39431245]],SC
253,[[7]],[[254]],[[1]],['low holistic'],['left'],['inverted'],['U0006.bmp'],['female'],[[8]],['female'],[[1]],[[0.14651728]],SC
254,[[7]],[[255]],[[18]],['low holistic'],['right'],['inverted'],['U0359.bmp'],['male'],[[10]],['male'],[[1]],[[0.24351374]],SC
255,[[7]],[[256]],[[5]],['high holistic'],['left'],['inverted'],['U0076.bmp'],['female'],[[6]],['female'],[[1]],[[0.73018661]],SC
256,[[7]],[[257]],[[11]],['low holistic'],['right'],['upright'],['U0164.bmp'],['female'],[[12]],['female'],[[1]],[[0.14992646]],SC
257,[[7]],[[258]],[[8]],['high holistic'],['left'],['upright'],['U0137.bmp'],['female'],[[2]],['female'],[[1]],[[0.65416023]],SC
258,[[7]],[[259]],[[19]],['high holistic'],['left'],['inverted'],['U0361.bmp'],['female'],[[12]],['male'],[[0]],[[0.51711176]],SC
259,[[7]],[[260]],[[1]],['low holistic'],['right'],['inverted'],['U0006.bmp'],['female'],[[4]],['female'],[[1]],[[0.15252202]],SC
260,[[7]],[[261]],[[2]],['high holistic'],['fovea'],['inverted'],['U0014.bmp'],['male'],[[0]],['female'],[[0]],[[0.26773915]],SC
261,[[7]],[[262]],[[10]],['high holistic'],['left'],['inverted'],['U0159.bmp'],['male'],[[4]],['female'],[[0]],[[0.23191596]],SC
262,[[7]],[[263]],[[13]],['high holistic'],['right'],['inverted'],['U0181.bmp'],['female'],[[10]],['female'],[[1]],[[0.12648736]],SC
263,[[7]],[[264]],[[7]],['high holistic'],['left'],['upright'],['U0107.bmp'],['female'],[[8]],['female'],[[1]],[[0.02005574]],SC
264,[[7]],[[265]],[[17]],['low holistic'],['left'],['upright'],['U0346.bmp'],['female'],[[6]],['female'],[[1]],[[0.0098647]],SC
265,[[7]],[[266]],[[17]],['low holistic'],['right'],['inverted'],['U0346.bmp'],['female'],[[2]],['female'],[[1]],[[0.48914551]],SC
266,[[7]],[[267]],[[6]],['high holistic'],['right'],['upright'],['U0106.bmp'],['female'],[[2]],['female'],[[1]],[[0.16707847]],SC
267,[[7]],[[268]],[[6]],['low holistic'],['right'],['upright'],['U0106.bmp'],['male'],[[8]],['male'],[[1]],[[0.29537646]],SC
268,[[7]],[[269]],[[4]],['low holistic'],['fovea'],['inverted'],['U0061.bmp'],['female'],[[0]],['female'],[[1]],[[0.05113107]],SC
269,[[7]],[[270]],[[4]],['high holistic'],['right'],['inverted'],['U0061.bmp'],['female'],[[10]],['female'],[[1]],[[0.19372465]],SC
270,[[7]],[[271]],[[14]],['high holistic'],['left'],['inverted'],['U0228.bmp'],['male'],[[2]],['male'],[[1]],[[0.42685792]],SC
271,[[7]],[[272]],[[3]],['high holistic'],['left'],['upright'],['U0020.bmp'],['male'],[[8]],['male'],[[1]],[[0.27963623]],SC
272,[[7]],[[273]],[[6]],['high holistic'],['left'],['upright'],['U0106.bmp'],['female'],[[6]],['female'],[[1]],[[0.18084856]],SC
273,[[7]],[[274]],[[2]],['high holistic'],['right'],['inverted'],['U0014.bmp'],['male'],[[10]],['male'],[[1]],[[1.22104585]],SC
274,[[7]],[[275]],[[19]],['high holistic'],['right'],['inverted'],['U0361.bmp'],['female'],[[10]],['male'],[[0]],[[0.10203676]],SC
275,[[7]],[[276]],[[7]],['high holistic'],['right'],['inverted'],['U0107.bmp'],['female'],[[12]],['female'],[[1]],[[1.25645211]],SC
276,[[7]],[[277]],[[9]],['high holistic'],['right'],['upright'],['U0155.bmp'],['female'],[[8]],['female'],[[1]],[[1.70412522]],SC
277,[[7]],[[278]],[[7]],['low holistic'],['left'],['upright'],['U0107.bmp'],['female'],[[2]],['female'],[[1]],[[0.27521127]],SC
278,[[7]],[[279]],[[20]],['low holistic'],['left'],['inverted'],['U0362.bmp'],['male'],[[6]],['male'],[[1]],[[0.25574803]],SC
279,[[7]],[[280]],[[2]],['low holistic'],['right'],['upright'],['U0014.bmp'],['male'],[[8]],['male'],[[1]],[[0.22875038]],SC
280,[[7]],[[281]],[[18]],['high holistic'],['left'],['upright'],['U0359.bmp'],['male'],[[4]],['male'],[[1]],[[0.20477372]],SC
281,[[7]],[[282]],[[14]],['low holistic'],['right'],['upright'],['U0228.bmp'],['male'],[[2]],['male'],[[1]],[[0.05215301]],SC
282,[[7]],[[283]],[[5]],['low holistic'],['right'],['upright'],['U0076.bmp'],['male'],[[8]],['male'],[[1]],[[0.3215661]],SC
283,[[7]],[[284]],[[7]],['low holistic'],['right'],['upright'],['U0107.bmp'],['female'],[[12]],['female'],[[1]],[[0.5653848]],SC
284,[[7]],[[285]],[[8]],['high holistic'],['right'],['upright'],['U0137.bmp'],['female'],[[12]],['female'],[[1]],[[0.69435134]],SC
285,[[7]],[[286]],[[20]],['high holistic'],['right'],['upright'],['U0362.bmp'],['female'],[[6]],['male'],[[0]],[[0.48918311]],SC
286,[[7]],[[287]],[[15]],['low holistic'],['left'],['inverted'],['U0312.bmp'],['male'],[[8]],['male'],[[1]],[[0.82311264]],SC
287,[[7]],[[288]],[[14]],['high holistic'],['right'],['upright'],['U0228.bmp'],['male'],[[2]],['male'],[[1]],[[0.13250331]],SC
288,[[7]],[[289]],[[14]],['high holistic'],['right'],['inverted'],['U0228.bmp'],['male'],[[12]],['male'],[[1]],[[0.64054199]],SC
289,[[7]],[[290]],[[8]],['low holistic'],['right'],['upright'],['U0137.bmp'],['male'],[[2]],['male'],[[1]],[[0.14392752]],SC
290,[[7]],[[291]],[[19]],['low holistic'],['right'],['inverted'],['U0361.bmp'],['female'],[[4]],['female'],[[1]],[[0.47994198]],SC
291,[[7]],[[292]],[[20]],['high holistic'],['left'],['upright'],['U0362.bmp'],['female'],[[12]],['male'],[[0]],[[0.3743026]],SC
292,[[7]],[[293]],[[13]],['high holistic'],['right'],['inverted'],['U0181.bmp'],['female'],[[6]],['female'],[[1]],[[0.39816004]],SC
293,[[7]],[[294]],[[19]],['low holistic'],['left'],['inverted'],['U0361.bmp'],['female'],[[4]],['female'],[[1]],[[0.64599864]],SC
294,[[7]],[[295]],[[3]],['high holistic'],['right'],['inverted'],['U0020.bmp'],['male'],[[2]],['male'],[[1]],[[0.37993954]],SC
295,[[7]],[[296]],[[10]],['low holistic'],['left'],['inverted'],['U0159.bmp'],['female'],[[6]],['female'],[[1]],[[1.46176256]],SC
296,[[7]],[[297]],[[8]],['low holistic'],['left'],['upright'],['U0137.bmp'],['male'],[[12]],['male'],[[1]],[[0.04171215]],SC
297,[[7]],[[298]],[[8]],['low holistic'],['right'],['inverted'],['U0137.bmp'],['male'],[[10]],['male'],[[1]],[[0.16937351]],SC
298,[[7]],[[299]],[[4]],['high holistic'],['right'],['inverted'],['U0061.bmp'],['female'],[[6]],['female'],[[1]],[[0.32300255]],SC
299,[[7]],[[300]],[[6]],['low holistic'],['left'],['upright'],['U0106.bmp'],['male'],[[6]],['male'],[[1]],[[0.23706315]],SC
300,[[7]],[[301]],[[1]],['low holistic'],['left'],['inverted'],['U0006.bmp'],['female'],[[12]],['female'],[[1]],[[0.76436499]],SC
301,[[7]],[[302]],[[7]],['low holistic'],['left'],['inverted'],['U0107.bmp'],['female'],[[12]],['male'],[[0]],[[1.24497455]],SC
302,[[7]],[[303]],[[5]],['high holistic'],['right'],['upright'],['U0076.bmp'],['female'],[[8]],['female'],[[1]],[[0.37189149]],SC
303,[[7]],[[304]],[[1]],['high holistic'],['right'],['upright'],['U0006.bmp'],['female'],[[6]],['female'],[[1]],[[0.52361183]],SC
304,[[7]],[[305]],[[19]],['low holistic'],['right'],['inverted'],['U0361.bmp'],['female'],[[12]],['female'],[[1]],[[3.70267425]],SC
305,[[7]],[[306]],[[18]],['low holistic'],['left'],['upright'],['U0359.bmp'],['male'],[[6]],['male'],[[1]],[[0.42671815]],SC
306,[[7]],[[307]],[[11]],['low holistic'],['left'],['inverted'],['U0164.bmp'],['female'],[[4]],['female'],[[1]],[[0.77042367]],SC
307,[[7]],[[308]],[[6]],['low holistic'],['left'],['inverted'],['U0106.bmp'],['male'],[[4]],['female'],[[0]],[[0.14762155]],SC
308,[[7]],[[309]],[[20]],['high holistic'],['left'],['upright'],['U0362.bmp'],['female'],[[12]],['male'],[[0]],[[0.51800622]],SC
309,[[7]],[[310]],[[9]],['high holistic'],['right'],['upright'],['U0155.bmp'],['female'],[[6]],['male'],[[0]],[[0.32121167]],SC
310,[[7]],[[311]],[[19]],['low holistic'],['right'],['inverted'],['U0361.bmp'],['female'],[[2]],['female'],[[1]],[[0.09126549]],SC
311,[[7]],[[312]],[[13]],['high holistic'],['left'],['inverted'],['U0181.bmp'],['female'],[[4]],['female'],[[1]],[[0.20087176]],SC
312,[[7]],[[313]],[[8]],['low holistic'],['left'],['inverted'],['U0137.bmp'],['male'],[[4]],['male'],[[1]],[[0.3671679]],SC
313,[[7]],[[314]],[[5]],['low holistic'],['left'],['upright'],['U0076.bmp'],['male'],[[10]],['male'],[[1]],[[0.08027051]],SC
314,[[7]],[[315]],[[19]],['low holistic'],['right'],['upright'],['U0361.bmp'],['female'],[[4]],['female'],[[1]],[[0.03013223]],SC
315,[[7]],[[316]],[[3]],['high holistic'],['fovea'],['inverted'],['U0020.bmp'],['male'],[[0]],['male'],[[1]],[[0.14091988]],SC
316,[[7]],[[317]],[[17]],['low holistic'],['right'],['inverted'],['U0346.bmp'],['female'],[[8]],['female'],[[1]],[[1.58296202]],SC
317,[[7]],[[318]],[[14]],['high holistic'],['right'],['inverted'],['U0228.bmp'],['male'],[[4]],['male'],[[1]],[[0.24645099]],SC
318,[[7]],[[319]],[[1]],['high holistic'],['left'],['upright'],['U0006.bmp'],['female'],[[8]],['female'],[[1]],[[0.16527133]],SC
319,[[7]],[[320]],[[4]],['low holistic'],['left'],['upright'],['U0061.bmp'],['female'],[[12]],['female'],[[1]],[[0.1109871]],SC
320,[[7]],[[321]],[[5]],['high holistic'],['right'],['inverted'],['U0076.bmp'],['female'],[[4]],['male'],[[0]],[[2.32180955]],SC
321,[[7]],[[322]],[[20]],['high holistic'],['right'],['upright'],['U0362.bmp'],['female'],[[12]],['male'],[[0]],[[0.14070229]],SC
322,[[7]],[[323]],[[17]],['high holistic'],['right'],['inverted'],['U0346.bmp'],['male'],[[2]],['male'],[[1]],[[0.81707031]],SC
323,[[7]],[[324]],[[7]],['high holistic'],['right'],['upright'],['U0107.bmp'],['female'],[[6]],['female'],[[1]],[[0.42315186]],SC
324,[[7]],[[325]],[[3]],['low holistic'],['right'],['upright'],['U0020.bmp'],['female'],[[8]],['female'],[[1]],[[0.60604988]],SC
325,[[7]],[[326]],[[5]],['high holistic'],['right'],['inverted'],['U0076.bmp'],['female'],[[10]],['male'],[[0]],[[0.62117606]],SC
326,[[7]],[[327]],[[8]],['low holistic'],['right'],['upright'],['U0137.bmp'],['male'],[[12]],['male'],[[1]],[[0.61237769]],SC
327,[[7]],[[328]],[[12]],['high holistic'],['fovea'],['inverted'],['U0178.bmp'],['male'],[[0]],['female'],[[0]],[[0.540959]],SC
328,[[7]],[[329]],[[4]],['high holistic'],['right'],['inverted'],['U0061.bmp'],['female'],[[12]],['female'],[[1]],[[0.39986728]],SC
329,[[7]],[[330]],[[3]],['high holistic'],['right'],['upright'],['U0020.bmp'],['male'],[[2]],['male'],[[1]],[[0.15193089]],SC
330,[[7]],[[331]],[[10]],['low holistic'],['left'],['upright'],['U0159.bmp'],['female'],[[10]],['female'],[[1]],[[0.18433886]],SC
331,[[7]],[[332]],[[20]],['high holistic'],['right'],['inverted'],['U0362.bmp'],['female'],[[12]],['male'],[[0]],[[3.44992385]],SC
332,[[7]],[[333]],[[19]],['low holistic'],['left'],['inverted'],['U0361.bmp'],['female'],[[10]],['female'],[[1]],[[0.40707187]],SC
333,[[7]],[[334]],[[6]],['high holistic'],['left'],['inverted'],['U0106.bmp'],['female'],[[8]],['female'],[[1]],[[0.38307987]],SC
334,[[7]],[[335]],[[10]],['low holistic'],['right'],['inverted'],['U0159.bmp'],['female'],[[6]],['female'],[[1]],[[0.17546517]],SC
335,[[7]],[[336]],[[3]],['low holistic'],['left'],['inverted'],['U0020.bmp'],['female'],[[12]],['female'],[[1]],[[0.26400487]],SC
336,[[7]],[[337]],[[5]],['low holistic'],['left'],['inverted'],['U0076.bmp'],['male'],[[2]],['female'],[[0]],[[0.55725573]],SC
337,[[7]],[[338]],[[12]],['high holistic'],['left'],['upright'],['U0178.bmp'],['male'],[[4]],['female'],[[0]],[[0.42291132]],SC
338,[[7]],[[339]],[[12]],['high holistic'],['left'],['inverted'],['U0178.bmp'],['male'],[[10]],['female'],[[0]],[[0.0867132]],SC
339,[[7]],[[340]],[[11]],['high holistic'],['right'],['inverted'],['U0164.bmp'],['female'],[[10]],['male'],[[0]],[[0.66675543]],SC
340,[[7]],[[341]],[[8]],['high holistic'],['left'],['upright'],['U0137.bmp'],['female'],[[12]],['female'],[[1]],[[0.17689222]],SC
341,[[7]],[[342]],[[14]],['high holistic'],['right'],['upright'],['U0228.bmp'],['male'],[[12]],['male'],[[1]],[[0.0327683]],SC
342,[[7]],[[343]],[[10]],['high holistic'],['right'],['upright'],['U0159.bmp'],['male'],[[10]],['male'],[[1]],[[0.99183208]],SC
343,[[7]],[[344]],[[14]],['low holistic'],['left'],['inverted'],['U0228.bmp'],['male'],[[2]],['male'],[[1]],[[0.24863259]],SC
344,[[7]],[[345]],[[11]],['high holistic'],['right'],['upright'],['U0164.bmp'],['female'],[[8]],['female'],[[1]],[[0.30262361]],SC
345,[[7]],[[346]],[[14]],['low holistic'],['left'],['inverted'],['U0228.bmp'],['male'],[[2]],['male'],[[1]],[[0.21850464]],SC
346,[[7]],[[347]],[[2]],['high holistic'],['right'],['inverted'],['U0014.bmp'],['male'],[[2]],['female'],[[0]],[[0.33645908]],SC
347,[[7]],[[348]],[[11]],['high holistic'],['fovea'],['upright'],['U0164.bmp'],['female'],[[0]],['male'],[[0]],[[0.79614775]],SC
348,[[7]],[[349]],[[18]],['low holistic'],['right'],['upright'],['U0359.bmp'],['male'],[[2]],['male'],[[1]],[[0.1487366]],SC
349,[[7]],[[350]],[[11]],['low holistic'],['right'],['inverted'],['U0164.bmp'],['female'],[[12]],['female'],[[1]],[[0.36712856]],SC
350,[[7]],[[351]],[[6]],['high holistic'],['right'],['inverted'],['U0106.bmp'],['female'],[[10]],['male'],[[0]],[[1.43077692]],SC
351,[[7]],[[352]],[[10]],['low holistic'],['right'],['inverted'],['U0159.bmp'],['female'],[[2]],['female'],[[1]],[[0.04607943]],SC
352,[[7]],[[353]],[[17]],['low holistic'],['left'],['inverted'],['U0346.bmp'],['female'],[[10]],['female'],[[1]],[[0.3011201]],SC
353,[[7]],[[354]],[[13]],['low holistic'],['fovea'],['upright'],['U0181.bmp'],['male'],[[0]],['male'],[[1]],[[0.00885267]],SC
354,[[7]],[[355]],[[19]],['low holistic'],['right'],['inverted'],['U0361.bmp'],['female'],[[6]],['female'],[[1]],[[0.07117543]],SC
355,[[7]],[[356]],[[2]],['low holistic'],['fovea'],['inverted'],['U0014.bmp'],['male'],[[0]],['male'],[[1]],[[0.08391122]],SC
356,[[7]],[[357]],[[14]],['low holistic'],['right'],['inverted'],['U0228.bmp'],['male'],[[8]],['female'],[[0]],[[0.09612018]],SC
357,[[7]],[[358]],[[16]],['low holistic'],['left'],['inverted'],['U0335.bmp'],['female'],[[12]],['male'],[[0]],[[1.29331362]],SC
358,[[7]],[[359]],[[9]],['high holistic'],['fovea'],['upright'],['U0155.bmp'],['female'],[[0]],['male'],[[0]],[[0.57812204]],SC
359,[[7]],[[360]],[[15]],['high holistic'],['left'],['inverted'],['U0312.bmp'],['male'],[[10]],['female'],[[0]],[[1.1463962]],SC
360,[[7]],[[361]],[[15]],['low holistic'],['right'],['inverted'],['U0312.bmp'],['male'],[[4]],['male'],[[1]],[[0.14143132]],SC
361,[[7]],[[362]],[[9]],['low holistic'],['right'],['inverted'],['U0155.bmp'],['male'],[[4]],['male'],[[1]],[[0.46231991]],SC
362,[[7]],[[363]],[[19]],['high holistic'],['left'],['upright'],['U0361.bmp'],['female'],[[10]],['male'],[[0]],[[0.15696526]],SC
363,[[7]],[[364]],[[1]],['high holistic'],['right'],['inverted'],['U0006.bmp'],['female'],[[8]],['female'],[[1]],[[0.15053997]],SC
364,[[7]],[[365]],[[1]],['low holistic'],['left'],['inverted'],['U0006.bmp'],['female'],[[10]],['female'],[[1]],[[0.21675223]],SC
365,[[7]],[[366]],[[20]],['low holistic'],['left'],['inverted'],['U0362.bmp'],['male'],[[6]],['male'],[[1]],[[1.166467]],SC
366,[[7]],[[367]],[[17]],['high holistic'],['left'],['inverted'],['U0346.bmp'],['male'],[[12]],['female'],[[0]],[[0.90497671]],SC
367,[[7]],[[368]],[[12]],['high holistic'],['right'],['upright'],['U0178.bmp'],['male'],[[2]],['male'],[[1]],[[0.42855299]],SC
368,[[7]],[[369]],[[18]],['high holistic'],['left'],['upright'],['U0359.bmp'],['male'],[[12]],['male'],[[1]],[[0.41835331]],SC
369,[[7]],[[370]],[[8]],['high holistic'],['right'],['upright'],['U0137.bmp'],['female'],[[2]],['female'],[[1]],[[0.14600729]],SC
370,[[7]],[[371]],[[20]],['high holistic'],['left'],['upright'],['U0362.bmp'],['female'],[[8]],['male'],[[0]],[[0.2194717]],SC
371,[[7]],[[372]],[[10]],['low holistic'],['fovea'],['upright'],['U0159.bmp'],['female'],[[0]],['female'],[[1]],[[0.00010095]],SC
372,[[7]],[[373]],[[19]],['low holistic'],['left'],['upright'],['U0361.bmp'],['female'],[[8]],['female'],[[1]],[[0.00484067]],SC
373,[[7]],[[374]],[[12]],['high holistic'],['left'],['inverted'],['U0178.bmp'],['male'],[[6]],['female'],[[0]],[[0.5877748]],SC
374,[[7]],[[375]],[[2]],['high holistic'],['right'],['upright'],['U0014.bmp'],['male'],[[6]],['male'],[[1]],[[0.00038678]],SC
375,[[7]],[[376]],[[9]],['high holistic'],['left'],['inverted'],['U0155.bmp'],['female'],[[6]],['male'],[[0]],[[1.8034429]],SC
376,[[7]],[[377]],[[11]],['high holistic'],['fovea'],['upright'],['U0164.bmp'],['female'],[[0]],['female'],[[1]],[[0.354822]],SC
377,[[7]],[[378]],[[11]],['low holistic'],['left'],['upright'],['U0164.bmp'],['female'],[[10]],['female'],[[1]],[[0.02190274]],SC
378,[[7]],[[379]],[[20]],['low holistic'],['right'],['upright'],['U0362.bmp'],['male'],[[4]],['male'],[[1]],[[0.92345789]],SC
379,[[7]],[[380]],[[7]],['low holistic'],['right'],['upright'],['U0107.bmp'],['female'],[[2]],['female'],[[1]],[[0.24813786]],SC
380,[[7]],[[381]],[[16]],['high holistic'],['left'],['upright'],['U0335.bmp'],['female'],[[10]],['female'],[[1]],[[0.10946997]],SC
381,[[7]],[[382]],[[14]],['high holistic'],['fovea'],['inverted'],['U0228.bmp'],['male'],[[0]],['female'],[[0]],[[2.65594546]],SC
382,[[7]],[[383]],[[9]],['low holistic'],['left'],['inverted'],['U0155.bmp'],['male'],[[10]],['male'],[[1]],[[0.20675456]],SC
383,[[7]],[[384]],[[14]],['low holistic'],['fovea'],['upright'],['U0228.bmp'],['male'],[[0]],['male'],[[1]],[[0.00010686]],SC
384,[[7]],[[385]],[[15]],['low holistic'],['right'],['upright'],['U0312.bmp'],['male'],[[6]],['male'],[[1]],[[0.01935882]],SC
385,[[7]],[[386]],[[2]],['high holistic'],['left'],['upright'],['U0014.bmp'],['male'],[[10]],['male'],[[1]],[[0.04369533]],SC
386,[[7]],[[387]],[[8]],['low holistic'],['right'],['upright'],['U0137.bmp'],['male'],[[6]],['male'],[[1]],[[0.00038856]],SC
387,[[7]],[[388]],[[12]],['high holistic'],['right'],['inverted'],['U0178.bmp'],['male'],[[8]],['male'],[[1]],[[0.10688154]],SC
388,[[7]],[[389]],[[10]],['high holistic'],['left'],['upright'],['U0159.bmp'],['male'],[[10]],['male'],[[1]],[[2.59889436]],SC
389,[[7]],[[390]],[[12]],['high holistic'],['fovea'],['inverted'],['U0178.bmp'],['male'],[[0]],['male'],[[1]],[[0.37433339]],SC
390,[[7]],[[391]],[[5]],['high holistic'],['fovea'],['upright'],['U0076.bmp'],['female'],[[0]],['female'],[[1]],[[0.42314122]],SC
391,[[7]],[[392]],[[18]],['high holistic'],['left'],['inverted'],['U0359.bmp'],['male'],[[6]],['female'],[[0]],[[0.14134882]],SC
392,[[7]],[[393]],[[8]],['high holistic'],['right'],['inverted'],['U0137.bmp'],['female'],[[2]],['female'],[[1]],[[0.39212433]],SC
393,[[7]],[[394]],[[13]],['low holistic'],['left'],['inverted'],['U0181.bmp'],['male'],[[2]],['male'],[[1]],[[0.04843314]],SC
394,[[7]],[[395]],[[6]],['low holistic'],['left'],['upright'],['U0106.bmp'],['male'],[[12]],['male'],[[1]],[[0.22929378]],SC
395,[[7]],[[396]],[[15]],['low holistic'],['right'],['upright'],['U0312.bmp'],['male'],[[12]],['male'],[[1]],[[0.00010178]],SC
396,[[7]],[[397]],[[15]],['low holistic'],['fovea'],['inverted'],['U0312.bmp'],['male'],[[0]],['male'],[[1]],[[0.00010646]],SC
397,[[7]],[[398]],[[1]],['high holistic'],['left'],['upright'],['U0006.bmp'],['female'],[[2]],['female'],[[1]],[[0.41234058]],SC
398,[[7]],[[399]],[[13]],['high holistic'],['right'],['upright'],['U0181.bmp'],['female'],[[10]],['male'],[[0]],[[0.19565959]],SC
399,[[7]],[[400]],[[11]],['high holistic'],['left'],['upright'],['U0164.bmp'],['female'],[[10]],['male'],[[0]],[[0.80397764]],SC
400,[[7]],[[401]],[[15]],['high holistic'],['left'],['inverted'],['U0312.bmp'],['male'],[[4]],['male'],[[1]],[[1.1330019]],SC
401,[[7]],[[402]],[[11]],['low holistic'],['right'],['inverted'],['U0164.bmp'],['female'],[[2]],['female'],[[1]],[[0.08443276]],SC
402,[[7]],[[403]],[[14]],['low holistic'],['left'],['upright'],['U0228.bmp'],['male'],[[6]],['male'],[[1]],[[0.00044844]],SC
403,[[7]],[[404]],[[11]],['low holistic'],['left'],['inverted'],['U0164.bmp'],['female'],[[10]],['female'],[[1]],[[0.52192809]],SC
404,[[7]],[[405]],[[14]],['low holistic'],['right'],['upright'],['U0228.bmp'],['male'],[[2]],['male'],[[1]],[[0.00012026]],SC
405,[[7]],[[406]],[[7]],['low holistic'],['right'],['inverted'],['U0107.bmp'],['female'],[[8]],['female'],[[1]],[[0.02894084]],SC
406,[[7]],[[407]],[[2]],['low holistic'],['right'],['upright'],['U0014.bmp'],['male'],[[8]],['male'],[[1]],[[0.13790373]],SC
407,[[7]],[[408]],[[18]],['low holistic'],['left'],['upright'],['U0359.bmp'],['male'],[[8]],['male'],[[1]],[[0.12417905]],SC
408,[[7]],[[409]],[[19]],['low holistic'],['fovea'],['upright'],['U0361.bmp'],['female'],[[0]],['female'],[[1]],[[0.0001002]],SC
409,[[7]],[[410]],[[1]],['high holistic'],['left'],['upright'],['U0006.bmp'],['female'],[[10]],['female'],[[1]],[[0.43942736]],SC
410,[[7]],[[411]],[[10]],['high holistic'],['right'],['upright'],['U0159.bmp'],['male'],[[8]],['male'],[[1]],[[0.68680013]],SC
411,[[7]],[[412]],[[10]],['low holistic'],['right'],['upright'],['U0159.bmp'],['female'],[[8]],['female'],[[1]],[[0.04208708]],SC
412,[[7]],[[413]],[[3]],['low holistic'],['left'],['inverted'],['U0020.bmp'],['female'],[[10]],['female'],[[1]],[[0.14466253]],SC
413,[[7]],[[414]],[[15]],['high holistic'],['left'],['upright'],['U0312.bmp'],['male'],[[12]],['male'],[[1]],[[0.29871427]],SC
414,[[7]],[[415]],[[11]],['low holistic'],['right'],['upright'],['U0164.bmp'],['female'],[[2]],['female'],[[1]],[[0.00010085]],SC
415,[[7]],[[416]],[[7]],['high holistic'],['right'],['inverted'],['U0107.bmp'],['female'],[[8]],['female'],[[1]],[[0.10253984]],SC
416,[[7]],[[417]],[[4]],['low holistic'],['right'],['upright'],['U0061.bmp'],['female'],[[10]],['female'],[[1]],[[0.09767833]],SC
417,[[7]],[[418]],[[16]],['high holistic'],['left'],['upright'],['U0335.bmp'],['female'],[[10]],['female'],[[1]],[[0.05558152]],SC
418,[[7]],[[419]],[[7]],['high holistic'],['right'],['inverted'],['U0107.bmp'],['female'],[[8]],['female'],[[1]],[[0.14771706]],SC
419,[[7]],[[420]],[[12]],['low holistic'],['left'],['inverted'],['U0178.bmp'],['female'],[[12]],['female'],[[1]],[[0.11026039]],SC
420,[[7]],[[421]],[[15]],['high holistic'],['left'],['inverted'],['U0312.bmp'],['male'],[[8]],['female'],[[0]],[[9.93022695e-05]],SC
421,[[7]],[[422]],[[7]],['high holistic'],['left'],['upright'],['U0107.bmp'],['female'],[[8]],['female'],[[1]],[[0.07316987]],SC
422,[[7]],[[423]],[[7]],['high holistic'],['right'],['inverted'],['U0107.bmp'],['female'],[[4]],['female'],[[1]],[[0.00010065]],SC
423,[[7]],[[424]],[[8]],['low holistic'],['left'],['inverted'],['U0137.bmp'],['male'],[[4]],['female'],[[0]],[[0.00010199]],SC
424,[[7]],[[425]],[[12]],['low holistic'],['right'],['inverted'],['U0178.bmp'],['female'],[[6]],['female'],[[1]],[[0.0135078]],SC
425,[[7]],[[426]],[[18]],['high holistic'],['left'],['inverted'],['U0359.bmp'],['male'],[[6]],['male'],[[1]],[[0.17393291]],SC
426,[[7]],[[427]],[[11]],['high holistic'],['right'],['inverted'],['U0164.bmp'],['female'],[[8]],['male'],[[0]],[[0.03144957]],SC
427,[[7]],[[428]],[[13]],['high holistic'],['left'],['upright'],['U0181.bmp'],['female'],[[2]],['female'],[[1]],[[0.12420543]],SC
428,[[7]],[[429]],[[6]],['low holistic'],['left'],['inverted'],['U0106.bmp'],['male'],[[2]],['male'],[[1]],[[0.45638627]],SC
429,[[7]],[[430]],[[16]],['low holistic'],['left'],['inverted'],['U0335.bmp'],['female'],[[2]],['female'],[[1]],[[0.01279659]],SC
430,[[7]],[[431]],[[9]],['low holistic'],['left'],['upright'],['U0155.bmp'],['male'],[[6]],['male'],[[1]],[[0.00010556]],SC
431,[[7]],[[432]],[[1]],['low holistic'],['left'],['inverted'],['U0006.bmp'],['female'],[[8]],['female'],[[1]],[[0.01730668]],SC
432,[[7]],[[433]],[[2]],['low holistic'],['left'],['upright'],['U0014.bmp'],['male'],[[8]],['male'],[[1]],[[0.06614385]],SC
433,[[7]],[[434]],[[1]],['low holistic'],['right'],['inverted'],['U0006.bmp'],['female'],[[12]],['female'],[[1]],[[0.04154172]],SC
434,[[7]],[[435]],[[11]],['low holistic'],['left'],['upright'],['U0164.bmp'],['female'],[[8]],['female'],[[1]],[[0.06248329]],SC
435,[[7]],[[436]],[[2]],['high holistic'],['right'],['upright'],['U0014.bmp'],['male'],[[2]],['male'],[[1]],[[0.12302743]],SC
436,[[7]],[[437]],[[20]],['low holistic'],['right'],['upright'],['U0362.bmp'],['male'],[[4]],['male'],[[1]],[[0.51040779]],SC
437,[[7]],[[438]],[[19]],['low holistic'],['left'],['upright'],['U0361.bmp'],['female'],[[8]],['female'],[[1]],[[0.25765602]],SC
438,[[7]],[[439]],[[9]],['low holistic'],['right'],['upright'],['U0155.bmp'],['male'],[[8]],['male'],[[1]],[[0.1281515]],SC
439,[[7]],[[440]],[[12]],['low holistic'],['left'],['inverted'],['U0178.bmp'],['female'],[[4]],['female'],[[1]],[[0.13902833]],SC
440,[[7]],[[441]],[[1]],['low holistic'],['left'],['upright'],['U0006.bmp'],['female'],[[12]],['female'],[[1]],[[0.17380821]],SC
441,[[7]],[[442]],[[7]],['high holistic'],['right'],['upright'],['U0107.bmp'],['female'],[[2]],['female'],[[1]],[[0.23765162]],SC
442,[[7]],[[443]],[[14]],['high holistic'],['left'],['inverted'],['U0228.bmp'],['male'],[[6]],['female'],[[0]],[[0.00023447]],SC
443,[[7]],[[444]],[[9]],['high holistic'],['fovea'],['inverted'],['U0155.bmp'],['female'],[[0]],['female'],[[1]],[[0.17869768]],SC
444,[[7]],[[445]],[[12]],['low holistic'],['left'],['inverted'],['U0178.bmp'],['female'],[[6]],['female'],[[1]],[[0.05240138]],SC
445,[[7]],[[446]],[[3]],['low holistic'],['left'],['upright'],['U0020.bmp'],['female'],[[6]],['female'],[[1]],[[0.14531265]],SC
446,[[7]],[[447]],[[12]],['high holistic'],['right'],['inverted'],['U0178.bmp'],['male'],[[2]],['female'],[[0]],[[0.01839646]],SC
447,[[7]],[[448]],[[15]],['high holistic'],['left'],['upright'],['U0312.bmp'],['male'],[[6]],['male'],[[1]],[[0.1856538]],SC
448,[[7]],[[449]],[[4]],['high holistic'],['right'],['inverted'],['U0061.bmp'],['female'],[[4]],['female'],[[1]],[[0.10760174]],SC
449,[[7]],[[450]],[[2]],['high holistic'],['right'],['upright'],['U0014.bmp'],['male'],[[12]],['male'],[[1]],[[0.00028615]],SC
450,[[7]],[[451]],[[12]],['high holistic'],['left'],['inverted'],['U0178.bmp'],['male'],[[10]],['female'],[[0]],[[0.00012239]],SC
451,[[7]],[[452]],[[13]],['low holistic'],['left'],['upright'],['U0181.bmp'],['male'],[[4]],['male'],[[1]],[[0.02030475]],SC
452,[[7]],[[453]],[[9]],['low holistic'],['right'],['upright'],['U0155.bmp'],['male'],[[12]],['female'],[[0]],[[9.78186727e-05]],SC
453,[[7]],[[454]],[[20]],['low holistic'],['right'],['upright'],['U0362.bmp'],['male'],[[4]],['male'],[[1]],[[0.01232092]],SC
454,[[7]],[[455]],[[4]],['high holistic'],['right'],['inverted'],['U0061.bmp'],['female'],[[12]],['female'],[[1]],[[0.32312965]],SC
455,[[7]],[[456]],[[11]],['low holistic'],['left'],['inverted'],['U0164.bmp'],['female'],[[6]],['male'],[[0]],[[0.29454775]],SC
456,[[7]],[[457]],[[1]],['low holistic'],['right'],['upright'],['U0006.bmp'],['female'],[[10]],['female'],[[1]],[[0.03322399]],SC
457,[[7]],[[458]],[[20]],['high holistic'],['left'],['inverted'],['U0362.bmp'],['female'],[[8]],['female'],[[1]],[[0.00024539]],SC
458,[[7]],[[459]],[[10]],['high holistic'],['left'],['upright'],['U0159.bmp'],['male'],[[2]],['male'],[[1]],[[0.01497069]],SC
459,[[7]],[[460]],[[18]],['low holistic'],['right'],['upright'],['U0359.bmp'],['male'],[[8]],['female'],[[0]],[[0.03107833]],SC
460,[[7]],[[461]],[[18]],['low holistic'],['right'],['upright'],['U0359.bmp'],['male'],[[12]],['male'],[[1]],[[0.74961167]],SC
461,[[7]],[[462]],[[9]],['low holistic'],['right'],['upright'],['U0155.bmp'],['male'],[[2]],['male'],[[1]],[[0.00018238]],SC
462,[[7]],[[463]],[[10]],['high holistic'],['left'],['inverted'],['U0159.bmp'],['male'],[[6]],['male'],[[1]],[[1.10253112]],SC
463,[[7]],[[464]],[[1]],['high holistic'],['left'],['inverted'],['U0006.bmp'],['female'],[[12]],['male'],[[0]],[[0.42606193]],SC
464,[[7]],[[465]],[[11]],['low holistic'],['right'],['inverted'],['U0164.bmp'],['female'],[[8]],['female'],[[1]],[[0.00031538]],SC
465,[[7]],[[466]],[[1]],['high holistic'],['left'],['inverted'],['U0006.bmp'],['female'],[[6]],['female'],[[1]],[[0.53582014]],SC
466,[[7]],[[467]],[[16]],['high holistic'],['right'],['upright'],['U0335.bmp'],['female'],[[12]],['female'],[[1]],[[0.18187243]],SC
467,[[7]],[[468]],[[3]],['high holistic'],['right'],['upright'],['U0020.bmp'],['male'],[[10]],['female'],[[0]],[[0.05202874]],SC
468,[[7]],[[469]],[[3]],['low holistic'],['right'],['upright'],['U0020.bmp'],['female'],[[2]],['female'],[[1]],[[0.15158962]],SC
469,[[7]],[[470]],[[20]],['low holistic'],['left'],['inverted'],['U0362.bmp'],['male'],[[12]],['male'],[[1]],[[0.4349483]],SC
470,[[7]],[[471]],[[13]],['low holistic'],['left'],['inverted'],['U0181.bmp'],['male'],[[6]],['male'],[[1]],[[0.32703269]],SC
471,[[7]],[[472]],[[6]],['low holistic'],['left'],['upright'],['U0106.bmp'],['male'],[[10]],['male'],[[1]],[[0.16226826]],SC
472,[[7]],[[473]],[[4]],['high holistic'],['left'],['upright'],['U0061.bmp'],['female'],[[2]],['male'],[[0]],[[2.15481763]],SC
473,[[7]],[[474]],[[12]],['low holistic'],['left'],['upright'],['U0178.bmp'],['female'],[[4]],['female'],[[1]],[[0.0001009]],SC
474,[[7]],[[475]],[[6]],['low holistic'],['right'],['inverted'],['U0106.bmp'],['male'],[[2]],['male'],[[1]],[[0.16569885]],SC
475,[[7]],[[476]],[[5]],['low holistic'],['left'],['upright'],['U0076.bmp'],['male'],[[4]],['male'],[[1]],[[0.04689033]],SC
476,[[7]],[[477]],[[1]],['low holistic'],['left'],['inverted'],['U0006.bmp'],['female'],[[12]],['female'],[[1]],[[0.00010147]],SC
477,[[7]],[[478]],[[8]],['low holistic'],['left'],['upright'],['U0137.bmp'],['male'],[[2]],['male'],[[1]],[[0.09852926]],SC
478,[[7]],[[479]],[[19]],['low holistic'],['right'],['upright'],['U0361.bmp'],['female'],[[10]],['male'],[[0]],[[0.00053407]],SC
479,[[7]],[[480]],[[8]],['low holistic'],['right'],['inverted'],['U0137.bmp'],['male'],[[4]],['male'],[[1]],[[0.00011039]],SC
480,[[7]],[[481]],[[17]],['low holistic'],['left'],['inverted'],['U0346.bmp'],['female'],[[10]],['male'],[[0]],[[0.20732985]],SC
481,[[7]],[[482]],[[6]],['high holistic'],['left'],['upright'],['U0106.bmp'],['female'],[[2]],['female'],[[1]],[[0.11943327]],SC
482,[[7]],[[483]],[[1]],['low holistic'],['right'],['upright'],['U0006.bmp'],['female'],[[12]],['female'],[[1]],[[9.92743298e-05]],SC
483,[[7]],[[484]],[[16]],['low holistic'],['right'],['inverted'],['U0335.bmp'],['female'],[[6]],['female'],[[1]],[[0.0478658]],SC
484,[[7]],[[485]],[[6]],['low holistic'],['right'],['upright'],['U0106.bmp'],['male'],[[12]],['male'],[[1]],[[0.17322236]],SC
485,[[7]],[[486]],[[14]],['low holistic'],['left'],['upright'],['U0228.bmp'],['male'],[[8]],['male'],[[1]],[[0.00013716]],SC
486,[[7]],[[487]],[[3]],['high holistic'],['left'],['inverted'],['U0020.bmp'],['male'],[[10]],['male'],[[1]],[[0.01539582]],SC
487,[[7]],[[488]],[[17]],['high holistic'],['right'],['upright'],['U0346.bmp'],['male'],[[8]],['male'],[[1]],[[9.87416133e-05]],SC
488,[[7]],[[489]],[[4]],['high holistic'],['left'],['inverted'],['U0061.bmp'],['female'],[[8]],['male'],[[0]],[[0.00021915]],SC
489,[[7]],[[490]],[[18]],['low holistic'],['fovea'],['inverted'],['U0359.bmp'],['male'],[[0]],['male'],[[1]],[[0.18803916]],SC
490,[[7]],[[491]],[[17]],['low holistic'],['left'],['upright'],['U0346.bmp'],['female'],[[12]],['female'],[[1]],[[0.02016008]],SC
491,[[7]],[[492]],[[9]],['high holistic'],['left'],['inverted'],['U0155.bmp'],['female'],[[8]],['male'],[[0]],[[0.62890496]],SC
492,[[7]],[[493]],[[4]],['low holistic'],['right'],['upright'],['U0061.bmp'],['female'],[[10]],['female'],[[1]],[[0.00048186]],SC
493,[[7]],[[494]],[[12]],['low holistic'],['fovea'],['inverted'],['U0178.bmp'],['female'],[[0]],['female'],[[1]],[[0.00010753]],SC
494,[[7]],[[495]],[[7]],['high holistic'],['right'],['upright'],['U0107.bmp'],['female'],[[12]],['female'],[[1]],[[4.14638119]],SC
495,[[7]],[[496]],[[3]],['low holistic'],['left'],['inverted'],['U0020.bmp'],['female'],[[4]],['female'],[[1]],[[0.10892048]],SC
496,[[7]],[[497]],[[14]],['high holistic'],['right'],['inverted'],['U0228.bmp'],['male'],[[6]],['female'],[[0]],[[0.14201857]],SC
497,[[7]],[[498]],[[14]],['low holistic'],['right'],['upright'],['U0228.bmp'],['male'],[[8]],['male'],[[1]],[[0.00035503]],SC
498,[[7]],[[499]],[[18]],['low holistic'],['right'],['inverted'],['U0359.bmp'],['male'],[[6]],['male'],[[1]],[[0.02503999]],SC
499,[[7]],[[500]],[[4]],['low holistic'],['left'],['upright'],['U0061.bmp'],['female'],[[2]],['female'],[[1]],[[3.30395344]],SC
500,[[7]],[[501]],[[15]],['high holistic'],['right'],['inverted'],['U0312.bmp'],['male'],[[10]],['female'],[[0]],[[0.41944631]],SC
501,[[7]],[[502]],[[11]],['low holistic'],['left'],['upright'],['U0164.bmp'],['female'],[[4]],['female'],[[1]],[[0.00012071]],SC
502,[[7]],[[503]],[[19]],['low holistic'],['right'],['upright'],['U0361.bmp'],['female'],[[12]],['female'],[[1]],[[0.00010854]],SC
503,[[7]],[[504]],[[1]],['high holistic'],['right'],['upright'],['U0006.bmp'],['female'],[[10]],['female'],[[1]],[[0.00045108]],SC
504,[[7]],[[505]],[[18]],['low holistic'],['left'],['upright'],['U0359.bmp'],['male'],[[8]],['male'],[[1]],[[9.98629257e-05]],SC
505,[[7]],[[506]],[[19]],['high holistic'],['left'],['upright'],['U0361.bmp'],['female'],[[12]],['female'],[[1]],[[0.06488436]],SC
506,[[7]],[[507]],[[5]],['low holistic'],['right'],['upright'],['U0076.bmp'],['male'],[[2]],['male'],[[1]],[[0.14943666]],SC
507,[[7]],[[508]],[[15]],['high holistic'],['left'],['inverted'],['U0312.bmp'],['male'],[[6]],['male'],[[1]],[[0.48689953]],SC
508,[[7]],[[509]],[[14]],['high holistic'],['left'],['upright'],['U0228.bmp'],['male'],[[8]],['male'],[[1]],[[0.17923316]],SC
509,[[7]],[[510]],[[6]],['high holistic'],['left'],['inverted'],['U0106.bmp'],['female'],[[4]],['male'],[[0]],[[0.08515963]],SC
510,[[7]],[[511]],[[17]],['low holistic'],['left'],['inverted'],['U0346.bmp'],['female'],[[4]],['female'],[[1]],[[0.06460836]],SC
511,[[7]],[[512]],[[11]],['low holistic'],['left'],['inverted'],['U0164.bmp'],['female'],[[12]],['female'],[[1]],[[0.00011108]],SC
512,[[7]],[[513]],[[4]],['low holistic'],['fovea'],['upright'],['U0061.bmp'],['female'],[[0]],['female'],[[1]],[[0.00010027]],SC
513,[[7]],[[514]],[[6]],['low holistic'],['fovea'],['inverted'],['U0106.bmp'],['male'],[[0]],['female'],[[0]],[[0.32472953]],SC
514,[[7]],[[515]],[[18]],['low holistic'],['left'],['inverted'],['U0359.bmp'],['male'],[[6]],['male'],[[1]],[[0.00015372]],SC
515,[[7]],[[516]],[[9]],['low holistic'],['left'],['upright'],['U0155.bmp'],['male'],[[4]],['male'],[[1]],[[0.01596801]],SC
516,[[7]],[[517]],[[15]],['high holistic'],['right'],['inverted'],['U0312.bmp'],['male'],[[4]],['male'],[[1]],[[0.14281998]],SC
517,[[7]],[[518]],[[7]],['low holistic'],['right'],['upright'],['U0107.bmp'],['female'],[[4]],['female'],[[1]],[[0.00010663]],SC
518,[[7]],[[519]],[[13]],['high holistic'],['right'],['upright'],['U0181.bmp'],['female'],[[10]],['female'],[[1]],[[0.04609721]],SC
519,[[7]],[[520]],[[9]],['high holistic'],['right'],['inverted'],['U0155.bmp'],['female'],[[12]],['female'],[[1]],[[0.42967322]],SC
520,[[7]],[[521]],[[1]],['high holistic'],['left'],['upright'],['U0006.bmp'],['female'],[[8]],['female'],[[1]],[[0.26520129]],SC
521,[[7]],[[522]],[[10]],['high holistic'],['left'],['upright'],['U0159.bmp'],['male'],[[6]],['male'],[[1]],[[0.19808845]],SC
522,[[7]],[[523]],[[6]],['high holistic'],['left'],['upright'],['U0106.bmp'],['female'],[[2]],['female'],[[1]],[[0.12637394]],SC
523,[[7]],[[524]],[[7]],['low holistic'],['right'],['inverted'],['U0107.bmp'],['female'],[[8]],['female'],[[1]],[[0.00026071]],SC
524,[[7]],[[525]],[[16]],['high holistic'],['right'],['inverted'],['U0335.bmp'],['female'],[[8]],['female'],[[1]],[[0.72768342]],SC
525,[[7]],[[526]],[[13]],['low holistic'],['right'],['upright'],['U0181.bmp'],['male'],[[10]],['male'],[[1]],[[0.01122911]],SC
526,[[7]],[[527]],[[14]],['high holistic'],['right'],['inverted'],['U0228.bmp'],['male'],[[10]],['female'],[[0]],[[0.01859003]],SC
527,[[7]],[[528]],[[1]],['low holistic'],['left'],['upright'],['U0006.bmp'],['female'],[[8]],['female'],[[1]],[[9.92398709e-05]],SC
528,[[7]],[[529]],[[15]],['high holistic'],['right'],['upright'],['U0312.bmp'],['male'],[[8]],['male'],[[1]],[[0.16039044]],SC
529,[[7]],[[530]],[[20]],['high holistic'],['right'],['upright'],['U0362.bmp'],['female'],[[12]],['male'],[[0]],[[1.20988055]],SC
530,[[7]],[[531]],[[4]],['high holistic'],['right'],['upright'],['U0061.bmp'],['female'],[[12]],['female'],[[1]],[[0.07304859]],SC
531,[[7]],[[532]],[[14]],['high holistic'],['left'],['upright'],['U0228.bmp'],['male'],[[4]],['male'],[[1]],[[0.05321457]],SC
532,[[7]],[[533]],[[15]],['low holistic'],['fovea'],['inverted'],['U0312.bmp'],['male'],[[0]],['male'],[[1]],[[0.13208959]],SC
533,[[7]],[[534]],[[6]],['low holistic'],['left'],['inverted'],['U0106.bmp'],['male'],[[2]],['male'],[[1]],[[9.99318436e-05]],SC
534,[[7]],[[535]],[[1]],['high holistic'],['right'],['inverted'],['U0006.bmp'],['female'],[[4]],['female'],[[1]],[[0.17204587]],SC
535,[[7]],[[536]],[[20]],['high holistic'],['right'],['inverted'],['U0362.bmp'],['female'],[[4]],['female'],[[1]],[[0.27678025]],SC
536,[[7]],[[537]],[[14]],['high holistic'],['left'],['upright'],['U0228.bmp'],['male'],[[8]],['male'],[[1]],[[0.04108213]],SC
537,[[7]],[[538]],[[15]],['low holistic'],['left'],['inverted'],['U0312.bmp'],['male'],[[6]],['male'],[[1]],[[0.05741979]],SC
538,[[7]],[[539]],[[4]],['high holistic'],['right'],['upright'],['U0061.bmp'],['female'],[[2]],['female'],[[1]],[[0.029678]],SC
539,[[7]],[[540]],[[5]],['high holistic'],['left'],['upright'],['U0076.bmp'],['female'],[[6]],['female'],[[1]],[[0.25028325]],SC
540,[[7]],[[541]],[[9]],['low holistic'],['right'],['inverted'],['U0155.bmp'],['male'],[[4]],['male'],[[1]],[[0.11289609]],SC
541,[[7]],[[542]],[[9]],['low holistic'],['fovea'],['upright'],['U0155.bmp'],['male'],[[0]],['male'],[[1]],[[0.00010063]],SC
542,[[7]],[[543]],[[3]],['high holistic'],['left'],['inverted'],['U0020.bmp'],['male'],[[4]],['male'],[[1]],[[0.09175092]],SC
543,[[7]],[[544]],[[4]],['low holistic'],['left'],['upright'],['U0061.bmp'],['female'],[[4]],['female'],[[1]],[[0.06389359]],SC
544,[[7]],[[545]],[[10]],['high holistic'],['right'],['inverted'],['U0159.bmp'],['male'],[[4]],['female'],[[0]],[[0.26817235]],SC
545,[[7]],[[546]],[[20]],['high holistic'],['left'],['upright'],['U0362.bmp'],['female'],[[10]],['male'],[[0]],[[0.18602136]],SC
546,[[7]],[[547]],[[7]],['high holistic'],['right'],['upright'],['U0107.bmp'],['female'],[[10]],['male'],[[0]],[[0.0001027]],SC
547,[[7]],[[548]],[[9]],['low holistic'],['left'],['upright'],['U0155.bmp'],['male'],[[2]],['male'],[[1]],[[0.00010007]],SC
548,[[7]],[[549]],[[10]],['high holistic'],['right'],['inverted'],['U0159.bmp'],['male'],[[2]],['female'],[[0]],[[9.89232212e-05]],SC
549,[[7]],[[550]],[[4]],['low holistic'],['right'],['inverted'],['U0061.bmp'],['female'],[[8]],['female'],[[1]],[[0.00166504]],SC
550,[[7]],[[551]],[[3]],['high holistic'],['left'],['inverted'],['U0020.bmp'],['male'],[[8]],['male'],[[1]],[[0.479673]],SC
551,[[7]],[[552]],[[9]],['low holistic'],['right'],['upright'],['U0155.bmp'],['male'],[[2]],['male'],[[1]],[[0.00010906]],SC
552,[[7]],[[553]],[[15]],['high holistic'],['right'],['inverted'],['U0312.bmp'],['male'],[[12]],['female'],[[0]],[[0.31702092]],SC
553,[[7]],[[554]],[[17]],['low holistic'],['left'],['inverted'],['U0346.bmp'],['female'],[[4]],['female'],[[1]],[[0.00010702]],SC
554,[[7]],[[555]],[[9]],['low holistic'],['right'],['inverted'],['U0155.bmp'],['male'],[[12]],['male'],[[1]],[[0.34387434]],SC
555,[[7]],[[556]],[[14]],['low holistic'],['right'],['upright'],['U0228.bmp'],['male'],[[2]],['male'],[[1]],[[0.00040408]],SC
556,[[7]],[[557]],[[15]],['high holistic'],['fovea'],['upright'],['U0312.bmp'],['male'],[[0]],['male'],[[1]],[[0.00019135]],SC
557,[[7]],[[558]],[[3]],['low holistic'],['left'],['inverted'],['U0020.bmp'],['female'],[[4]],['female'],[[1]],[[0.00032203]],SC
558,[[7]],[[559]],[[7]],['low holistic'],['right'],['inverted'],['U0107.bmp'],['female'],[[6]],['female'],[[1]],[[0.00038401]],SC
559,[[7]],[[560]],[[18]],['low holistic'],['fovea'],['upright'],['U0359.bmp'],['male'],[[0]],['male'],[[1]],[[0.0001224]],SC
560,[[7]],[[561]],[[18]],['high holistic'],['right'],['upright'],['U0359.bmp'],['male'],[[8]],['male'],[[1]],[[0.03285551]],SC
561,[[7]],[[562]],[[17]],['high holistic'],['left'],['inverted'],['U0346.bmp'],['male'],[[8]],['male'],[[1]],[[0.16685402]],SC
562,[[7]],[[563]],[[16]],['low holistic'],['fovea'],['inverted'],['U0335.bmp'],['female'],[[0]],['female'],[[1]],[[0.00010794]],SC
563,[[7]],[[564]],[[1]],['low holistic'],['left'],['inverted'],['U0006.bmp'],['female'],[[6]],['female'],[[1]],[[0.00010772]],SC
564,[[7]],[[565]],[[12]],['low holistic'],['left'],['inverted'],['U0178.bmp'],['female'],[[6]],['female'],[[1]],[[0.03031899]],SC
565,[[7]],[[566]],[[6]],['high holistic'],['left'],['inverted'],['U0106.bmp'],['female'],[[2]],['female'],[[1]],[[0.00010686]],SC
566,[[7]],[[567]],[[6]],['high holistic'],['fovea'],['upright'],['U0106.bmp'],['female'],[[0]],['female'],[[1]],[[0.00010701]],SC
567,[[7]],[[568]],[[19]],['high holistic'],['left'],['upright'],['U0361.bmp'],['female'],[[4]],['female'],[[1]],[[0.00045404]],SC
568,[[7]],[[569]],[[10]],['high holistic'],['left'],['inverted'],['U0159.bmp'],['male'],[[6]],['female'],[[0]],[[0.22848909]],SC
569,[[7]],[[570]],[[5]],['low holistic'],['fovea'],['inverted'],['U0076.bmp'],['male'],[[0]],['male'],[[1]],[[0.19397214]],SC
570,[[7]],[[571]],[[13]],['low holistic'],['left'],['inverted'],['U0181.bmp'],['male'],[[4]],['male'],[[1]],[[0.08233364]],SC
571,[[7]],[[572]],[[7]],['low holistic'],['left'],['upright'],['U0107.bmp'],['female'],[[10]],['female'],[[1]],[[0.00010668]],SC
572,[[7]],[[573]],[[7]],['low holistic'],['right'],['inverted'],['U0107.bmp'],['female'],[[12]],['female'],[[1]],[[0.00010019]],SC
573,[[7]],[[574]],[[12]],['low holistic'],['right'],['upright'],['U0178.bmp'],['female'],[[10]],['female'],[[1]],[[0.00010838]],SC
574,[[7]],[[575]],[[15]],['low holistic'],['right'],['upright'],['U0312.bmp'],['male'],[[2]],['male'],[[1]],[[0.00010129]],SC
575,[[7]],[[576]],[[7]],['low holistic'],['fovea'],['upright'],['U0107.bmp'],['female'],[[0]],['female'],[[1]],[[0.0001642]],SC
576,[[7]],[[577]],[[6]],['high holistic'],['left'],['upright'],['U0106.bmp'],['female'],[[12]],['female'],[[1]],[[0.06952433]],SC
577,[[7]],[[578]],[[20]],['high holistic'],['left'],['upright'],['U0362.bmp'],['female'],[[6]],['male'],[[0]],[[0.11465834]],SC
578,[[7]],[[579]],[[18]],['low holistic'],['fovea'],['upright'],['U0359.bmp'],['male'],[[0]],['male'],[[1]],[[9.99690965e-05]],SC
579,[[7]],[[580]],[[10]],['high holistic'],['left'],['upright'],['U0159.bmp'],['male'],[[2]],['male'],[[1]],[[0.00012089]],SC
580,[[7]],[[581]],[[11]],['low holistic'],['left'],['upright'],['U0164.bmp'],['female'],[[8]],['female'],[[1]],[[0.0001003]],SC
581,[[7]],[[582]],[[1]],['low holistic'],['right'],['upright'],['U0006.bmp'],['female'],[[8]],['female'],[[1]],[[0.00010692]],SC
582,[[7]],[[583]],[[2]],['low holistic'],['left'],['inverted'],['U0014.bmp'],['male'],[[2]],['male'],[[1]],[[0.07608373]],SC
583,[[7]],[[584]],[[9]],['low holistic'],['right'],['upright'],['U0155.bmp'],['male'],[[10]],['male'],[[1]],[[0.000107]],SC
584,[[7]],[[585]],[[15]],['high holistic'],['right'],['inverted'],['U0312.bmp'],['male'],[[6]],['female'],[[0]],[[0.00010002]],SC
585,[[7]],[[586]],[[19]],['high holistic'],['right'],['inverted'],['U0361.bmp'],['female'],[[10]],['female'],[[1]],[[0.23226628]],SC
586,[[7]],[[587]],[[2]],['low holistic'],['left'],['upright'],['U0014.bmp'],['male'],[[6]],['male'],[[1]],[[0.00034533]],SC
587,[[7]],[[588]],[[1]],['low holistic'],['right'],['upright'],['U0006.bmp'],['female'],[[6]],['female'],[[1]],[[0.00010705]],SC
588,[[7]],[[589]],[[14]],['low holistic'],['right'],['upright'],['U0228.bmp'],['male'],[[10]],['male'],[[1]],[[0.01275208]],SC
589,[[7]],[[590]],[[18]],['high holistic'],['right'],['upright'],['U0359.bmp'],['male'],[[8]],['male'],[[1]],[[0.01334966]],SC
590,[[7]],[[591]],[[6]],['low holistic'],['right'],['inverted'],['U0106.bmp'],['male'],[[2]],['male'],[[1]],[[0.0749642]],SC
591,[[7]],[[592]],[[16]],['high holistic'],['left'],['upright'],['U0335.bmp'],['female'],[[4]],['female'],[[1]],[[0.08849418]],SC
592,[[7]],[[593]],[[19]],['low holistic'],['right'],['inverted'],['U0361.bmp'],['female'],[[6]],['female'],[[1]],[[0.14833734]],SC
593,[[7]],[[594]],[[6]],['high holistic'],['right'],['inverted'],['U0106.bmp'],['female'],[[6]],['female'],[[1]],[[0.24762202]],SC
594,[[7]],[[595]],[[19]],['high holistic'],['right'],['inverted'],['U0361.bmp'],['female'],[[8]],['female'],[[1]],[[0.0755718]],SC
595,[[7]],[[596]],[[14]],['low holistic'],['right'],['upright'],['U0228.bmp'],['male'],[[8]],['male'],[[1]],[[0.0001005]],SC
596,[[7]],[[597]],[[4]],['low holistic'],['right'],['upright'],['U0061.bmp'],['female'],[[4]],['female'],[[1]],[[0.00011206]],SC
597,[[7]],[[598]],[[13]],['high holistic'],['left'],['inverted'],['U0181.bmp'],['female'],[[12]],['female'],[[1]],[[0.19907077]],SC
598,[[7]],[[599]],[[14]],['high holistic'],['right'],['upright'],['U0228.bmp'],['male'],[[12]],['male'],[[1]],[[0.05587973]],SC
599,[[7]],[[600]],[[8]],['high holistic'],['left'],['inverted'],['U0137.bmp'],['female'],[[12]],['female'],[[1]],[[0.28620353]],SC
600,[[7]],[[601]],[[15]],['low holistic'],['right'],['inverted'],['U0312.bmp'],['male'],[[12]],['male'],[[1]],[[0.04131203]],SC
601,[[7]],[[602]],[[10]],['high holistic'],['left'],['inverted'],['U0159.bmp'],['male'],[[12]],['male'],[[1]],[[0.17569085]],SC
602,[[7]],[[603]],[[6]],['low holistic'],['right'],['inverted'],['U0106.bmp'],['male'],[[2]],['male'],[[1]],[[9.99690965e-05]],SC
603,[[7]],[[604]],[[5]],['high holistic'],['right'],['upright'],['U0076.bmp'],['female'],[[2]],['female'],[[1]],[[0.18353414]],SC
604,[[7]],[[605]],[[18]],['high holistic'],['fovea'],['upright'],['U0359.bmp'],['male'],[[0]],['female'],[[0]],[[0.00048744]],SC
605,[[7]],[[606]],[[13]],['low holistic'],['left'],['inverted'],['U0181.bmp'],['male'],[[8]],['male'],[[1]],[[0.25645567]],SC
606,[[7]],[[607]],[[10]],['high holistic'],['left'],['upright'],['U0159.bmp'],['male'],[[2]],['male'],[[1]],[[0.0001086]],SC
607,[[7]],[[608]],[[20]],['high holistic'],['left'],['upright'],['U0362.bmp'],['female'],[[10]],['male'],[[0]],[[0.32404721]],SC
608,[[7]],[[609]],[[3]],['high holistic'],['left'],['upright'],['U0020.bmp'],['male'],[[6]],['male'],[[1]],[[0.02374414]],SC
609,[[7]],[[610]],[[8]],['high holistic'],['right'],['inverted'],['U0137.bmp'],['female'],[[4]],['female'],[[1]],[[0.18070123]],SC
610,[[7]],[[611]],[[4]],['low holistic'],['right'],['upright'],['U0061.bmp'],['female'],[[10]],['female'],[[1]],[[0.00549853]],SC
611,[[7]],[[612]],[[6]],['high holistic'],['right'],['upright'],['U0106.bmp'],['female'],[[4]],['female'],[[1]],[[0.0851931]],SC
612,[[7]],[[613]],[[6]],['low holistic'],['right'],['upright'],['U0106.bmp'],['male'],[[12]],['male'],[[1]],[[0.08964468]],SC
613,[[7]],[[614]],[[1]],['low holistic'],['fovea'],['upright'],['U0006.bmp'],['female'],[[0]],['female'],[[1]],[[1.92575124]],SC
614,[[7]],[[615]],[[13]],['low holistic'],['fovea'],['inverted'],['U0181.bmp'],['male'],[[0]],['male'],[[1]],[[0.00799268]],SC
615,[[7]],[[616]],[[4]],['low holistic'],['left'],['inverted'],['U0061.bmp'],['female'],[[4]],['female'],[[1]],[[0.01450546]],SC
616,[[7]],[[617]],[[17]],['high holistic'],['right'],['upright'],['U0346.bmp'],['male'],[[10]],['male'],[[1]],[[0.00010175]],SC
617,[[7]],[[618]],[[5]],['low holistic'],['right'],['upright'],['U0076.bmp'],['male'],[[10]],['male'],[[1]],[[0.13325943]],SC
618,[[7]],[[619]],[[1]],['low holistic'],['right'],['upright'],['U0006.bmp'],['female'],[[8]],['female'],[[1]],[[1.62552432]],SC
619,[[7]],[[620]],[[8]],['low holistic'],['left'],['upright'],['U0137.bmp'],['male'],[[2]],['male'],[[1]],[[0.0800629]],SC
620,[[7]],[[621]],[[17]],['high holistic'],['left'],['inverted'],['U0346.bmp'],['male'],[[4]],['male'],[[1]],[[0.19598462]],SC
621,[[7]],[[622]],[[9]],['high holistic'],['fovea'],['inverted'],['U0155.bmp'],['female'],[[0]],['male'],[[0]],[[0.53097856]],SC
622,[[7]],[[623]],[[19]],['low holistic'],['left'],['inverted'],['U0361.bmp'],['female'],[[12]],['female'],[[1]],[[0.06955892]],SC
623,[[7]],[[624]],[[18]],['high holistic'],['left'],['inverted'],['U0359.bmp'],['male'],[[12]],['male'],[[1]],[[0.21074449]],SC
624,[[7]],[[625]],[[14]],['low holistic'],['left'],['inverted'],['U0228.bmp'],['male'],[[8]],['male'],[[1]],[[2.74540074]],SC
625,[[7]],[[626]],[[18]],['low holistic'],['left'],['upright'],['U0359.bmp'],['male'],[[4]],['male'],[[1]],[[0.0370205]],SC
626,[[7]],[[627]],[[12]],['low holistic'],['right'],['upright'],['U0178.bmp'],['female'],[[12]],['female'],[[1]],[[0.16077415]],SC
627,[[7]],[[628]],[[12]],['high holistic'],['right'],['upright'],['U0178.bmp'],['male'],[[8]],['male'],[[1]],[[0.01964829]],SC
628,[[7]],[[629]],[[16]],['high holistic'],['right'],['upright'],['U0335.bmp'],['female'],[[4]],['female'],[[1]],[[0.04205508]],SC
629,[[7]],[[630]],[[11]],['low holistic'],['left'],['upright'],['U0164.bmp'],['female'],[[12]],['female'],[[1]],[[0.15264425]],SC
630,[[7]],[[631]],[[2]],['low holistic'],['right'],['inverted'],['U0014.bmp'],['male'],[[10]],['male'],[[1]],[[0.24185461]],SC
631,[[7]],[[632]],[[7]],['low holistic'],['left'],['inverted'],['U0107.bmp'],['female'],[[6]],['female'],[[1]],[[0.02301372]],SC
632,[[7]],[[633]],[[19]],['high holistic'],['right'],['upright'],['U0361.bmp'],['female'],[[2]],['female'],[[1]],[[0.24567942]],SC
633,[[7]],[[634]],[[19]],['low holistic'],['right'],['upright'],['U0361.bmp'],['female'],[[12]],['female'],[[1]],[[0.00016407]],SC
634,[[7]],[[635]],[[6]],['low holistic'],['right'],['upright'],['U0106.bmp'],['male'],[[4]],['male'],[[1]],[[0.21128187]],SC
635,[[7]],[[636]],[[10]],['high holistic'],['left'],['upright'],['U0159.bmp'],['male'],[[12]],['male'],[[1]],[[0.27492529]],SC
636,[[7]],[[637]],[[13]],['high holistic'],['right'],['inverted'],['U0181.bmp'],['female'],[[6]],['male'],[[0]],[[0.0725303]],SC
637,[[7]],[[638]],[[8]],['low holistic'],['right'],['inverted'],['U0137.bmp'],['male'],[[4]],['male'],[[1]],[[0.34852477]],SC
638,[[7]],[[639]],[[1]],['high holistic'],['left'],['inverted'],['U0006.bmp'],['female'],[[12]],['female'],[[1]],[[0.23718232]],SC
639,[[7]],[[640]],[[6]],['low holistic'],['right'],['inverted'],['U0106.bmp'],['male'],[[12]],['male'],[[1]],[[0.41108707]],SC
640,[[7]],[[641]],[[5]],['high holistic'],['left'],['inverted'],['U0076.bmp'],['female'],[[12]],['male'],[[0]],[[0.04362167]],SC
641,[[7]],[[642]],[[17]],['high holistic'],['right'],['inverted'],['U0346.bmp'],['male'],[[8]],['female'],[[0]],[[0.09750651]],SC
642,[[7]],[[643]],[[20]],['low holistic'],['right'],['upright'],['U0362.bmp'],['male'],[[6]],['male'],[[1]],[[0.14929484]],SC
643,[[7]],[[644]],[[3]],['high holistic'],['right'],['inverted'],['U0020.bmp'],['male'],[[10]],['male'],[[1]],[[0.25522819]],SC
644,[[7]],[[645]],[[20]],['low holistic'],['right'],['inverted'],['U0362.bmp'],['male'],[[10]],['male'],[[1]],[[0.00012066]],SC
645,[[7]],[[646]],[[9]],['high holistic'],['left'],['upright'],['U0155.bmp'],['female'],[[8]],['male'],[[0]],[[0.2187515]],SC
646,[[7]],[[647]],[[18]],['high holistic'],['right'],['inverted'],['U0359.bmp'],['male'],[[4]],['male'],[[1]],[[0.31581094]],SC
647,[[7]],[[648]],[[1]],['high holistic'],['right'],['inverted'],['U0006.bmp'],['female'],[[12]],['female'],[[1]],[[0.11646663]],SC
648,[[7]],[[649]],[[17]],['high holistic'],['left'],['inverted'],['U0346.bmp'],['male'],[[6]],['male'],[[1]],[[0.24866985]],SC
649,[[7]],[[650]],[[15]],['low holistic'],['right'],['inverted'],['U0312.bmp'],['male'],[[4]],['male'],[[1]],[[0.06207569]],SC
650,[[7]],[[651]],[[4]],['low holistic'],['left'],['upright'],['U0061.bmp'],['female'],[[4]],['female'],[[1]],[[0.11080511]],SC
651,[[7]],[[652]],[[20]],['high holistic'],['left'],['upright'],['U0362.bmp'],['female'],[[4]],['male'],[[0]],[[0.03302268]],SC
652,[[7]],[[653]],[[13]],['low holistic'],['right'],['inverted'],['U0181.bmp'],['male'],[[12]],['male'],[[1]],[[0.15091379]],SC
653,[[7]],[[654]],[[19]],['low holistic'],['left'],['upright'],['U0361.bmp'],['female'],[[2]],['female'],[[1]],[[0.00010694]],SC
654,[[7]],[[655]],[[10]],['low holistic'],['left'],['inverted'],['U0159.bmp'],['female'],[[8]],['female'],[[1]],[[0.03338612]],SC
655,[[7]],[[656]],[[14]],['low holistic'],['right'],['inverted'],['U0228.bmp'],['male'],[[10]],['male'],[[1]],[[0.02307434]],SC
656,[[7]],[[657]],[[11]],['low holistic'],['right'],['upright'],['U0164.bmp'],['female'],[[6]],['female'],[[1]],[[0.00755035]],SC
657,[[7]],[[658]],[[14]],['low holistic'],['right'],['inverted'],['U0228.bmp'],['male'],[[10]],['male'],[[1]],[[9.97167081e-05]],SC
658,[[7]],[[659]],[[4]],['high holistic'],['right'],['upright'],['U0061.bmp'],['female'],[[10]],['female'],[[1]],[[0.14236636]],SC
659,[[7]],[[660]],[[7]],['low holistic'],['right'],['upright'],['U0107.bmp'],['female'],[[6]],['female'],[[1]],[[0.00014913]],SC
660,[[7]],[[661]],[[17]],['low holistic'],['left'],['upright'],['U0346.bmp'],['female'],[[6]],['female'],[[1]],[[0.00010742]],SC
661,[[7]],[[662]],[[7]],['high holistic'],['right'],['upright'],['U0107.bmp'],['female'],[[8]],['female'],[[1]],[[0.08743615]],SC
662,[[7]],[[663]],[[10]],['low holistic'],['left'],['inverted'],['U0159.bmp'],['female'],[[12]],['female'],[[1]],[[0.06697535]],SC
663,[[7]],[[664]],[[5]],['high holistic'],['left'],['upright'],['U0076.bmp'],['female'],[[2]],['female'],[[1]],[[0.46322788]],SC
664,[[7]],[[665]],[[7]],['low holistic'],['right'],['inverted'],['U0107.bmp'],['female'],[[6]],['female'],[[1]],[[0.00013716]],SC
665,[[7]],[[666]],[[9]],['high holistic'],['right'],['inverted'],['U0155.bmp'],['female'],[[8]],['male'],[[0]],[[0.25295398]],SC
666,[[7]],[[667]],[[5]],['low holistic'],['left'],['inverted'],['U0076.bmp'],['male'],[[12]],['female'],[[0]],[[0.1377101]],SC
667,[[7]],[[668]],[[1]],['low holistic'],['right'],['inverted'],['U0006.bmp'],['female'],[[2]],['female'],[[1]],[[0.00011479]],SC
668,[[7]],[[669]],[[5]],['high holistic'],['left'],['upright'],['U0076.bmp'],['female'],[[6]],['female'],[[1]],[[0.00010581]],SC
669,[[7]],[[670]],[[16]],['low holistic'],['left'],['inverted'],['U0335.bmp'],['female'],[[2]],['female'],[[1]],[[0.00010005]],SC
670,[[7]],[[671]],[[18]],['high holistic'],['left'],['inverted'],['U0359.bmp'],['male'],[[4]],['male'],[[1]],[[0.28477536]],SC
671,[[7]],[[672]],[[17]],['high holistic'],['left'],['inverted'],['U0346.bmp'],['male'],[[10]],['female'],[[0]],[[0.03204903]],SC
672,[[7]],[[673]],[[18]],['low holistic'],['left'],['inverted'],['U0359.bmp'],['male'],[[4]],['male'],[[1]],[[0.02130711]],SC
673,[[7]],[[674]],[[16]],['low holistic'],['right'],['inverted'],['U0335.bmp'],['female'],[[12]],['female'],[[1]],[[0.00010484]],SC
674,[[7]],[[675]],[[12]],['high holistic'],['right'],['inverted'],['U0178.bmp'],['male'],[[2]],['female'],[[0]],[[0.56366447]],SC
675,[[7]],[[676]],[[18]],['high holistic'],['left'],['upright'],['U0359.bmp'],['male'],[[2]],['male'],[[1]],[[0.27081805]],SC
676,[[7]],[[677]],[[14]],['low holistic'],['right'],['upright'],['U0228.bmp'],['male'],[[4]],['male'],[[1]],[[0.24904091]],SC
677,[[7]],[[678]],[[17]],['high holistic'],['right'],['upright'],['U0346.bmp'],['male'],[[4]],['female'],[[0]],[[0.20137018]],SC
678,[[7]],[[679]],[[15]],['high holistic'],['right'],['upright'],['U0312.bmp'],['male'],[[2]],['male'],[[1]],[[0.12687516]],SC
679,[[7]],[[680]],[[11]],['low holistic'],['right'],['inverted'],['U0164.bmp'],['female'],[[8]],['female'],[[1]],[[0.00013081]],SC
680,[[7]],[[681]],[[3]],['low holistic'],['right'],['inverted'],['U0020.bmp'],['female'],[[4]],['female'],[[1]],[[0.36143214]],SC
681,[[7]],[[682]],[[14]],['high holistic'],['right'],['upright'],['U0228.bmp'],['male'],[[4]],['male'],[[1]],[[0.1083633]],SC
682,[[7]],[[683]],[[16]],['high holistic'],['left'],['inverted'],['U0335.bmp'],['female'],[[2]],['male'],[[0]],[[0.39761042]],SC
683,[[7]],[[684]],[[11]],['low holistic'],['right'],['inverted'],['U0164.bmp'],['female'],[[10]],['female'],[[1]],[[0.09369511]],SC
684,[[7]],[[685]],[[8]],['high holistic'],['left'],['upright'],['U0137.bmp'],['female'],[[4]],['female'],[[1]],[[0.07491781]],SC
685,[[7]],[[686]],[[17]],['low holistic'],['right'],['inverted'],['U0346.bmp'],['female'],[[12]],['female'],[[1]],[[0.41398761]],SC
686,[[7]],[[687]],[[10]],['high holistic'],['right'],['upright'],['U0159.bmp'],['male'],[[4]],['male'],[[1]],[[0.11019014]],SC
687,[[7]],[[688]],[[10]],['high holistic'],['left'],['inverted'],['U0159.bmp'],['male'],[[12]],['male'],[[1]],[[0.49746524]],SC
688,[[7]],[[689]],[[16]],['low holistic'],['left'],['upright'],['U0335.bmp'],['female'],[[10]],['female'],[[1]],[[0.53291383]],SC
689,[[7]],[[690]],[[17]],['low holistic'],['right'],['inverted'],['U0346.bmp'],['female'],[[2]],['female'],[[1]],[[0.34273497]],SC
690,[[7]],[[691]],[[15]],['high holistic'],['right'],['inverted'],['U0312.bmp'],['male'],[[8]],['female'],[[0]],[[0.77035691]],SC
691,[[7]],[[692]],[[14]],['low holistic'],['right'],['inverted'],['U0228.bmp'],['male'],[[2]],['male'],[[1]],[[0.36295705]],SC
692,[[7]],[[693]],[[14]],['low holistic'],['right'],['inverted'],['U0228.bmp'],['male'],[[10]],['male'],[[1]],[[0.05908524]],SC
693,[[7]],[[694]],[[4]],['low holistic'],['right'],['upright'],['U0061.bmp'],['female'],[[6]],['female'],[[1]],[[0.30504677]],SC
694,[[7]],[[695]],[[3]],['high holistic'],['right'],['upright'],['U0020.bmp'],['male'],[[6]],['male'],[[1]],[[0.24369365]],SC
695,[[7]],[[696]],[[15]],['low holistic'],['right'],['inverted'],['U0312.bmp'],['male'],[[2]],['male'],[[1]],[[0.03511221]],SC
696,[[7]],[[697]],[[15]],['low holistic'],['left'],['inverted'],['U0312.bmp'],['male'],[[2]],['male'],[[1]],[[0.00010771]],SC
697,[[7]],[[698]],[[15]],['low holistic'],['fovea'],['inverted'],['U0312.bmp'],['male'],[[0]],['male'],[[1]],[[1.61678199]],SC
698,[[7]],[[699]],[[19]],['high holistic'],['right'],['upright'],['U0361.bmp'],['female'],[[10]],['female'],[[1]],[[0.21548114]],SC
699,[[7]],[[700]],[[11]],['high holistic'],['left'],['inverted'],['U0164.bmp'],['female'],[[4]],['female'],[[1]],[[0.54958669]],SC
700,[[7]],[[701]],[[15]],['high holistic'],['right'],['upright'],['U0312.bmp'],['male'],[[10]],['male'],[[1]],[[0.18355004]],SC
701,[[7]],[[702]],[[14]],['low holistic'],['right'],['inverted'],['U0228.bmp'],['male'],[[2]],['male'],[[1]],[[0.11240356]],SC
702,[[7]],[[703]],[[5]],['low holistic'],['left'],['upright'],['U0076.bmp'],['male'],[[10]],['female'],[[0]],[[0.25997863]],SC
703,[[7]],[[704]],[[3]],['low holistic'],['right'],['inverted'],['U0020.bmp'],['female'],[[6]],['female'],[[1]],[[0.02304077]],SC
704,[[7]],[[705]],[[15]],['low holistic'],['right'],['inverted'],['U0312.bmp'],['male'],[[2]],['male'],[[1]],[[0.00010011]],SC
705,[[7]],[[706]],[[11]],['low holistic'],['right'],['inverted'],['U0164.bmp'],['female'],[[8]],['female'],[[1]],[[0.00659816]],SC
706,[[7]],[[707]],[[13]],['high holistic'],['left'],['upright'],['U0181.bmp'],['female'],[[8]],['male'],[[0]],[[0.0061128]],SC
707,[[7]],[[708]],[[3]],['high holistic'],['right'],['inverted'],['U0020.bmp'],['male'],[[8]],['female'],[[0]],[[0.11656321]],SC
708,[[7]],[[709]],[[2]],['high holistic'],['right'],['inverted'],['U0014.bmp'],['male'],[[10]],['female'],[[0]],[[0.48160954]],SC
709,[[7]],[[710]],[[6]],['high holistic'],['right'],['inverted'],['U0106.bmp'],['female'],[[4]],['female'],[[1]],[[0.50215912]],SC
710,[[7]],[[711]],[[10]],['high holistic'],['right'],['inverted'],['U0159.bmp'],['male'],[[2]],['female'],[[0]],[[0.25559423]],SC
711,[[7]],[[712]],[[8]],['low holistic'],['left'],['upright'],['U0137.bmp'],['male'],[[4]],['male'],[[1]],[[0.0058683]],SC
712,[[7]],[[713]],[[5]],['high holistic'],['left'],['inverted'],['U0076.bmp'],['female'],[[2]],['female'],[[1]],[[0.30896277]],SC
713,[[7]],[[714]],[[10]],['high holistic'],['left'],['upright'],['U0159.bmp'],['male'],[[2]],['male'],[[1]],[[0.59959659]],SC
714,[[7]],[[715]],[[13]],['high holistic'],['left'],['inverted'],['U0181.bmp'],['female'],[[8]],['female'],[[1]],[[0.09678521]],SC
715,[[7]],[[716]],[[11]],['high holistic'],['right'],['inverted'],['U0164.bmp'],['female'],[[10]],['male'],[[0]],[[0.34940735]],SC
716,[[7]],[[717]],[[10]],['high holistic'],['right'],['inverted'],['U0159.bmp'],['male'],[[2]],['male'],[[1]],[[0.38974285]],SC
717,[[7]],[[718]],[[12]],['high holistic'],['fovea'],['upright'],['U0178.bmp'],['male'],[[0]],['male'],[[1]],[[0.18825131]],SC
718,[[7]],[[719]],[[18]],['high holistic'],['left'],['inverted'],['U0359.bmp'],['male'],[[6]],['male'],[[1]],[[0.26999418]],SC
719,[[7]],[[720]],[[9]],['low holistic'],['right'],['upright'],['U0155.bmp'],['male'],[[4]],['male'],[[1]],[[0.00021503]],SC
720,[[7]],[[721]],[[13]],['high holistic'],['right'],['inverted'],['U0181.bmp'],['female'],[[6]],['female'],[[1]],[[0.30623129]],SC
721,[[7]],[[722]],[[19]],['high holistic'],['right'],['inverted'],['U0361.bmp'],['female'],[[12]],['female'],[[1]],[[0.16465242]],SC
722,[[7]],[[723]],[[9]],['high holistic'],['left'],['inverted'],['U0155.bmp'],['female'],[[2]],['female'],[[1]],[[0.39022568]],SC
723,[[7]],[[724]],[[18]],['low holistic'],['left'],['upright'],['U0359.bmp'],['male'],[[2]],['male'],[[1]],[[0.00012815]],SC
724,[[7]],[[725]],[[7]],['low holistic'],['right'],['inverted'],['U0107.bmp'],['female'],[[8]],['female'],[[1]],[[0.09380849]],SC
725,[[7]],[[726]],[[4]],['high holistic'],['right'],['upright'],['U0061.bmp'],['female'],[[4]],['female'],[[1]],[[0.03169771]],SC
726,[[7]],[[727]],[[4]],['low holistic'],['right'],['inverted'],['U0061.bmp'],['female'],[[6]],['female'],[[1]],[[0.00053133]],SC
727,[[7]],[[728]],[[17]],['high holistic'],['fovea'],['upright'],['U0346.bmp'],['male'],[[0]],['male'],[[1]],[[0.00032901]],SC
728,[[7]],[[729]],[[16]],['low holistic'],['left'],['upright'],['U0335.bmp'],['female'],[[2]],['female'],[[1]],[[0.00023861]],SC
729,[[7]],[[730]],[[17]],['low holistic'],['right'],['upright'],['U0346.bmp'],['female'],[[4]],['female'],[[1]],[[0.08762057]],SC
730,[[7]],[[731]],[[1]],['high holistic'],['left'],['inverted'],['U0006.bmp'],['female'],[[10]],['female'],[[1]],[[0.22603823]],SC
731,[[7]],[[732]],[[7]],['low holistic'],['left'],['upright'],['U0107.bmp'],['female'],[[2]],['female'],[[1]],[[0.00038536]],SC
732,[[7]],[[733]],[[20]],['high holistic'],['right'],['upright'],['U0362.bmp'],['female'],[[6]],['male'],[[0]],[[0.12966581]],SC
733,[[7]],[[734]],[[5]],['low holistic'],['left'],['inverted'],['U0076.bmp'],['male'],[[4]],['male'],[[1]],[[0.61097802]],SC
734,[[7]],[[735]],[[5]],['low holistic'],['right'],['upright'],['U0076.bmp'],['male'],[[6]],['male'],[[1]],[[0.20211543]],SC
735,[[7]],[[736]],[[20]],['high holistic'],['left'],['upright'],['U0362.bmp'],['female'],[[2]],['female'],[[1]],[[0.4906348]],SC
736,[[7]],[[737]],[[2]],['low holistic'],['left'],['upright'],['U0014.bmp'],['male'],[[4]],['male'],[[1]],[[0.06897242]],SC
737,[[7]],[[738]],[[15]],['high holistic'],['left'],['inverted'],['U0312.bmp'],['male'],[[2]],['male'],[[1]],[[0.46677523]],SC
738,[[7]],[[739]],[[18]],['low holistic'],['left'],['upright'],['U0359.bmp'],['male'],[[6]],['male'],[[1]],[[0.00010068]],SC
739,[[7]],[[740]],[[12]],['low holistic'],['fovea'],['upright'],['U0178.bmp'],['female'],[[0]],['female'],[[1]],[[0.00025574]],SC
740,[[7]],[[741]],[[4]],['low holistic'],['right'],['upright'],['U0061.bmp'],['female'],[[10]],['female'],[[1]],[[9.7554177e-05]],SC
741,[[7]],[[742]],[[3]],['high holistic'],['left'],['upright'],['U0020.bmp'],['male'],[[10]],['female'],[[0]],[[0.00027822]],SC
742,[[7]],[[743]],[[18]],['high holistic'],['left'],['inverted'],['U0359.bmp'],['male'],[[12]],['male'],[[1]],[[0.17504636]],SC
743,[[7]],[[744]],[[14]],['high holistic'],['left'],['upright'],['U0228.bmp'],['male'],[[12]],['male'],[[1]],[[0.16604078]],SC
744,[[7]],[[745]],[[9]],['low holistic'],['left'],['inverted'],['U0155.bmp'],['male'],[[4]],['male'],[[1]],[[0.287715]],SC
745,[[7]],[[746]],[[6]],['high holistic'],['left'],['upright'],['U0106.bmp'],['female'],[[2]],['female'],[[1]],[[0.04317795]],SC
746,[[7]],[[747]],[[11]],['high holistic'],['right'],['inverted'],['U0164.bmp'],['female'],[[6]],['male'],[[0]],[[0.06572639]],SC
747,[[7]],[[748]],[[15]],['low holistic'],['left'],['inverted'],['U0312.bmp'],['male'],[[8]],['male'],[[1]],[[0.10123485]],SC
748,[[7]],[[749]],[[16]],['low holistic'],['right'],['inverted'],['U0335.bmp'],['female'],[[10]],['female'],[[1]],[[0.0014909]],SC
749,[[7]],[[750]],[[9]],['low holistic'],['left'],['upright'],['U0155.bmp'],['male'],[[6]],['male'],[[1]],[[0.04153668]],SC
750,[[7]],[[751]],[[7]],['low holistic'],['left'],['upright'],['U0107.bmp'],['female'],[[4]],['female'],[[1]],[[0.00819863]],SC
751,[[7]],[[752]],[[19]],['low holistic'],['left'],['inverted'],['U0361.bmp'],['female'],[[10]],['female'],[[1]],[[0.15113561]],SC
752,[[7]],[[753]],[[6]],['high holistic'],['left'],['inverted'],['U0106.bmp'],['female'],[[8]],['female'],[[1]],[[0.63907734]],SC
753,[[7]],[[754]],[[19]],['low holistic'],['left'],['inverted'],['U0361.bmp'],['female'],[[4]],['female'],[[1]],[[0.07081664]],SC
754,[[7]],[[755]],[[2]],['high holistic'],['left'],['inverted'],['U0014.bmp'],['male'],[[8]],['female'],[[0]],[[0.08171424]],SC
755,[[7]],[[756]],[[19]],['low holistic'],['right'],['upright'],['U0361.bmp'],['female'],[[12]],['female'],[[1]],[[0.06302573]],SC
756,[[7]],[[757]],[[17]],['high holistic'],['right'],['inverted'],['U0346.bmp'],['male'],[[2]],['female'],[[0]],[[0.17207486]],SC
757,[[7]],[[758]],[[8]],['low holistic'],['left'],['upright'],['U0137.bmp'],['male'],[[8]],['male'],[[1]],[[0.07623679]],SC
758,[[7]],[[759]],[[17]],['low holistic'],['right'],['upright'],['U0346.bmp'],['female'],[[4]],['female'],[[1]],[[0.05744769]],SC
759,[[7]],[[760]],[[13]],['high holistic'],['left'],['upright'],['U0181.bmp'],['female'],[[12]],['female'],[[1]],[[0.18244535]],SC
760,[[7]],[[761]],[[18]],['low holistic'],['left'],['upright'],['U0359.bmp'],['male'],[[8]],['male'],[[1]],[[0.0301569]],SC
761,[[7]],[[762]],[[10]],['low holistic'],['right'],['upright'],['U0159.bmp'],['female'],[[8]],['female'],[[1]],[[0.00015707]],SC
762,[[7]],[[763]],[[14]],['high holistic'],['right'],['upright'],['U0228.bmp'],['male'],[[12]],['male'],[[1]],[[0.08285618]],SC
763,[[7]],[[764]],[[6]],['high holistic'],['right'],['upright'],['U0106.bmp'],['female'],[[6]],['female'],[[1]],[[0.05709061]],SC
764,[[7]],[[765]],[[17]],['high holistic'],['left'],['upright'],['U0346.bmp'],['male'],[[4]],['male'],[[1]],[[0.0004549]],SC
765,[[7]],[[766]],[[14]],['low holistic'],['right'],['inverted'],['U0228.bmp'],['male'],[[2]],['male'],[[1]],[[0.30121815]],SC
766,[[7]],[[767]],[[14]],['high holistic'],['left'],['upright'],['U0228.bmp'],['male'],[[4]],['male'],[[1]],[[0.00012219]],SC
767,[[7]],[[768]],[[7]],['low holistic'],['left'],['inverted'],['U0107.bmp'],['female'],[[6]],['female'],[[1]],[[9.97353345e-05]],SC
768,[[7]],[[769]],[[6]],['high holistic'],['right'],['upright'],['U0106.bmp'],['female'],[[10]],['female'],[[1]],[[0.08734727]],SC
769,[[7]],[[770]],[[11]],['high holistic'],['left'],['upright'],['U0164.bmp'],['female'],[[12]],['male'],[[0]],[[0.02813963]],SC
770,[[7]],[[771]],[[18]],['high holistic'],['right'],['inverted'],['U0359.bmp'],['male'],[[10]],['male'],[[1]],[[0.1452255]],SC
771,[[7]],[[772]],[[3]],['high holistic'],['left'],['upright'],['U0020.bmp'],['male'],[[12]],['male'],[[1]],[[0.01932924]],SC
772,[[7]],[[773]],[[19]],['low holistic'],['fovea'],['upright'],['U0361.bmp'],['female'],[[0]],['female'],[[1]],[[0.00010722]],SC
773,[[7]],[[774]],[[19]],['high holistic'],['left'],['inverted'],['U0361.bmp'],['female'],[[8]],['male'],[[0]],[[0.00010219]],SC
774,[[7]],[[775]],[[6]],['low holistic'],['right'],['upright'],['U0106.bmp'],['male'],[[12]],['male'],[[1]],[[0.22444238]],SC
775,[[7]],[[776]],[[2]],['high holistic'],['left'],['upright'],['U0014.bmp'],['male'],[[4]],['male'],[[1]],[[0.14238518]],SC
776,[[7]],[[777]],[[12]],['low holistic'],['left'],['upright'],['U0178.bmp'],['female'],[[4]],['female'],[[1]],[[0.07385478]],SC
777,[[7]],[[778]],[[6]],['low holistic'],['left'],['upright'],['U0106.bmp'],['male'],[[12]],['male'],[[1]],[[0.10126544]],SC
