,SUBID,TRIAL,MOONEYID,MOONEYCATEGORY,LOC,COND,MOONEY_NAME,MOONEY_GENDER,ECCENTRICITY,RESPONSE,ACCURACY,RT,SUBINIT
0,[[21]],[[1]],[[6]],['high holistic'],['right'],['inverted'],['U0106.bmp'],['female'],[[6]],['female'],[[1]],[[0.53695318]],SH
1,[[21]],[[2]],[[5]],['low holistic'],['right'],['upright'],['U0076.bmp'],['male'],[[4]],['male'],[[1]],[[0.21019792]],SH
2,[[21]],[[3]],[[20]],['high holistic'],['right'],['upright'],['U0362.bmp'],['female'],[[8]],['female'],[[1]],[[0.21781896]],SH
3,[[21]],[[4]],[[8]],['low holistic'],['left'],['inverted'],['U0137.bmp'],['male'],[[10]],['male'],[[1]],[[1.19479118]],SH
4,[[21]],[[5]],[[3]],['low holistic'],['right'],['inverted'],['U0020.bmp'],['female'],[[10]],['female'],[[1]],[[0.24958334]],SH
5,[[21]],[[6]],[[1]],['low holistic'],['right'],['inverted'],['U0006.bmp'],['female'],[[4]],['female'],[[1]],[[0.32081949]],SH
6,[[21]],[[7]],[[1]],['high holistic'],['right'],['inverted'],['U0006.bmp'],['female'],[[2]],['male'],[[0]],[[0.33221062]],SH
7,[[21]],[[8]],[[18]],['high holistic'],['left'],['inverted'],['U0359.bmp'],['male'],[[2]],['male'],[[1]],[[0.50105697]],SH
8,[[21]],[[9]],[[17]],['high holistic'],['left'],['inverted'],['U0346.bmp'],['male'],[[8]],['female'],[[0]],[[0.80094332]],SH
9,[[21]],[[10]],[[5]],['high holistic'],['left'],['inverted'],['U0076.bmp'],['female'],[[10]],['male'],[[0]],[[0.19516795]],SH
10,[[21]],[[11]],[[4]],['high holistic'],['right'],['upright'],['U0061.bmp'],['female'],[[2]],['female'],[[1]],[[0.11596924]],SH
11,[[21]],[[12]],[[6]],['high holistic'],['right'],['inverted'],['U0106.bmp'],['female'],[[2]],['female'],[[1]],[[0.31951359]],SH
12,[[21]],[[13]],[[1]],['low holistic'],['left'],['inverted'],['U0006.bmp'],['female'],[[2]],['female'],[[1]],[[0.13923061]],SH
13,[[21]],[[14]],[[5]],['high holistic'],['left'],['inverted'],['U0076.bmp'],['female'],[[10]],['male'],[[0]],[[0.21315761]],SH
14,[[21]],[[15]],[[20]],['high holistic'],['right'],['upright'],['U0362.bmp'],['female'],[[6]],['female'],[[1]],[[0.09269626]],SH
15,[[21]],[[16]],[[14]],['high holistic'],['right'],['inverted'],['U0228.bmp'],['male'],[[12]],['male'],[[1]],[[0.17653342]],SH
16,[[21]],[[17]],[[13]],['high holistic'],['right'],['upright'],['U0181.bmp'],['female'],[[6]],['female'],[[1]],[[0.17719855]],SH
17,[[21]],[[18]],[[15]],['high holistic'],['left'],['inverted'],['U0312.bmp'],['male'],[[12]],['male'],[[1]],[[0.18633648]],SH
18,[[21]],[[19]],[[8]],['high holistic'],['right'],['upright'],['U0137.bmp'],['female'],[[8]],['female'],[[1]],[[0.14863518]],SH
19,[[21]],[[20]],[[4]],['low holistic'],['left'],['inverted'],['U0061.bmp'],['female'],[[10]],['female'],[[1]],[[0.21459497]],SH
20,[[21]],[[21]],[[20]],['high holistic'],['right'],['upright'],['U0362.bmp'],['female'],[[12]],['male'],[[0]],[[9.93646681e-05]],SH
21,[[21]],[[22]],[[2]],['high holistic'],['left'],['inverted'],['U0014.bmp'],['male'],[[4]],['female'],[[0]],[[0.03757048]],SH
22,[[21]],[[23]],[[3]],['low holistic'],['left'],['upright'],['U0020.bmp'],['female'],[[4]],['female'],[[1]],[[0.1182669]],SH
23,[[21]],[[24]],[[15]],['low holistic'],['right'],['upright'],['U0312.bmp'],['male'],[[12]],['male'],[[1]],[[0.05684512]],SH
24,[[21]],[[25]],[[10]],['low holistic'],['right'],['upright'],['U0159.bmp'],['female'],[[10]],['female'],[[1]],[[0.19868168]],SH
25,[[21]],[[26]],[[20]],['high holistic'],['left'],['inverted'],['U0362.bmp'],['female'],[[8]],['female'],[[1]],[[0.11852112]],SH
26,[[21]],[[27]],[[15]],['low holistic'],['fovea'],['inverted'],['U0312.bmp'],['male'],[[0]],['male'],[[1]],[[0.30552565]],SH
27,[[21]],[[28]],[[8]],['low holistic'],['left'],['inverted'],['U0137.bmp'],['male'],[[2]],['male'],[[1]],[[0.22206088]],SH
28,[[21]],[[29]],[[13]],['low holistic'],['left'],['inverted'],['U0181.bmp'],['male'],[[6]],['male'],[[1]],[[0.31735282]],SH
29,[[21]],[[30]],[[20]],['high holistic'],['left'],['inverted'],['U0362.bmp'],['female'],[[2]],['female'],[[1]],[[0.27959139]],SH
30,[[21]],[[31]],[[14]],['high holistic'],['left'],['inverted'],['U0228.bmp'],['male'],[[2]],['male'],[[1]],[[0.19686171]],SH
31,[[21]],[[32]],[[3]],['high holistic'],['left'],['inverted'],['U0020.bmp'],['male'],[[10]],['female'],[[0]],[[0.11629684]],SH
32,[[21]],[[33]],[[2]],['high holistic'],['right'],['inverted'],['U0014.bmp'],['male'],[[8]],['female'],[[0]],[[0.37619988]],SH
33,[[21]],[[34]],[[9]],['high holistic'],['left'],['upright'],['U0155.bmp'],['female'],[[12]],['male'],[[0]],[[0.27373296]],SH
34,[[21]],[[35]],[[7]],['high holistic'],['right'],['inverted'],['U0107.bmp'],['female'],[[6]],['female'],[[1]],[[0.2798258]],SH
35,[[21]],[[36]],[[1]],['high holistic'],['left'],['inverted'],['U0006.bmp'],['female'],[[8]],['male'],[[0]],[[0.28422597]],SH
36,[[21]],[[37]],[[4]],['low holistic'],['right'],['inverted'],['U0061.bmp'],['female'],[[12]],['male'],[[0]],[[0.21657019]],SH
37,[[21]],[[38]],[[16]],['high holistic'],['right'],['inverted'],['U0335.bmp'],['female'],[[2]],['female'],[[1]],[[0.33725693]],SH
38,[[21]],[[39]],[[20]],['low holistic'],['left'],['upright'],['U0362.bmp'],['male'],[[8]],['male'],[[1]],[[0.70684638]],SH
39,[[21]],[[40]],[[15]],['low holistic'],['right'],['upright'],['U0312.bmp'],['male'],[[12]],['female'],[[0]],[[0.15921883]],SH
40,[[21]],[[41]],[[8]],['low holistic'],['right'],['upright'],['U0137.bmp'],['male'],[[8]],['male'],[[1]],[[0.14450106]],SH
41,[[21]],[[42]],[[8]],['high holistic'],['left'],['inverted'],['U0137.bmp'],['female'],[[10]],['female'],[[1]],[[0.53077015]],SH
42,[[21]],[[43]],[[4]],['low holistic'],['fovea'],['upright'],['U0061.bmp'],['female'],[[0]],['female'],[[1]],[[0.16610783]],SH
43,[[21]],[[44]],[[15]],['high holistic'],['left'],['inverted'],['U0312.bmp'],['male'],[[6]],['male'],[[1]],[[0.32023342]],SH
44,[[21]],[[45]],[[11]],['high holistic'],['right'],['upright'],['U0164.bmp'],['female'],[[12]],['male'],[[0]],[[0.29770764]],SH
45,[[21]],[[46]],[[2]],['low holistic'],['right'],['upright'],['U0014.bmp'],['male'],[[4]],['male'],[[1]],[[0.43931669]],SH
46,[[21]],[[47]],[[7]],['low holistic'],['right'],['inverted'],['U0107.bmp'],['female'],[[4]],['female'],[[1]],[[0.27770604]],SH
47,[[21]],[[48]],[[9]],['low holistic'],['right'],['inverted'],['U0155.bmp'],['male'],[[8]],['male'],[[1]],[[0.63493728]],SH
48,[[21]],[[49]],[[9]],['high holistic'],['right'],['inverted'],['U0155.bmp'],['female'],[[6]],['male'],[[0]],[[0.62595049]],SH
49,[[21]],[[50]],[[12]],['low holistic'],['left'],['inverted'],['U0178.bmp'],['female'],[[10]],['female'],[[1]],[[0.46478591]],SH
50,[[21]],[[51]],[[11]],['low holistic'],['right'],['inverted'],['U0164.bmp'],['female'],[[10]],['male'],[[0]],[[0.19078498]],SH
51,[[21]],[[52]],[[9]],['high holistic'],['left'],['upright'],['U0155.bmp'],['female'],[[2]],['female'],[[1]],[[0.18333272]],SH
52,[[21]],[[53]],[[15]],['low holistic'],['right'],['upright'],['U0312.bmp'],['male'],[[6]],['male'],[[1]],[[0.16603529]],SH
53,[[21]],[[54]],[[9]],['high holistic'],['right'],['upright'],['U0155.bmp'],['female'],[[2]],['female'],[[1]],[[0.19096618]],SH
54,[[21]],[[55]],[[8]],['low holistic'],['left'],['upright'],['U0137.bmp'],['male'],[[2]],['male'],[[1]],[[0.17619941]],SH
55,[[21]],[[56]],[[18]],['low holistic'],['right'],['upright'],['U0359.bmp'],['male'],[[8]],['male'],[[1]],[[0.38678518]],SH
56,[[21]],[[57]],[[4]],['low holistic'],['left'],['inverted'],['U0061.bmp'],['female'],[[10]],['female'],[[1]],[[0.23307434]],SH
57,[[21]],[[58]],[[10]],['high holistic'],['right'],['inverted'],['U0159.bmp'],['male'],[[6]],['male'],[[1]],[[0.08103935]],SH
58,[[21]],[[59]],[[9]],['low holistic'],['right'],['upright'],['U0155.bmp'],['male'],[[2]],['female'],[[0]],[[0.20576147]],SH
59,[[21]],[[60]],[[20]],['low holistic'],['fovea'],['upright'],['U0362.bmp'],['male'],[[0]],['male'],[[1]],[[0.3502848]],SH
60,[[21]],[[61]],[[19]],['low holistic'],['right'],['inverted'],['U0361.bmp'],['female'],[[6]],['female'],[[1]],[[0.55188801]],SH
61,[[21]],[[62]],[[17]],['low holistic'],['left'],['inverted'],['U0346.bmp'],['female'],[[10]],['male'],[[0]],[[0.24952994]],SH
62,[[21]],[[63]],[[16]],['low holistic'],['left'],['upright'],['U0335.bmp'],['female'],[[12]],['female'],[[1]],[[0.47257684]],SH
63,[[21]],[[64]],[[10]],['low holistic'],['right'],['inverted'],['U0159.bmp'],['female'],[[12]],['female'],[[1]],[[0.54893081]],SH
64,[[21]],[[65]],[[5]],['low holistic'],['fovea'],['inverted'],['U0076.bmp'],['male'],[[0]],['male'],[[1]],[[0.2307239]],SH
65,[[21]],[[66]],[[14]],['high holistic'],['left'],['inverted'],['U0228.bmp'],['male'],[[10]],['female'],[[0]],[[0.3420531]],SH
66,[[21]],[[67]],[[8]],['low holistic'],['left'],['inverted'],['U0137.bmp'],['male'],[[10]],['male'],[[1]],[[0.41724629]],SH
67,[[21]],[[68]],[[9]],['high holistic'],['right'],['upright'],['U0155.bmp'],['female'],[[2]],['female'],[[1]],[[0.35988528]],SH
68,[[21]],[[69]],[[9]],['high holistic'],['right'],['inverted'],['U0155.bmp'],['female'],[[2]],['male'],[[0]],[[0.20847303]],SH
69,[[21]],[[70]],[[19]],['low holistic'],['fovea'],['upright'],['U0361.bmp'],['female'],[[0]],['female'],[[1]],[[0.20871876]],SH
70,[[21]],[[71]],[[17]],['high holistic'],['fovea'],['upright'],['U0346.bmp'],['male'],[[0]],['male'],[[1]],[[0.23318931]],SH
71,[[21]],[[72]],[[16]],['high holistic'],['left'],['upright'],['U0335.bmp'],['female'],[[6]],['female'],[[1]],[[0.24840801]],SH
72,[[21]],[[73]],[[2]],['high holistic'],['left'],['upright'],['U0014.bmp'],['male'],[[6]],['male'],[[1]],[[0.23063568]],SH
73,[[21]],[[74]],[[12]],['low holistic'],['right'],['inverted'],['U0178.bmp'],['female'],[[10]],['female'],[[1]],[[0.22072927]],SH
74,[[21]],[[75]],[[16]],['high holistic'],['right'],['inverted'],['U0335.bmp'],['female'],[[6]],['male'],[[0]],[[0.29940474]],SH
75,[[21]],[[76]],[[4]],['high holistic'],['right'],['inverted'],['U0061.bmp'],['female'],[[6]],['female'],[[1]],[[0.52739162]],SH
76,[[21]],[[77]],[[20]],['high holistic'],['left'],['inverted'],['U0362.bmp'],['female'],[[8]],['female'],[[1]],[[0.43342402]],SH
77,[[21]],[[78]],[[2]],['low holistic'],['left'],['upright'],['U0014.bmp'],['male'],[[8]],['male'],[[1]],[[0.47293214]],SH
78,[[21]],[[79]],[[16]],['low holistic'],['right'],['upright'],['U0335.bmp'],['female'],[[4]],['female'],[[1]],[[0.23914682]],SH
79,[[21]],[[80]],[[13]],['low holistic'],['right'],['upright'],['U0181.bmp'],['male'],[[4]],['male'],[[1]],[[0.29970304]],SH
80,[[21]],[[81]],[[10]],['low holistic'],['right'],['upright'],['U0159.bmp'],['female'],[[10]],['female'],[[1]],[[0.28964524]],SH
81,[[21]],[[82]],[[20]],['high holistic'],['right'],['upright'],['U0362.bmp'],['female'],[[4]],['female'],[[1]],[[0.18847148]],SH
82,[[21]],[[83]],[[6]],['low holistic'],['right'],['inverted'],['U0106.bmp'],['male'],[[12]],['male'],[[1]],[[0.46944635]],SH
83,[[21]],[[84]],[[7]],['high holistic'],['left'],['upright'],['U0107.bmp'],['female'],[[6]],['male'],[[0]],[[0.39486724]],SH
84,[[21]],[[85]],[[10]],['high holistic'],['right'],['upright'],['U0159.bmp'],['male'],[[8]],['male'],[[1]],[[0.34590638]],SH
85,[[21]],[[86]],[[17]],['high holistic'],['right'],['inverted'],['U0346.bmp'],['male'],[[4]],['female'],[[0]],[[0.36485178]],SH
86,[[21]],[[87]],[[3]],['low holistic'],['left'],['upright'],['U0020.bmp'],['female'],[[6]],['female'],[[1]],[[0.22212915]],SH
87,[[21]],[[88]],[[3]],['low holistic'],['left'],['inverted'],['U0020.bmp'],['female'],[[4]],['female'],[[1]],[[0.26131658]],SH
88,[[21]],[[89]],[[10]],['high holistic'],['right'],['upright'],['U0159.bmp'],['male'],[[6]],['male'],[[1]],[[0.33047737]],SH
89,[[21]],[[90]],[[12]],['high holistic'],['left'],['inverted'],['U0178.bmp'],['male'],[[4]],['female'],[[0]],[[0.47830329]],SH
90,[[21]],[[91]],[[16]],['low holistic'],['left'],['inverted'],['U0335.bmp'],['female'],[[2]],['female'],[[1]],[[0.41294742]],SH
91,[[21]],[[92]],[[9]],['high holistic'],['left'],['inverted'],['U0155.bmp'],['female'],[[6]],['female'],[[1]],[[0.42613976]],SH
92,[[21]],[[93]],[[12]],['low holistic'],['right'],['upright'],['U0178.bmp'],['female'],[[10]],['female'],[[1]],[[0.31385638]],SH
93,[[21]],[[94]],[[19]],['low holistic'],['right'],['inverted'],['U0361.bmp'],['female'],[[4]],['female'],[[1]],[[0.2859543]],SH
94,[[21]],[[95]],[[11]],['low holistic'],['left'],['upright'],['U0164.bmp'],['female'],[[6]],['female'],[[1]],[[0.16924383]],SH
95,[[21]],[[96]],[[10]],['high holistic'],['right'],['upright'],['U0159.bmp'],['male'],[[6]],['male'],[[1]],[[0.30801732]],SH
96,[[21]],[[97]],[[5]],['low holistic'],['left'],['inverted'],['U0076.bmp'],['male'],[[8]],['male'],[[1]],[[0.43922666]],SH
97,[[21]],[[98]],[[16]],['low holistic'],['right'],['upright'],['U0335.bmp'],['female'],[[4]],['female'],[[1]],[[0.14834661]],SH
98,[[21]],[[99]],[[15]],['high holistic'],['left'],['inverted'],['U0312.bmp'],['male'],[[10]],['male'],[[1]],[[0.20769279]],SH
99,[[21]],[[100]],[[2]],['high holistic'],['left'],['upright'],['U0014.bmp'],['male'],[[10]],['male'],[[1]],[[0.22225888]],SH
100,[[21]],[[101]],[[10]],['low holistic'],['left'],['upright'],['U0159.bmp'],['female'],[[6]],['female'],[[1]],[[0.1345322]],SH
101,[[21]],[[102]],[[3]],['low holistic'],['fovea'],['inverted'],['U0020.bmp'],['female'],[[0]],['female'],[[1]],[[0.17032902]],SH
102,[[21]],[[103]],[[4]],['low holistic'],['left'],['upright'],['U0061.bmp'],['female'],[[12]],['female'],[[1]],[[0.21781997]],SH
103,[[21]],[[104]],[[16]],['high holistic'],['right'],['inverted'],['U0335.bmp'],['female'],[[10]],['male'],[[0]],[[0.16277373]],SH
104,[[21]],[[105]],[[17]],['high holistic'],['left'],['upright'],['U0346.bmp'],['male'],[[6]],['female'],[[0]],[[0.33940375]],SH
105,[[21]],[[106]],[[13]],['high holistic'],['left'],['inverted'],['U0181.bmp'],['female'],[[6]],['female'],[[1]],[[0.26244314]],SH
106,[[21]],[[107]],[[11]],['high holistic'],['left'],['upright'],['U0164.bmp'],['female'],[[2]],['female'],[[1]],[[0.12398313]],SH
107,[[21]],[[108]],[[14]],['low holistic'],['left'],['inverted'],['U0228.bmp'],['male'],[[6]],['female'],[[0]],[[0.04517596]],SH
108,[[21]],[[109]],[[20]],['high holistic'],['left'],['upright'],['U0362.bmp'],['female'],[[6]],['female'],[[1]],[[0.2209682]],SH
109,[[21]],[[110]],[[3]],['high holistic'],['right'],['inverted'],['U0020.bmp'],['male'],[[4]],['male'],[[1]],[[0.17194258]],SH
110,[[21]],[[111]],[[14]],['low holistic'],['right'],['upright'],['U0228.bmp'],['male'],[[12]],['male'],[[1]],[[0.15557212]],SH
111,[[21]],[[112]],[[8]],['high holistic'],['right'],['inverted'],['U0137.bmp'],['female'],[[12]],['female'],[[1]],[[0.27826037]],SH
112,[[21]],[[113]],[[18]],['low holistic'],['left'],['upright'],['U0359.bmp'],['male'],[[12]],['male'],[[1]],[[0.33825993]],SH
113,[[21]],[[114]],[[8]],['low holistic'],['left'],['inverted'],['U0137.bmp'],['male'],[[4]],['male'],[[1]],[[0.35059401]],SH
114,[[21]],[[115]],[[14]],['high holistic'],['left'],['upright'],['U0228.bmp'],['male'],[[6]],['male'],[[1]],[[0.2733577]],SH
115,[[21]],[[116]],[[18]],['low holistic'],['right'],['inverted'],['U0359.bmp'],['male'],[[10]],['female'],[[0]],[[0.42132164]],SH
116,[[21]],[[117]],[[7]],['high holistic'],['left'],['upright'],['U0107.bmp'],['female'],[[4]],['male'],[[0]],[[0.09101661]],SH
117,[[21]],[[118]],[[12]],['low holistic'],['left'],['inverted'],['U0178.bmp'],['female'],[[12]],['female'],[[1]],[[0.29533544]],SH
118,[[21]],[[119]],[[18]],['high holistic'],['left'],['inverted'],['U0359.bmp'],['male'],[[4]],['male'],[[1]],[[0.75684736]],SH
119,[[21]],[[120]],[[4]],['low holistic'],['right'],['upright'],['U0061.bmp'],['female'],[[4]],['female'],[[1]],[[0.17509732]],SH
120,[[21]],[[121]],[[9]],['low holistic'],['right'],['inverted'],['U0155.bmp'],['male'],[[4]],['male'],[[1]],[[0.22271175]],SH
121,[[21]],[[122]],[[6]],['high holistic'],['left'],['inverted'],['U0106.bmp'],['female'],[[2]],['female'],[[1]],[[0.73378662]],SH
122,[[21]],[[123]],[[1]],['high holistic'],['left'],['upright'],['U0006.bmp'],['female'],[[4]],['female'],[[1]],[[0.79425367]],SH
123,[[21]],[[124]],[[16]],['low holistic'],['left'],['inverted'],['U0335.bmp'],['female'],[[2]],['female'],[[1]],[[0.32038173]],SH
124,[[21]],[[125]],[[1]],['low holistic'],['right'],['upright'],['U0006.bmp'],['female'],[[10]],['female'],[[1]],[[0.30839976]],SH
125,[[21]],[[126]],[[17]],['high holistic'],['right'],['upright'],['U0346.bmp'],['male'],[[10]],['male'],[[1]],[[0.32118428]],SH
126,[[21]],[[127]],[[4]],['high holistic'],['right'],['upright'],['U0061.bmp'],['female'],[[6]],['female'],[[1]],[[0.1879297]],SH
127,[[21]],[[128]],[[3]],['low holistic'],['left'],['inverted'],['U0020.bmp'],['female'],[[4]],['female'],[[1]],[[0.28312237]],SH
128,[[21]],[[129]],[[2]],['high holistic'],['right'],['upright'],['U0014.bmp'],['male'],[[2]],['male'],[[1]],[[0.2476781]],SH
129,[[21]],[[130]],[[4]],['low holistic'],['right'],['upright'],['U0061.bmp'],['female'],[[8]],['female'],[[1]],[[0.18354453]],SH
130,[[21]],[[131]],[[20]],['high holistic'],['left'],['upright'],['U0362.bmp'],['female'],[[4]],['female'],[[1]],[[0.20076839]],SH
131,[[21]],[[132]],[[11]],['high holistic'],['fovea'],['inverted'],['U0164.bmp'],['female'],[[0]],['female'],[[1]],[[0.3051408]],SH
132,[[21]],[[133]],[[20]],['low holistic'],['right'],['inverted'],['U0362.bmp'],['male'],[[10]],['male'],[[1]],[[0.35022479]],SH
133,[[21]],[[134]],[[14]],['high holistic'],['left'],['upright'],['U0228.bmp'],['male'],[[6]],['female'],[[0]],[[0.29560438]],SH
134,[[21]],[[135]],[[3]],['low holistic'],['right'],['inverted'],['U0020.bmp'],['female'],[[12]],['female'],[[1]],[[0.78724468]],SH
135,[[21]],[[136]],[[7]],['low holistic'],['left'],['inverted'],['U0107.bmp'],['female'],[[12]],['female'],[[1]],[[0.30808109]],SH
136,[[21]],[[137]],[[2]],['low holistic'],['left'],['upright'],['U0014.bmp'],['male'],[[12]],['male'],[[1]],[[0.28701282]],SH
137,[[21]],[[138]],[[5]],['high holistic'],['right'],['inverted'],['U0076.bmp'],['female'],[[12]],['female'],[[1]],[[0.36255306]],SH
138,[[21]],[[139]],[[1]],['low holistic'],['right'],['upright'],['U0006.bmp'],['female'],[[4]],['female'],[[1]],[[0.09368257]],SH
139,[[21]],[[140]],[[5]],['low holistic'],['left'],['upright'],['U0076.bmp'],['male'],[[2]],['male'],[[1]],[[0.14504289]],SH
140,[[21]],[[141]],[[19]],['high holistic'],['left'],['inverted'],['U0361.bmp'],['female'],[[2]],['male'],[[0]],[[1.131208]],SH
141,[[21]],[[142]],[[5]],['high holistic'],['right'],['inverted'],['U0076.bmp'],['female'],[[12]],['female'],[[1]],[[0.27834526]],SH
142,[[21]],[[143]],[[6]],['low holistic'],['left'],['upright'],['U0106.bmp'],['male'],[[12]],['male'],[[1]],[[0.20432336]],SH
143,[[21]],[[144]],[[2]],['low holistic'],['right'],['upright'],['U0014.bmp'],['male'],[[4]],['male'],[[1]],[[0.28325299]],SH
144,[[21]],[[145]],[[6]],['high holistic'],['left'],['upright'],['U0106.bmp'],['female'],[[12]],['female'],[[1]],[[0.47178776]],SH
145,[[21]],[[146]],[[20]],['high holistic'],['right'],['upright'],['U0362.bmp'],['female'],[[6]],['female'],[[1]],[[0.15762655]],SH
146,[[21]],[[147]],[[18]],['low holistic'],['left'],['inverted'],['U0359.bmp'],['male'],[[10]],['male'],[[1]],[[0.4718262]],SH
147,[[21]],[[148]],[[11]],['high holistic'],['right'],['upright'],['U0164.bmp'],['female'],[[4]],['male'],[[0]],[[0.51660121]],SH
148,[[21]],[[149]],[[12]],['low holistic'],['left'],['upright'],['U0178.bmp'],['female'],[[10]],['female'],[[1]],[[0.13559731]],SH
149,[[21]],[[150]],[[16]],['high holistic'],['left'],['inverted'],['U0335.bmp'],['female'],[[4]],['female'],[[1]],[[0.39465198]],SH
150,[[21]],[[151]],[[6]],['low holistic'],['left'],['upright'],['U0106.bmp'],['male'],[[4]],['female'],[[0]],[[0.043207]],SH
151,[[21]],[[152]],[[6]],['low holistic'],['left'],['upright'],['U0106.bmp'],['male'],[[2]],['male'],[[1]],[[0.22375935]],SH
152,[[21]],[[153]],[[19]],['high holistic'],['right'],['inverted'],['U0361.bmp'],['female'],[[12]],['male'],[[0]],[[0.72798757]],SH
153,[[21]],[[154]],[[2]],['low holistic'],['left'],['inverted'],['U0014.bmp'],['male'],[[10]],['male'],[[1]],[[0.49009633]],SH
154,[[21]],[[155]],[[9]],['low holistic'],['left'],['upright'],['U0155.bmp'],['male'],[[10]],['male'],[[1]],[[0.28687541]],SH
155,[[21]],[[156]],[[18]],['low holistic'],['right'],['upright'],['U0359.bmp'],['male'],[[10]],['male'],[[1]],[[0.3164732]],SH
156,[[21]],[[157]],[[12]],['high holistic'],['left'],['inverted'],['U0178.bmp'],['male'],[[2]],['male'],[[1]],[[0.26404356]],SH
157,[[21]],[[158]],[[20]],['high holistic'],['left'],['upright'],['U0362.bmp'],['female'],[[8]],['female'],[[1]],[[0.34885565]],SH
158,[[21]],[[159]],[[10]],['high holistic'],['right'],['inverted'],['U0159.bmp'],['male'],[[4]],['male'],[[1]],[[0.93562448]],SH
159,[[21]],[[160]],[[6]],['high holistic'],['right'],['upright'],['U0106.bmp'],['female'],[[4]],['female'],[[1]],[[0.58369724]],SH
160,[[21]],[[161]],[[9]],['high holistic'],['right'],['upright'],['U0155.bmp'],['female'],[[6]],['female'],[[1]],[[0.41097034]],SH
161,[[21]],[[162]],[[2]],['low holistic'],['left'],['inverted'],['U0014.bmp'],['male'],[[12]],['male'],[[1]],[[0.71370263]],SH
162,[[21]],[[163]],[[1]],['low holistic'],['right'],['upright'],['U0006.bmp'],['female'],[[2]],['female'],[[1]],[[0.26138445]],SH
163,[[21]],[[164]],[[17]],['high holistic'],['left'],['inverted'],['U0346.bmp'],['male'],[[6]],['female'],[[0]],[[0.29098885]],SH
164,[[21]],[[165]],[[2]],['high holistic'],['left'],['inverted'],['U0014.bmp'],['male'],[[6]],['female'],[[0]],[[0.47993077]],SH
165,[[21]],[[166]],[[3]],['low holistic'],['right'],['inverted'],['U0020.bmp'],['female'],[[8]],['female'],[[1]],[[1.33233773]],SH
166,[[21]],[[167]],[[11]],['low holistic'],['right'],['inverted'],['U0164.bmp'],['female'],[[10]],['female'],[[1]],[[0.28641674]],SH
167,[[21]],[[168]],[[18]],['high holistic'],['left'],['upright'],['U0359.bmp'],['male'],[[2]],['male'],[[1]],[[0.31579369]],SH
168,[[21]],[[169]],[[11]],['high holistic'],['left'],['upright'],['U0164.bmp'],['female'],[[8]],['female'],[[1]],[[0.50237887]],SH
169,[[21]],[[170]],[[16]],['low holistic'],['right'],['inverted'],['U0335.bmp'],['female'],[[10]],['female'],[[1]],[[1.24895359]],SH
170,[[21]],[[171]],[[18]],['low holistic'],['right'],['inverted'],['U0359.bmp'],['male'],[[12]],['male'],[[1]],[[0.342984]],SH
171,[[21]],[[172]],[[1]],['high holistic'],['right'],['inverted'],['U0006.bmp'],['female'],[[10]],['male'],[[0]],[[0.60343454]],SH
172,[[21]],[[173]],[[5]],['low holistic'],['right'],['inverted'],['U0076.bmp'],['male'],[[8]],['male'],[[1]],[[0.59469752]],SH
173,[[21]],[[174]],[[4]],['low holistic'],['left'],['upright'],['U0061.bmp'],['female'],[[12]],['female'],[[1]],[[0.32167993]],SH
174,[[21]],[[175]],[[13]],['high holistic'],['right'],['upright'],['U0181.bmp'],['female'],[[12]],['male'],[[0]],[[0.61473195]],SH
175,[[21]],[[176]],[[13]],['high holistic'],['right'],['inverted'],['U0181.bmp'],['female'],[[4]],['male'],[[0]],[[0.9254615]],SH
176,[[21]],[[177]],[[18]],['high holistic'],['right'],['upright'],['U0359.bmp'],['male'],[[4]],['male'],[[1]],[[0.47143611]],SH
177,[[21]],[[178]],[[10]],['low holistic'],['left'],['upright'],['U0159.bmp'],['female'],[[2]],['female'],[[1]],[[0.24539617]],SH
178,[[21]],[[179]],[[9]],['low holistic'],['right'],['inverted'],['U0155.bmp'],['male'],[[10]],['male'],[[1]],[[0.29189437]],SH
179,[[21]],[[180]],[[12]],['high holistic'],['right'],['upright'],['U0178.bmp'],['male'],[[4]],['male'],[[1]],[[0.19126706]],SH
180,[[21]],[[181]],[[20]],['high holistic'],['right'],['upright'],['U0362.bmp'],['female'],[[6]],['female'],[[1]],[[0.28903609]],SH
181,[[21]],[[182]],[[6]],['high holistic'],['right'],['inverted'],['U0106.bmp'],['female'],[[12]],['male'],[[0]],[[0.28482937]],SH
182,[[21]],[[183]],[[13]],['low holistic'],['right'],['upright'],['U0181.bmp'],['male'],[[12]],['male'],[[1]],[[0.15349025]],SH
183,[[21]],[[184]],[[17]],['low holistic'],['right'],['upright'],['U0346.bmp'],['female'],[[10]],['female'],[[1]],[[0.28309115]],SH
184,[[21]],[[185]],[[20]],['high holistic'],['right'],['inverted'],['U0362.bmp'],['female'],[[4]],['female'],[[1]],[[0.78385429]],SH
185,[[21]],[[186]],[[3]],['low holistic'],['left'],['upright'],['U0020.bmp'],['female'],[[12]],['female'],[[1]],[[0.38432025]],SH
186,[[21]],[[187]],[[2]],['low holistic'],['left'],['upright'],['U0014.bmp'],['male'],[[10]],['male'],[[1]],[[0.23311622]],SH
187,[[21]],[[188]],[[13]],['high holistic'],['right'],['upright'],['U0181.bmp'],['female'],[[12]],['female'],[[1]],[[0.55868195]],SH
188,[[21]],[[189]],[[19]],['high holistic'],['left'],['inverted'],['U0361.bmp'],['female'],[[4]],['male'],[[0]],[[0.378277]],SH
189,[[21]],[[190]],[[3]],['low holistic'],['left'],['upright'],['U0020.bmp'],['female'],[[6]],['female'],[[1]],[[0.25889544]],SH
190,[[21]],[[191]],[[10]],['low holistic'],['right'],['inverted'],['U0159.bmp'],['female'],[[4]],['female'],[[1]],[[2.16806524]],SH
191,[[21]],[[192]],[[14]],['high holistic'],['right'],['inverted'],['U0228.bmp'],['male'],[[12]],['female'],[[0]],[[0.75440859]],SH
192,[[21]],[[193]],[[10]],['high holistic'],['right'],['inverted'],['U0159.bmp'],['male'],[[2]],['male'],[[1]],[[0.68446973]],SH
193,[[21]],[[194]],[[19]],['low holistic'],['left'],['upright'],['U0361.bmp'],['female'],[[6]],['female'],[[1]],[[0.17447515]],SH
194,[[21]],[[195]],[[19]],['high holistic'],['left'],['inverted'],['U0361.bmp'],['female'],[[12]],['male'],[[0]],[[0.21641418]],SH
195,[[21]],[[196]],[[14]],['high holistic'],['fovea'],['inverted'],['U0228.bmp'],['male'],[[0]],['male'],[[1]],[[0.33576623]],SH
196,[[21]],[[197]],[[15]],['high holistic'],['left'],['inverted'],['U0312.bmp'],['male'],[[6]],['male'],[[1]],[[0.793738]],SH
197,[[21]],[[198]],[[1]],['high holistic'],['left'],['upright'],['U0006.bmp'],['female'],[[12]],['female'],[[1]],[[0.15584522]],SH
198,[[21]],[[199]],[[4]],['low holistic'],['fovea'],['inverted'],['U0061.bmp'],['female'],[[0]],['female'],[[1]],[[0.14936867]],SH
199,[[21]],[[200]],[[13]],['low holistic'],['left'],['upright'],['U0181.bmp'],['male'],[[12]],['male'],[[1]],[[0.15021498]],SH
200,[[21]],[[201]],[[19]],['high holistic'],['left'],['upright'],['U0361.bmp'],['female'],[[8]],['male'],[[0]],[[1.08951359]],SH
201,[[21]],[[202]],[[18]],['high holistic'],['right'],['upright'],['U0359.bmp'],['male'],[[8]],['male'],[[1]],[[0.26202064]],SH
202,[[21]],[[203]],[[2]],['low holistic'],['right'],['inverted'],['U0014.bmp'],['male'],[[8]],['male'],[[1]],[[0.21052661]],SH
203,[[21]],[[204]],[[20]],['low holistic'],['right'],['inverted'],['U0362.bmp'],['male'],[[4]],['male'],[[1]],[[0.17827397]],SH
204,[[21]],[[205]],[[9]],['low holistic'],['right'],['inverted'],['U0155.bmp'],['male'],[[6]],['male'],[[1]],[[0.16239953]],SH
205,[[21]],[[206]],[[6]],['low holistic'],['left'],['upright'],['U0106.bmp'],['male'],[[2]],['male'],[[1]],[[0.28361735]],SH
206,[[21]],[[207]],[[13]],['high holistic'],['left'],['inverted'],['U0181.bmp'],['female'],[[2]],['female'],[[1]],[[0.26591091]],SH
207,[[21]],[[208]],[[10]],['low holistic'],['left'],['upright'],['U0159.bmp'],['female'],[[12]],['female'],[[1]],[[0.2541657]],SH
208,[[21]],[[209]],[[2]],['low holistic'],['fovea'],['inverted'],['U0014.bmp'],['male'],[[0]],['male'],[[1]],[[0.14880063]],SH
209,[[21]],[[210]],[[16]],['high holistic'],['left'],['upright'],['U0335.bmp'],['female'],[[2]],['female'],[[1]],[[0.14294222]],SH
210,[[21]],[[211]],[[15]],['high holistic'],['left'],['inverted'],['U0312.bmp'],['male'],[[8]],['male'],[[1]],[[0.41599139]],SH
211,[[21]],[[212]],[[19]],['low holistic'],['right'],['upright'],['U0361.bmp'],['female'],[[6]],['female'],[[1]],[[1.32789735]],SH
212,[[21]],[[213]],[[16]],['low holistic'],['left'],['inverted'],['U0335.bmp'],['female'],[[2]],['female'],[[1]],[[0.22598071]],SH
213,[[21]],[[214]],[[6]],['high holistic'],['left'],['upright'],['U0106.bmp'],['female'],[[12]],['female'],[[1]],[[0.28962461]],SH
214,[[21]],[[215]],[[20]],['low holistic'],['right'],['inverted'],['U0362.bmp'],['male'],[[8]],['male'],[[1]],[[0.18161416]],SH
215,[[21]],[[216]],[[13]],['low holistic'],['left'],['upright'],['U0181.bmp'],['male'],[[8]],['male'],[[1]],[[0.19811506]],SH
216,[[21]],[[217]],[[14]],['high holistic'],['left'],['upright'],['U0228.bmp'],['male'],[[4]],['male'],[[1]],[[0.04037249]],SH
217,[[21]],[[218]],[[11]],['high holistic'],['right'],['upright'],['U0164.bmp'],['female'],[[6]],['male'],[[0]],[[0.13433404]],SH
218,[[21]],[[219]],[[19]],['low holistic'],['left'],['upright'],['U0361.bmp'],['female'],[[10]],['female'],[[1]],[[0.00069927]],SH
219,[[21]],[[220]],[[4]],['high holistic'],['right'],['upright'],['U0061.bmp'],['female'],[[8]],['male'],[[0]],[[0.05505122]],SH
220,[[21]],[[221]],[[13]],['high holistic'],['right'],['inverted'],['U0181.bmp'],['female'],[[12]],['male'],[[0]],[[0.31688462]],SH
221,[[21]],[[222]],[[14]],['high holistic'],['left'],['inverted'],['U0228.bmp'],['male'],[[8]],['female'],[[0]],[[0.11335215]],SH
222,[[21]],[[223]],[[5]],['high holistic'],['fovea'],['upright'],['U0076.bmp'],['female'],[[0]],['female'],[[1]],[[0.37105852]],SH
223,[[21]],[[224]],[[6]],['high holistic'],['right'],['upright'],['U0106.bmp'],['female'],[[10]],['female'],[[1]],[[0.51831162]],SH
224,[[21]],[[225]],[[20]],['high holistic'],['right'],['inverted'],['U0362.bmp'],['female'],[[12]],['female'],[[1]],[[0.51239145]],SH
225,[[21]],[[226]],[[6]],['high holistic'],['fovea'],['inverted'],['U0106.bmp'],['female'],[[0]],['female'],[[1]],[[0.30778081]],SH
226,[[21]],[[227]],[[12]],['low holistic'],['right'],['upright'],['U0178.bmp'],['female'],[[10]],['female'],[[1]],[[0.45618784]],SH
227,[[21]],[[228]],[[5]],['low holistic'],['right'],['inverted'],['U0076.bmp'],['male'],[[12]],['male'],[[1]],[[0.45212807]],SH
228,[[21]],[[229]],[[1]],['high holistic'],['left'],['upright'],['U0006.bmp'],['female'],[[8]],['female'],[[1]],[[0.00056711]],SH
229,[[21]],[[230]],[[13]],['low holistic'],['right'],['inverted'],['U0181.bmp'],['male'],[[4]],['male'],[[1]],[[0.31545089]],SH
230,[[21]],[[231]],[[4]],['high holistic'],['right'],['upright'],['U0061.bmp'],['female'],[[12]],['female'],[[1]],[[0.26132401]],SH
231,[[21]],[[232]],[[11]],['high holistic'],['right'],['inverted'],['U0164.bmp'],['female'],[[10]],['male'],[[0]],[[0.28495836]],SH
232,[[21]],[[233]],[[7]],['low holistic'],['right'],['inverted'],['U0107.bmp'],['female'],[[2]],['female'],[[1]],[[0.0809934]],SH
233,[[21]],[[234]],[[12]],['low holistic'],['left'],['inverted'],['U0178.bmp'],['female'],[[8]],['female'],[[1]],[[0.55728987]],SH
234,[[21]],[[235]],[[19]],['low holistic'],['left'],['upright'],['U0361.bmp'],['female'],[[10]],['female'],[[1]],[[0.16628611]],SH
235,[[21]],[[236]],[[13]],['low holistic'],['right'],['upright'],['U0181.bmp'],['male'],[[8]],['male'],[[1]],[[0.05552697]],SH
236,[[21]],[[237]],[[16]],['high holistic'],['right'],['upright'],['U0335.bmp'],['female'],[[10]],['female'],[[1]],[[0.04512608]],SH
237,[[21]],[[238]],[[4]],['high holistic'],['right'],['upright'],['U0061.bmp'],['female'],[[10]],['female'],[[1]],[[0.37952029]],SH
238,[[21]],[[239]],[[19]],['low holistic'],['right'],['upright'],['U0361.bmp'],['female'],[[8]],['male'],[[0]],[[0.04370767]],SH
239,[[21]],[[240]],[[5]],['high holistic'],['right'],['inverted'],['U0076.bmp'],['female'],[[2]],['female'],[[1]],[[1.2346327]],SH
240,[[21]],[[241]],[[11]],['high holistic'],['left'],['upright'],['U0164.bmp'],['female'],[[8]],['female'],[[1]],[[0.30629446]],SH
241,[[21]],[[242]],[[7]],['high holistic'],['right'],['upright'],['U0107.bmp'],['female'],[[10]],['female'],[[1]],[[0.33356115]],SH
242,[[21]],[[243]],[[17]],['low holistic'],['left'],['upright'],['U0346.bmp'],['female'],[[10]],['female'],[[1]],[[0.27055328]],SH
243,[[21]],[[244]],[[5]],['low holistic'],['right'],['upright'],['U0076.bmp'],['male'],[[4]],['male'],[[1]],[[0.06058474]],SH
244,[[21]],[[245]],[[16]],['low holistic'],['right'],['inverted'],['U0335.bmp'],['female'],[[2]],['female'],[[1]],[[0.06727952]],SH
245,[[21]],[[246]],[[5]],['high holistic'],['right'],['upright'],['U0076.bmp'],['female'],[[12]],['female'],[[1]],[[0.3748022]],SH
246,[[21]],[[247]],[[10]],['low holistic'],['fovea'],['upright'],['U0159.bmp'],['female'],[[0]],['female'],[[1]],[[0.05650939]],SH
247,[[21]],[[248]],[[17]],['high holistic'],['right'],['upright'],['U0346.bmp'],['male'],[[4]],['male'],[[1]],[[0.12665174]],SH
248,[[21]],[[249]],[[7]],['high holistic'],['right'],['inverted'],['U0107.bmp'],['female'],[[12]],['male'],[[0]],[[0.7360696]],SH
249,[[21]],[[250]],[[9]],['low holistic'],['left'],['inverted'],['U0155.bmp'],['male'],[[8]],['male'],[[1]],[[0.3951569]],SH
250,[[21]],[[251]],[[20]],['low holistic'],['left'],['upright'],['U0362.bmp'],['male'],[[6]],['male'],[[1]],[[0.1969285]],SH
251,[[21]],[[252]],[[10]],['high holistic'],['left'],['inverted'],['U0159.bmp'],['male'],[[2]],['male'],[[1]],[[1.08375178]],SH
252,[[21]],[[253]],[[10]],['high holistic'],['right'],['inverted'],['U0159.bmp'],['male'],[[12]],['male'],[[1]],[[0.34476689]],SH
253,[[21]],[[254]],[[1]],['low holistic'],['left'],['inverted'],['U0006.bmp'],['female'],[[8]],['female'],[[1]],[[0.10655676]],SH
254,[[21]],[[255]],[[18]],['low holistic'],['right'],['inverted'],['U0359.bmp'],['male'],[[10]],['male'],[[1]],[[0.56612827]],SH
255,[[21]],[[256]],[[5]],['high holistic'],['left'],['inverted'],['U0076.bmp'],['female'],[[6]],['male'],[[0]],[[0.23342523]],SH
256,[[21]],[[257]],[[11]],['low holistic'],['right'],['upright'],['U0164.bmp'],['female'],[[12]],['female'],[[1]],[[0.13515639]],SH
257,[[21]],[[258]],[[8]],['high holistic'],['left'],['upright'],['U0137.bmp'],['female'],[[2]],['female'],[[1]],[[0.20162552]],SH
258,[[21]],[[259]],[[19]],['high holistic'],['left'],['inverted'],['U0361.bmp'],['female'],[[12]],['male'],[[0]],[[0.75411259]],SH
259,[[21]],[[260]],[[1]],['low holistic'],['right'],['inverted'],['U0006.bmp'],['female'],[[4]],['female'],[[1]],[[0.23468683]],SH
260,[[21]],[[261]],[[2]],['high holistic'],['fovea'],['inverted'],['U0014.bmp'],['male'],[[0]],['female'],[[0]],[[0.26375362]],SH
261,[[21]],[[262]],[[10]],['high holistic'],['left'],['inverted'],['U0159.bmp'],['male'],[[4]],['male'],[[1]],[[0.38862162]],SH
262,[[21]],[[263]],[[13]],['high holistic'],['right'],['inverted'],['U0181.bmp'],['female'],[[10]],['male'],[[0]],[[0.41428519]],SH
263,[[21]],[[264]],[[7]],['high holistic'],['left'],['upright'],['U0107.bmp'],['female'],[[8]],['male'],[[0]],[[0.2280938]],SH
264,[[21]],[[265]],[[17]],['low holistic'],['left'],['upright'],['U0346.bmp'],['female'],[[6]],['female'],[[1]],[[0.09239516]],SH
265,[[21]],[[266]],[[17]],['low holistic'],['right'],['inverted'],['U0346.bmp'],['female'],[[2]],['female'],[[1]],[[0.08815425]],SH
266,[[21]],[[267]],[[6]],['high holistic'],['right'],['upright'],['U0106.bmp'],['female'],[[2]],['female'],[[1]],[[0.0452019]],SH
267,[[21]],[[268]],[[6]],['low holistic'],['right'],['upright'],['U0106.bmp'],['male'],[[8]],['male'],[[1]],[[0.02578456]],SH
268,[[21]],[[269]],[[4]],['low holistic'],['fovea'],['inverted'],['U0061.bmp'],['female'],[[0]],['female'],[[1]],[[0.00010703]],SH
269,[[21]],[[270]],[[4]],['high holistic'],['right'],['inverted'],['U0061.bmp'],['female'],[[10]],['male'],[[0]],[[0.04153783]],SH
270,[[21]],[[271]],[[14]],['high holistic'],['left'],['inverted'],['U0228.bmp'],['male'],[[2]],['male'],[[1]],[[0.16021855]],SH
271,[[21]],[[272]],[[3]],['high holistic'],['left'],['upright'],['U0020.bmp'],['male'],[[8]],['female'],[[0]],[[0.00014872]],SH
272,[[21]],[[273]],[[6]],['high holistic'],['left'],['upright'],['U0106.bmp'],['female'],[[6]],['female'],[[1]],[[0.20223585]],SH
273,[[21]],[[274]],[[2]],['high holistic'],['right'],['inverted'],['U0014.bmp'],['male'],[[10]],['male'],[[1]],[[0.08199891]],SH
274,[[21]],[[275]],[[19]],['high holistic'],['right'],['inverted'],['U0361.bmp'],['female'],[[10]],['female'],[[1]],[[4.09334783]],SH
275,[[21]],[[276]],[[7]],['high holistic'],['right'],['inverted'],['U0107.bmp'],['female'],[[12]],['male'],[[0]],[[0.33168941]],SH
276,[[21]],[[277]],[[9]],['high holistic'],['right'],['upright'],['U0155.bmp'],['female'],[[8]],['male'],[[0]],[[0.25985212]],SH
277,[[21]],[[278]],[[7]],['low holistic'],['left'],['upright'],['U0107.bmp'],['female'],[[2]],['female'],[[1]],[[0.1392182]],SH
278,[[21]],[[279]],[[20]],['low holistic'],['left'],['inverted'],['U0362.bmp'],['male'],[[6]],['male'],[[1]],[[0.26224647]],SH
279,[[21]],[[280]],[[2]],['low holistic'],['right'],['upright'],['U0014.bmp'],['male'],[[8]],['male'],[[1]],[[0.15452218]],SH
280,[[21]],[[281]],[[18]],['high holistic'],['left'],['upright'],['U0359.bmp'],['male'],[[4]],['male'],[[1]],[[0.4356025]],SH
281,[[21]],[[282]],[[14]],['low holistic'],['right'],['upright'],['U0228.bmp'],['male'],[[2]],['male'],[[1]],[[0.1539179]],SH
282,[[21]],[[283]],[[5]],['low holistic'],['right'],['upright'],['U0076.bmp'],['male'],[[8]],['male'],[[1]],[[0.03649321]],SH
283,[[21]],[[284]],[[7]],['low holistic'],['right'],['upright'],['U0107.bmp'],['female'],[[12]],['female'],[[1]],[[0.20098453]],SH
284,[[21]],[[285]],[[8]],['high holistic'],['right'],['upright'],['U0137.bmp'],['female'],[[12]],['male'],[[0]],[[0.15559567]],SH
285,[[21]],[[286]],[[20]],['high holistic'],['right'],['upright'],['U0362.bmp'],['female'],[[6]],['female'],[[1]],[[0.2117509]],SH
286,[[21]],[[287]],[[15]],['low holistic'],['left'],['inverted'],['U0312.bmp'],['male'],[[8]],['male'],[[1]],[[0.29273491]],SH
287,[[21]],[[288]],[[14]],['high holistic'],['right'],['upright'],['U0228.bmp'],['male'],[[2]],['male'],[[1]],[[0.1763123]],SH
288,[[21]],[[289]],[[14]],['high holistic'],['right'],['inverted'],['U0228.bmp'],['male'],[[12]],['male'],[[1]],[[0.10503707]],SH
289,[[21]],[[290]],[[8]],['low holistic'],['right'],['upright'],['U0137.bmp'],['male'],[[2]],['male'],[[1]],[[0.10136338]],SH
290,[[21]],[[291]],[[19]],['low holistic'],['right'],['inverted'],['U0361.bmp'],['female'],[[4]],['male'],[[0]],[[0.12226181]],SH
291,[[21]],[[292]],[[20]],['high holistic'],['left'],['upright'],['U0362.bmp'],['female'],[[12]],['female'],[[1]],[[0.00044426]],SH
292,[[21]],[[293]],[[13]],['high holistic'],['right'],['inverted'],['U0181.bmp'],['female'],[[6]],['male'],[[0]],[[0.14937678]],SH
293,[[21]],[[294]],[[19]],['low holistic'],['left'],['inverted'],['U0361.bmp'],['female'],[[4]],['male'],[[0]],[[0.13374104]],SH
294,[[21]],[[295]],[[3]],['high holistic'],['right'],['inverted'],['U0020.bmp'],['male'],[[2]],['female'],[[0]],[[0.00022282]],SH
295,[[21]],[[296]],[[10]],['low holistic'],['left'],['inverted'],['U0159.bmp'],['female'],[[6]],['male'],[[0]],[[0.01564893]],SH
296,[[21]],[[297]],[[8]],['low holistic'],['left'],['upright'],['U0137.bmp'],['male'],[[12]],['male'],[[1]],[[1.50356604]],SH
297,[[21]],[[298]],[[8]],['low holistic'],['right'],['inverted'],['U0137.bmp'],['male'],[[10]],['male'],[[1]],[[0.23639754]],SH
298,[[21]],[[299]],[[4]],['high holistic'],['right'],['inverted'],['U0061.bmp'],['female'],[[6]],['male'],[[0]],[[0.00016178]],SH
299,[[21]],[[300]],[[6]],['low holistic'],['left'],['upright'],['U0106.bmp'],['male'],[[6]],['male'],[[1]],[[0.05120558]],SH
300,[[21]],[[301]],[[1]],['low holistic'],['left'],['inverted'],['U0006.bmp'],['female'],[[12]],['male'],[[0]],[[0.0162606]],SH
301,[[21]],[[302]],[[7]],['low holistic'],['left'],['inverted'],['U0107.bmp'],['female'],[[12]],['female'],[[1]],[[0.43243782]],SH
302,[[21]],[[303]],[[5]],['high holistic'],['right'],['upright'],['U0076.bmp'],['female'],[[8]],['female'],[[1]],[[0.18939611]],SH
303,[[21]],[[304]],[[1]],['high holistic'],['right'],['upright'],['U0006.bmp'],['female'],[[6]],['female'],[[1]],[[0.00054259]],SH
304,[[21]],[[305]],[[19]],['low holistic'],['right'],['inverted'],['U0361.bmp'],['female'],[[12]],['female'],[[1]],[[0.39175694]],SH
305,[[21]],[[306]],[[18]],['low holistic'],['left'],['upright'],['U0359.bmp'],['male'],[[6]],['male'],[[1]],[[0.15080976]],SH
306,[[21]],[[307]],[[11]],['low holistic'],['left'],['inverted'],['U0164.bmp'],['female'],[[4]],['female'],[[1]],[[0.01634565]],SH
307,[[21]],[[308]],[[6]],['low holistic'],['left'],['inverted'],['U0106.bmp'],['male'],[[4]],['male'],[[1]],[[0.38397105]],SH
308,[[21]],[[309]],[[20]],['high holistic'],['left'],['upright'],['U0362.bmp'],['female'],[[12]],['female'],[[1]],[[0.00046149]],SH
309,[[21]],[[310]],[[9]],['high holistic'],['right'],['upright'],['U0155.bmp'],['female'],[[6]],['female'],[[1]],[[0.43389307]],SH
310,[[21]],[[311]],[[19]],['low holistic'],['right'],['inverted'],['U0361.bmp'],['female'],[[2]],['female'],[[1]],[[0.00011857]],SH
311,[[21]],[[312]],[[13]],['high holistic'],['left'],['inverted'],['U0181.bmp'],['female'],[[4]],['female'],[[1]],[[0.07066694]],SH
312,[[21]],[[313]],[[8]],['low holistic'],['left'],['inverted'],['U0137.bmp'],['male'],[[4]],['male'],[[1]],[[0.07795755]],SH
313,[[21]],[[314]],[[5]],['low holistic'],['left'],['upright'],['U0076.bmp'],['male'],[[10]],['male'],[[1]],[[0.23332058]],SH
314,[[21]],[[315]],[[19]],['low holistic'],['right'],['upright'],['U0361.bmp'],['female'],[[4]],['female'],[[1]],[[0.00026435]],SH
315,[[21]],[[316]],[[3]],['high holistic'],['fovea'],['inverted'],['U0020.bmp'],['male'],[[0]],['male'],[[1]],[[0.0252194]],SH
316,[[21]],[[317]],[[17]],['low holistic'],['right'],['inverted'],['U0346.bmp'],['female'],[[8]],['female'],[[1]],[[0.0240904]],SH
317,[[21]],[[318]],[[14]],['high holistic'],['right'],['inverted'],['U0228.bmp'],['male'],[[4]],['female'],[[0]],[[1.14181618]],SH
318,[[21]],[[319]],[[1]],['high holistic'],['left'],['upright'],['U0006.bmp'],['female'],[[8]],['male'],[[0]],[[0.00012293]],SH
319,[[21]],[[320]],[[4]],['low holistic'],['left'],['upright'],['U0061.bmp'],['female'],[[12]],['female'],[[1]],[[0.35362705]],SH
320,[[21]],[[321]],[[5]],['high holistic'],['right'],['inverted'],['U0076.bmp'],['female'],[[4]],['female'],[[1]],[[0.4031568]],SH
321,[[21]],[[322]],[[20]],['high holistic'],['right'],['upright'],['U0362.bmp'],['female'],[[12]],['female'],[[1]],[[0.00012742]],SH
322,[[21]],[[323]],[[17]],['high holistic'],['right'],['inverted'],['U0346.bmp'],['male'],[[2]],['female'],[[0]],[[9.98321921e-05]],SH
323,[[21]],[[324]],[[7]],['high holistic'],['right'],['upright'],['U0107.bmp'],['female'],[[6]],['female'],[[1]],[[0.10620205]],SH
324,[[21]],[[325]],[[3]],['low holistic'],['right'],['upright'],['U0020.bmp'],['female'],[[8]],['female'],[[1]],[[0.00012002]],SH
325,[[21]],[[326]],[[5]],['high holistic'],['right'],['inverted'],['U0076.bmp'],['female'],[[10]],['male'],[[0]],[[0.39762147]],SH
326,[[21]],[[327]],[[8]],['low holistic'],['right'],['upright'],['U0137.bmp'],['male'],[[12]],['male'],[[1]],[[0.1266892]],SH
327,[[21]],[[328]],[[12]],['high holistic'],['fovea'],['inverted'],['U0178.bmp'],['male'],[[0]],['male'],[[1]],[[0.03410376]],SH
328,[[21]],[[329]],[[4]],['high holistic'],['right'],['inverted'],['U0061.bmp'],['female'],[[12]],['male'],[[0]],[[0.24886314]],SH
329,[[21]],[[330]],[[3]],['high holistic'],['right'],['upright'],['U0020.bmp'],['male'],[[2]],['female'],[[0]],[[0.0218443]],SH
330,[[21]],[[331]],[[10]],['low holistic'],['left'],['upright'],['U0159.bmp'],['female'],[[10]],['female'],[[1]],[[0.00017578]],SH
331,[[21]],[[332]],[[20]],['high holistic'],['right'],['inverted'],['U0362.bmp'],['female'],[[12]],['female'],[[1]],[[0.05238536]],SH
332,[[21]],[[333]],[[19]],['low holistic'],['left'],['inverted'],['U0361.bmp'],['female'],[[10]],['female'],[[1]],[[0.00010051]],SH
333,[[21]],[[334]],[[6]],['high holistic'],['left'],['inverted'],['U0106.bmp'],['female'],[[8]],['female'],[[1]],[[0.00010702]],SH
334,[[21]],[[335]],[[10]],['low holistic'],['right'],['inverted'],['U0159.bmp'],['female'],[[6]],['female'],[[1]],[[0.00060551]],SH
335,[[21]],[[336]],[[3]],['low holistic'],['left'],['inverted'],['U0020.bmp'],['female'],[[12]],['female'],[[1]],[[0.00023301]],SH
336,[[21]],[[337]],[[5]],['low holistic'],['left'],['inverted'],['U0076.bmp'],['male'],[[2]],['female'],[[0]],[[0.00290842]],SH
337,[[21]],[[338]],[[12]],['high holistic'],['left'],['upright'],['U0178.bmp'],['male'],[[4]],['female'],[[0]],[[9.97707248e-05]],SH
338,[[21]],[[339]],[[12]],['high holistic'],['left'],['inverted'],['U0178.bmp'],['male'],[[10]],['female'],[[0]],[[9.96030867e-05]],SH
339,[[21]],[[340]],[[11]],['high holistic'],['right'],['inverted'],['U0164.bmp'],['female'],[[10]],['male'],[[0]],[[0.21076769]],SH
340,[[21]],[[341]],[[8]],['high holistic'],['left'],['upright'],['U0137.bmp'],['female'],[[12]],['male'],[[0]],[[0.06694977]],SH
341,[[21]],[[342]],[[14]],['high holistic'],['right'],['upright'],['U0228.bmp'],['male'],[[12]],['male'],[[1]],[[0.00034443]],SH
342,[[21]],[[343]],[[10]],['high holistic'],['right'],['upright'],['U0159.bmp'],['male'],[[10]],['male'],[[1]],[[0.00010092]],SH
343,[[21]],[[344]],[[14]],['low holistic'],['left'],['inverted'],['U0228.bmp'],['male'],[[2]],['female'],[[0]],[[0.06317106]],SH
344,[[21]],[[345]],[[11]],['high holistic'],['right'],['upright'],['U0164.bmp'],['female'],[[8]],['male'],[[0]],[[9.99048352e-05]],SH
345,[[21]],[[346]],[[14]],['low holistic'],['left'],['inverted'],['U0228.bmp'],['male'],[[2]],['female'],[[0]],[[9.98340547e-05]],SH
346,[[21]],[[347]],[[2]],['high holistic'],['right'],['inverted'],['U0014.bmp'],['male'],[[2]],['female'],[[0]],[[0.39772212]],SH
347,[[21]],[[348]],[[11]],['high holistic'],['fovea'],['upright'],['U0164.bmp'],['female'],[[0]],['male'],[[0]],[[0.08520435]],SH
348,[[21]],[[349]],[[18]],['low holistic'],['right'],['upright'],['U0359.bmp'],['male'],[[2]],['male'],[[1]],[[0.48851337]],SH
349,[[21]],[[350]],[[11]],['low holistic'],['right'],['inverted'],['U0164.bmp'],['female'],[[12]],['female'],[[1]],[[0.05328402]],SH
350,[[21]],[[351]],[[6]],['high holistic'],['right'],['inverted'],['U0106.bmp'],['female'],[[10]],['female'],[[1]],[[0.00048809]],SH
351,[[21]],[[352]],[[10]],['low holistic'],['right'],['inverted'],['U0159.bmp'],['female'],[[2]],['female'],[[1]],[[9.97520983e-05]],SH
352,[[21]],[[353]],[[17]],['low holistic'],['left'],['inverted'],['U0346.bmp'],['female'],[[10]],['female'],[[1]],[[0.31585679]],SH
353,[[21]],[[354]],[[13]],['low holistic'],['fovea'],['upright'],['U0181.bmp'],['male'],[[0]],['male'],[[1]],[[0.0306172]],SH
354,[[21]],[[355]],[[19]],['low holistic'],['right'],['inverted'],['U0361.bmp'],['female'],[[6]],['female'],[[1]],[[0.36499494]],SH
355,[[21]],[[356]],[[2]],['low holistic'],['fovea'],['inverted'],['U0014.bmp'],['male'],[[0]],['male'],[[1]],[[0.07054844]],SH
356,[[21]],[[357]],[[14]],['low holistic'],['right'],['inverted'],['U0228.bmp'],['male'],[[8]],['female'],[[0]],[[0.02125347]],SH
357,[[21]],[[358]],[[16]],['low holistic'],['left'],['inverted'],['U0335.bmp'],['female'],[[12]],['female'],[[1]],[[0.28425448]],SH
358,[[21]],[[359]],[[9]],['high holistic'],['fovea'],['upright'],['U0155.bmp'],['female'],[[0]],['female'],[[1]],[[0.57679264]],SH
359,[[21]],[[360]],[[15]],['high holistic'],['left'],['inverted'],['U0312.bmp'],['male'],[[10]],['female'],[[0]],[[0.00023556]],SH
360,[[21]],[[361]],[[15]],['low holistic'],['right'],['inverted'],['U0312.bmp'],['male'],[[4]],['male'],[[1]],[[0.12852394]],SH
361,[[21]],[[362]],[[9]],['low holistic'],['right'],['inverted'],['U0155.bmp'],['male'],[[4]],['male'],[[1]],[[0.03603877]],SH
362,[[21]],[[363]],[[19]],['high holistic'],['left'],['upright'],['U0361.bmp'],['female'],[[10]],['male'],[[0]],[[0.04979242]],SH
363,[[21]],[[364]],[[1]],['high holistic'],['right'],['inverted'],['U0006.bmp'],['female'],[[8]],['female'],[[1]],[[0.17807809]],SH
364,[[21]],[[365]],[[1]],['low holistic'],['left'],['inverted'],['U0006.bmp'],['female'],[[10]],['female'],[[1]],[[0.00011163]],SH
365,[[21]],[[366]],[[20]],['low holistic'],['left'],['inverted'],['U0362.bmp'],['male'],[[6]],['male'],[[1]],[[0.20227227]],SH
366,[[21]],[[367]],[[17]],['high holistic'],['left'],['inverted'],['U0346.bmp'],['male'],[[12]],['male'],[[1]],[[0.23439826]],SH
367,[[21]],[[368]],[[12]],['high holistic'],['right'],['upright'],['U0178.bmp'],['male'],[[2]],['male'],[[1]],[[0.11888102]],SH
368,[[21]],[[369]],[[18]],['high holistic'],['left'],['upright'],['U0359.bmp'],['male'],[[12]],['male'],[[1]],[[0.11429]],SH
369,[[21]],[[370]],[[8]],['high holistic'],['right'],['upright'],['U0137.bmp'],['female'],[[2]],['female'],[[1]],[[0.21410192]],SH
370,[[21]],[[371]],[[20]],['high holistic'],['left'],['upright'],['U0362.bmp'],['female'],[[8]],['female'],[[1]],[[0.27856219]],SH
371,[[21]],[[372]],[[10]],['low holistic'],['fovea'],['upright'],['U0159.bmp'],['female'],[[0]],['female'],[[1]],[[0.00015872]],SH
372,[[21]],[[373]],[[19]],['low holistic'],['left'],['upright'],['U0361.bmp'],['female'],[[8]],['female'],[[1]],[[0.01749672]],SH
373,[[21]],[[374]],[[12]],['high holistic'],['left'],['inverted'],['U0178.bmp'],['male'],[[6]],['female'],[[0]],[[0.00010628]],SH
374,[[21]],[[375]],[[2]],['high holistic'],['right'],['upright'],['U0014.bmp'],['male'],[[6]],['male'],[[1]],[[0.19321499]],SH
375,[[21]],[[376]],[[9]],['high holistic'],['left'],['inverted'],['U0155.bmp'],['female'],[[6]],['female'],[[1]],[[9.86419618e-05]],SH
376,[[21]],[[377]],[[11]],['high holistic'],['fovea'],['upright'],['U0164.bmp'],['female'],[[0]],['female'],[[1]],[[0.05016331]],SH
377,[[21]],[[378]],[[11]],['low holistic'],['left'],['upright'],['U0164.bmp'],['female'],[[10]],['female'],[[1]],[[0.00027849]],SH
378,[[21]],[[379]],[[20]],['low holistic'],['right'],['upright'],['U0362.bmp'],['male'],[[4]],['male'],[[1]],[[0.000174]],SH
379,[[21]],[[380]],[[7]],['low holistic'],['right'],['upright'],['U0107.bmp'],['female'],[[2]],['female'],[[1]],[[0.05640476]],SH
380,[[21]],[[381]],[[16]],['high holistic'],['left'],['upright'],['U0335.bmp'],['female'],[[10]],['female'],[[1]],[[0.0304374]],SH
381,[[21]],[[382]],[[14]],['high holistic'],['fovea'],['inverted'],['U0228.bmp'],['male'],[[0]],['male'],[[1]],[[0.14129975]],SH
382,[[21]],[[383]],[[9]],['low holistic'],['left'],['inverted'],['U0155.bmp'],['male'],[[10]],['female'],[[0]],[[0.11002518]],SH
383,[[21]],[[384]],[[14]],['low holistic'],['fovea'],['upright'],['U0228.bmp'],['male'],[[0]],['male'],[[1]],[[3.85927913]],SH
384,[[21]],[[385]],[[15]],['low holistic'],['right'],['upright'],['U0312.bmp'],['male'],[[6]],['male'],[[1]],[[0.1435585]],SH
385,[[21]],[[386]],[[2]],['high holistic'],['left'],['upright'],['U0014.bmp'],['male'],[[10]],['male'],[[1]],[[0.04154706]],SH
386,[[21]],[[387]],[[8]],['low holistic'],['right'],['upright'],['U0137.bmp'],['male'],[[6]],['male'],[[1]],[[4.77574983]],SH
387,[[21]],[[388]],[[12]],['high holistic'],['right'],['inverted'],['U0178.bmp'],['male'],[[8]],['male'],[[1]],[[0.44860242]],SH
388,[[21]],[[389]],[[10]],['high holistic'],['left'],['upright'],['U0159.bmp'],['male'],[[10]],['male'],[[1]],[[0.09412858]],SH
389,[[21]],[[390]],[[12]],['high holistic'],['fovea'],['inverted'],['U0178.bmp'],['male'],[[0]],['male'],[[1]],[[0.05798366]],SH
390,[[21]],[[391]],[[5]],['high holistic'],['fovea'],['upright'],['U0076.bmp'],['female'],[[0]],['female'],[[1]],[[0.36409216]],SH
391,[[21]],[[392]],[[18]],['high holistic'],['left'],['inverted'],['U0359.bmp'],['male'],[[6]],['female'],[[0]],[[9.95341688e-05]],SH
392,[[21]],[[393]],[[8]],['high holistic'],['right'],['inverted'],['U0137.bmp'],['female'],[[2]],['female'],[[1]],[[0.07699768]],SH
393,[[21]],[[394]],[[13]],['low holistic'],['left'],['inverted'],['U0181.bmp'],['male'],[[2]],['male'],[[1]],[[4.01811225]],SH
394,[[21]],[[395]],[[6]],['low holistic'],['left'],['upright'],['U0106.bmp'],['male'],[[12]],['female'],[[0]],[[0.64027593]],SH
395,[[21]],[[396]],[[15]],['low holistic'],['right'],['upright'],['U0312.bmp'],['male'],[[12]],['male'],[[1]],[[9.89362597e-05]],SH
396,[[21]],[[397]],[[15]],['low holistic'],['fovea'],['inverted'],['U0312.bmp'],['male'],[[0]],['male'],[[1]],[[0.12606298]],SH
397,[[21]],[[398]],[[1]],['high holistic'],['left'],['upright'],['U0006.bmp'],['female'],[[2]],['female'],[[1]],[[0.00015907]],SH
398,[[21]],[[399]],[[13]],['high holistic'],['right'],['upright'],['U0181.bmp'],['female'],[[10]],['female'],[[1]],[[0.29820139]],SH
399,[[21]],[[400]],[[11]],['high holistic'],['left'],['upright'],['U0164.bmp'],['female'],[[10]],['male'],[[0]],[[0.16665967]],SH
400,[[21]],[[401]],[[15]],['high holistic'],['left'],['inverted'],['U0312.bmp'],['male'],[[4]],['male'],[[1]],[[0.33502444]],SH
401,[[21]],[[402]],[[11]],['low holistic'],['right'],['inverted'],['U0164.bmp'],['female'],[[2]],['female'],[[1]],[[0.08885739]],SH
402,[[21]],[[403]],[[14]],['low holistic'],['left'],['upright'],['U0228.bmp'],['male'],[[6]],['male'],[[1]],[[0.09483686]],SH
403,[[21]],[[404]],[[11]],['low holistic'],['left'],['inverted'],['U0164.bmp'],['female'],[[10]],['male'],[[0]],[[0.03420784]],SH
404,[[21]],[[405]],[[14]],['low holistic'],['right'],['upright'],['U0228.bmp'],['male'],[[2]],['male'],[[1]],[[0.10501216]],SH
405,[[21]],[[406]],[[7]],['low holistic'],['right'],['inverted'],['U0107.bmp'],['female'],[[8]],['female'],[[1]],[[0.00413157]],SH
406,[[21]],[[407]],[[2]],['low holistic'],['right'],['upright'],['U0014.bmp'],['male'],[[8]],['male'],[[1]],[[0.16488164]],SH
407,[[21]],[[408]],[[18]],['low holistic'],['left'],['upright'],['U0359.bmp'],['male'],[[8]],['male'],[[1]],[[0.06017132]],SH
408,[[21]],[[409]],[[19]],['low holistic'],['fovea'],['upright'],['U0361.bmp'],['female'],[[0]],['female'],[[1]],[[0.00010256]],SH
409,[[21]],[[410]],[[1]],['high holistic'],['left'],['upright'],['U0006.bmp'],['female'],[[10]],['female'],[[1]],[[0.30776234]],SH
410,[[21]],[[411]],[[10]],['high holistic'],['right'],['upright'],['U0159.bmp'],['male'],[[8]],['male'],[[1]],[[0.05362159]],SH
411,[[21]],[[412]],[[10]],['low holistic'],['right'],['upright'],['U0159.bmp'],['female'],[[8]],['female'],[[1]],[[0.03462968]],SH
412,[[21]],[[413]],[[3]],['low holistic'],['left'],['inverted'],['U0020.bmp'],['female'],[[10]],['female'],[[1]],[[0.21927043]],SH
413,[[21]],[[414]],[[15]],['high holistic'],['left'],['upright'],['U0312.bmp'],['male'],[[12]],['male'],[[1]],[[0.38533381]],SH
414,[[21]],[[415]],[[11]],['low holistic'],['right'],['upright'],['U0164.bmp'],['female'],[[2]],['female'],[[1]],[[0.04298813]],SH
415,[[21]],[[416]],[[7]],['high holistic'],['right'],['inverted'],['U0107.bmp'],['female'],[[8]],['male'],[[0]],[[0.11317809]],SH
416,[[21]],[[417]],[[4]],['low holistic'],['right'],['upright'],['U0061.bmp'],['female'],[[10]],['female'],[[1]],[[0.29950001]],SH
417,[[21]],[[418]],[[16]],['high holistic'],['left'],['upright'],['U0335.bmp'],['female'],[[10]],['female'],[[1]],[[0.3600691]],SH
418,[[21]],[[419]],[[7]],['high holistic'],['right'],['inverted'],['U0107.bmp'],['female'],[[8]],['male'],[[0]],[[0.17850396]],SH
419,[[21]],[[420]],[[12]],['low holistic'],['left'],['inverted'],['U0178.bmp'],['female'],[[12]],['female'],[[1]],[[0.08160218]],SH
420,[[21]],[[421]],[[15]],['high holistic'],['left'],['inverted'],['U0312.bmp'],['male'],[[8]],['male'],[[1]],[[0.5499162]],SH
421,[[21]],[[422]],[[7]],['high holistic'],['left'],['upright'],['U0107.bmp'],['female'],[[8]],['male'],[[0]],[[0.15278321]],SH
422,[[21]],[[423]],[[7]],['high holistic'],['right'],['inverted'],['U0107.bmp'],['female'],[[4]],['male'],[[0]],[[0.2179255]],SH
423,[[21]],[[424]],[[8]],['low holistic'],['left'],['inverted'],['U0137.bmp'],['male'],[[4]],['male'],[[1]],[[0.18539876]],SH
424,[[21]],[[425]],[[12]],['low holistic'],['right'],['inverted'],['U0178.bmp'],['female'],[[6]],['female'],[[1]],[[0.1864796]],SH
425,[[21]],[[426]],[[18]],['high holistic'],['left'],['inverted'],['U0359.bmp'],['male'],[[6]],['female'],[[0]],[[0.16298319]],SH
426,[[21]],[[427]],[[11]],['high holistic'],['right'],['inverted'],['U0164.bmp'],['female'],[[8]],['male'],[[0]],[[0.05360845]],SH
427,[[21]],[[428]],[[13]],['high holistic'],['left'],['upright'],['U0181.bmp'],['female'],[[2]],['female'],[[1]],[[0.13767077]],SH
428,[[21]],[[429]],[[6]],['low holistic'],['left'],['inverted'],['U0106.bmp'],['male'],[[2]],['male'],[[1]],[[0.28510787]],SH
429,[[21]],[[430]],[[16]],['low holistic'],['left'],['inverted'],['U0335.bmp'],['female'],[[2]],['female'],[[1]],[[0.12010691]],SH
430,[[21]],[[431]],[[9]],['low holistic'],['left'],['upright'],['U0155.bmp'],['male'],[[6]],['male'],[[1]],[[0.14060862]],SH
431,[[21]],[[432]],[[1]],['low holistic'],['left'],['inverted'],['U0006.bmp'],['female'],[[8]],['female'],[[1]],[[0.07101984]],SH
432,[[21]],[[433]],[[2]],['low holistic'],['left'],['upright'],['U0014.bmp'],['male'],[[8]],['male'],[[1]],[[0.10846728]],SH
433,[[21]],[[434]],[[1]],['low holistic'],['right'],['inverted'],['U0006.bmp'],['female'],[[12]],['female'],[[1]],[[0.06367822]],SH
434,[[21]],[[435]],[[11]],['low holistic'],['left'],['upright'],['U0164.bmp'],['female'],[[8]],['male'],[[0]],[[0.04432495]],SH
435,[[21]],[[436]],[[2]],['high holistic'],['right'],['upright'],['U0014.bmp'],['male'],[[2]],['male'],[[1]],[[0.09949824]],SH
436,[[21]],[[437]],[[20]],['low holistic'],['right'],['upright'],['U0362.bmp'],['male'],[[4]],['male'],[[1]],[[0.07704943]],SH
437,[[21]],[[438]],[[19]],['low holistic'],['left'],['upright'],['U0361.bmp'],['female'],[[8]],['female'],[[1]],[[9.98359174e-05]],SH
438,[[21]],[[439]],[[9]],['low holistic'],['right'],['upright'],['U0155.bmp'],['male'],[[8]],['male'],[[1]],[[0.00010796]],SH
439,[[21]],[[440]],[[12]],['low holistic'],['left'],['inverted'],['U0178.bmp'],['female'],[[4]],['female'],[[1]],[[0.00018927]],SH
440,[[21]],[[441]],[[1]],['low holistic'],['left'],['upright'],['U0006.bmp'],['female'],[[12]],['female'],[[1]],[[0.00295343]],SH
441,[[21]],[[442]],[[7]],['high holistic'],['right'],['upright'],['U0107.bmp'],['female'],[[2]],['female'],[[1]],[[9.93367285e-05]],SH
442,[[21]],[[443]],[[14]],['high holistic'],['left'],['inverted'],['U0228.bmp'],['male'],[[6]],['female'],[[0]],[[0.09041052]],SH
443,[[21]],[[444]],[[9]],['high holistic'],['fovea'],['inverted'],['U0155.bmp'],['female'],[[0]],['male'],[[0]],[[0.10931469]],SH
444,[[21]],[[445]],[[12]],['low holistic'],['left'],['inverted'],['U0178.bmp'],['female'],[[6]],['female'],[[1]],[[0.13794427]],SH
445,[[21]],[[446]],[[3]],['low holistic'],['left'],['upright'],['U0020.bmp'],['female'],[[6]],['female'],[[1]],[[0.13220243]],SH
446,[[21]],[[447]],[[12]],['high holistic'],['right'],['inverted'],['U0178.bmp'],['male'],[[2]],['male'],[[1]],[[0.18354382]],SH
447,[[21]],[[448]],[[15]],['high holistic'],['left'],['upright'],['U0312.bmp'],['male'],[[6]],['male'],[[1]],[[0.45556419]],SH
448,[[21]],[[449]],[[4]],['high holistic'],['right'],['inverted'],['U0061.bmp'],['female'],[[4]],['female'],[[1]],[[0.26850589]],SH
449,[[21]],[[450]],[[2]],['high holistic'],['right'],['upright'],['U0014.bmp'],['male'],[[12]],['male'],[[1]],[[0.1772279]],SH
450,[[21]],[[451]],[[12]],['high holistic'],['left'],['inverted'],['U0178.bmp'],['male'],[[10]],['female'],[[0]],[[0.36978319]],SH
451,[[21]],[[452]],[[13]],['low holistic'],['left'],['upright'],['U0181.bmp'],['male'],[[4]],['male'],[[1]],[[0.17962472]],SH
452,[[21]],[[453]],[[9]],['low holistic'],['right'],['upright'],['U0155.bmp'],['male'],[[12]],['male'],[[1]],[[0.14867235]],SH
453,[[21]],[[454]],[[20]],['low holistic'],['right'],['upright'],['U0362.bmp'],['male'],[[4]],['male'],[[1]],[[0.18052037]],SH
454,[[21]],[[455]],[[4]],['high holistic'],['right'],['inverted'],['U0061.bmp'],['female'],[[12]],['female'],[[1]],[[0.54276526]],SH
455,[[21]],[[456]],[[11]],['low holistic'],['left'],['inverted'],['U0164.bmp'],['female'],[[6]],['female'],[[1]],[[0.24139137]],SH
456,[[21]],[[457]],[[1]],['low holistic'],['right'],['upright'],['U0006.bmp'],['female'],[[10]],['female'],[[1]],[[0.29378073]],SH
457,[[21]],[[458]],[[20]],['high holistic'],['left'],['inverted'],['U0362.bmp'],['female'],[[8]],['male'],[[0]],[[0.27501927]],SH
458,[[21]],[[459]],[[10]],['high holistic'],['left'],['upright'],['U0159.bmp'],['male'],[[2]],['male'],[[1]],[[0.2403741]],SH
459,[[21]],[[460]],[[18]],['low holistic'],['right'],['upright'],['U0359.bmp'],['male'],[[8]],['male'],[[1]],[[0.3015874]],SH
460,[[21]],[[461]],[[18]],['low holistic'],['right'],['upright'],['U0359.bmp'],['male'],[[12]],['male'],[[1]],[[0.08862682]],SH
461,[[21]],[[462]],[[9]],['low holistic'],['right'],['upright'],['U0155.bmp'],['male'],[[2]],['male'],[[1]],[[0.15013541]],SH
462,[[21]],[[463]],[[10]],['high holistic'],['left'],['inverted'],['U0159.bmp'],['male'],[[6]],['female'],[[0]],[[0.23279685]],SH
463,[[21]],[[464]],[[1]],['high holistic'],['left'],['inverted'],['U0006.bmp'],['female'],[[12]],['female'],[[1]],[[0.3264323]],SH
464,[[21]],[[465]],[[11]],['low holistic'],['right'],['inverted'],['U0164.bmp'],['female'],[[8]],['female'],[[1]],[[0.29640299]],SH
465,[[21]],[[466]],[[1]],['high holistic'],['left'],['inverted'],['U0006.bmp'],['female'],[[6]],['female'],[[1]],[[0.42772266]],SH
466,[[21]],[[467]],[[16]],['high holistic'],['right'],['upright'],['U0335.bmp'],['female'],[[12]],['male'],[[0]],[[0.53951889]],SH
467,[[21]],[[468]],[[3]],['high holistic'],['right'],['upright'],['U0020.bmp'],['male'],[[10]],['male'],[[1]],[[0.58935837]],SH
468,[[21]],[[469]],[[3]],['low holistic'],['right'],['upright'],['U0020.bmp'],['female'],[[2]],['female'],[[1]],[[0.28335064]],SH
469,[[21]],[[470]],[[20]],['low holistic'],['left'],['inverted'],['U0362.bmp'],['male'],[[12]],['male'],[[1]],[[0.17572336]],SH
470,[[21]],[[471]],[[13]],['low holistic'],['left'],['inverted'],['U0181.bmp'],['male'],[[6]],['male'],[[1]],[[0.29050454]],SH
471,[[21]],[[472]],[[6]],['low holistic'],['left'],['upright'],['U0106.bmp'],['male'],[[10]],['female'],[[0]],[[0.81283317]],SH
472,[[21]],[[473]],[[4]],['high holistic'],['left'],['upright'],['U0061.bmp'],['female'],[[2]],['female'],[[1]],[[0.22986428]],SH
473,[[21]],[[474]],[[12]],['low holistic'],['left'],['upright'],['U0178.bmp'],['female'],[[4]],['female'],[[1]],[[0.25096334]],SH
474,[[21]],[[475]],[[6]],['low holistic'],['right'],['inverted'],['U0106.bmp'],['male'],[[2]],['male'],[[1]],[[0.37777409]],SH
475,[[21]],[[476]],[[5]],['low holistic'],['left'],['upright'],['U0076.bmp'],['male'],[[4]],['male'],[[1]],[[0.27417763]],SH
476,[[21]],[[477]],[[1]],['low holistic'],['left'],['inverted'],['U0006.bmp'],['female'],[[12]],['female'],[[1]],[[0.18221884]],SH
477,[[21]],[[478]],[[8]],['low holistic'],['left'],['upright'],['U0137.bmp'],['male'],[[2]],['male'],[[1]],[[0.07973762]],SH
478,[[21]],[[479]],[[19]],['low holistic'],['right'],['upright'],['U0361.bmp'],['female'],[[10]],['female'],[[1]],[[0.20391138]],SH
479,[[21]],[[480]],[[8]],['low holistic'],['right'],['inverted'],['U0137.bmp'],['male'],[[4]],['male'],[[1]],[[0.38716539]],SH
480,[[21]],[[481]],[[17]],['low holistic'],['left'],['inverted'],['U0346.bmp'],['female'],[[10]],['female'],[[1]],[[0.00012569]],SH
481,[[21]],[[482]],[[6]],['high holistic'],['left'],['upright'],['U0106.bmp'],['female'],[[2]],['male'],[[0]],[[0.41852977]],SH
482,[[21]],[[483]],[[1]],['low holistic'],['right'],['upright'],['U0006.bmp'],['female'],[[12]],['female'],[[1]],[[0.08158291]],SH
483,[[21]],[[484]],[[16]],['low holistic'],['right'],['inverted'],['U0335.bmp'],['female'],[[6]],['female'],[[1]],[[0.39917514]],SH
484,[[21]],[[485]],[[6]],['low holistic'],['right'],['upright'],['U0106.bmp'],['male'],[[12]],['male'],[[1]],[[0.143604]],SH
485,[[21]],[[486]],[[14]],['low holistic'],['left'],['upright'],['U0228.bmp'],['male'],[[8]],['female'],[[0]],[[0.00024476]],SH
486,[[21]],[[487]],[[3]],['high holistic'],['left'],['inverted'],['U0020.bmp'],['male'],[[10]],['female'],[[0]],[[0.32658844]],SH
487,[[21]],[[488]],[[17]],['high holistic'],['right'],['upright'],['U0346.bmp'],['male'],[[8]],['male'],[[1]],[[0.12941687]],SH
488,[[21]],[[489]],[[4]],['high holistic'],['left'],['inverted'],['U0061.bmp'],['female'],[[8]],['female'],[[1]],[[0.67680262]],SH
489,[[21]],[[490]],[[18]],['low holistic'],['fovea'],['inverted'],['U0359.bmp'],['male'],[[0]],['female'],[[0]],[[0.52059133]],SH
490,[[21]],[[491]],[[17]],['low holistic'],['left'],['upright'],['U0346.bmp'],['female'],[[12]],['male'],[[0]],[[0.22851792]],SH
491,[[21]],[[492]],[[9]],['high holistic'],['left'],['inverted'],['U0155.bmp'],['female'],[[8]],['female'],[[1]],[[0.35547516]],SH
492,[[21]],[[493]],[[4]],['low holistic'],['right'],['upright'],['U0061.bmp'],['female'],[[10]],['female'],[[1]],[[0.13235111]],SH
493,[[21]],[[494]],[[12]],['low holistic'],['fovea'],['inverted'],['U0178.bmp'],['female'],[[0]],['female'],[[1]],[[0.06307207]],SH
494,[[21]],[[495]],[[7]],['high holistic'],['right'],['upright'],['U0107.bmp'],['female'],[[12]],['male'],[[0]],[[0.10786746]],SH
495,[[21]],[[496]],[[3]],['low holistic'],['left'],['inverted'],['U0020.bmp'],['female'],[[4]],['female'],[[1]],[[0.03755361]],SH
496,[[21]],[[497]],[[14]],['high holistic'],['right'],['inverted'],['U0228.bmp'],['male'],[[6]],['female'],[[0]],[[0.18784587]],SH
497,[[21]],[[498]],[[14]],['low holistic'],['right'],['upright'],['U0228.bmp'],['male'],[[8]],['male'],[[1]],[[0.10897508]],SH
498,[[21]],[[499]],[[18]],['low holistic'],['right'],['inverted'],['U0359.bmp'],['male'],[[6]],['male'],[[1]],[[0.13568315]],SH
499,[[21]],[[500]],[[4]],['low holistic'],['left'],['upright'],['U0061.bmp'],['female'],[[2]],['female'],[[1]],[[0.00034362]],SH
500,[[21]],[[501]],[[15]],['high holistic'],['right'],['inverted'],['U0312.bmp'],['male'],[[10]],['female'],[[0]],[[0.13796039]],SH
501,[[21]],[[502]],[[11]],['low holistic'],['left'],['upright'],['U0164.bmp'],['female'],[[4]],['female'],[[1]],[[0.00011241]],SH
502,[[21]],[[503]],[[19]],['low holistic'],['right'],['upright'],['U0361.bmp'],['female'],[[12]],['female'],[[1]],[[0.12236986]],SH
503,[[21]],[[504]],[[1]],['high holistic'],['right'],['upright'],['U0006.bmp'],['female'],[[10]],['female'],[[1]],[[0.03193616]],SH
504,[[21]],[[505]],[[18]],['low holistic'],['left'],['upright'],['U0359.bmp'],['male'],[[8]],['male'],[[1]],[[0.24421729]],SH
505,[[21]],[[506]],[[19]],['high holistic'],['left'],['upright'],['U0361.bmp'],['female'],[[12]],['male'],[[0]],[[0.37043876]],SH
506,[[21]],[[507]],[[5]],['low holistic'],['right'],['upright'],['U0076.bmp'],['male'],[[2]],['male'],[[1]],[[0.49022106]],SH
507,[[21]],[[508]],[[15]],['high holistic'],['left'],['inverted'],['U0312.bmp'],['male'],[[6]],['male'],[[1]],[[0.55966515]],SH
508,[[21]],[[509]],[[14]],['high holistic'],['left'],['upright'],['U0228.bmp'],['male'],[[8]],['male'],[[1]],[[0.15321729]],SH
509,[[21]],[[510]],[[6]],['high holistic'],['left'],['inverted'],['U0106.bmp'],['female'],[[4]],['female'],[[1]],[[0.27388956]],SH
510,[[21]],[[511]],[[17]],['low holistic'],['left'],['inverted'],['U0346.bmp'],['female'],[[4]],['male'],[[0]],[[0.22381998]],SH
511,[[21]],[[512]],[[11]],['low holistic'],['left'],['inverted'],['U0164.bmp'],['female'],[[12]],['female'],[[1]],[[0.19829933]],SH
512,[[21]],[[513]],[[4]],['low holistic'],['fovea'],['upright'],['U0061.bmp'],['female'],[[0]],['female'],[[1]],[[0.14125874]],SH
513,[[21]],[[514]],[[6]],['low holistic'],['fovea'],['inverted'],['U0106.bmp'],['male'],[[0]],['male'],[[1]],[[0.21615539]],SH
514,[[21]],[[515]],[[18]],['low holistic'],['left'],['inverted'],['U0359.bmp'],['male'],[[6]],['male'],[[1]],[[0.17427116]],SH
515,[[21]],[[516]],[[9]],['low holistic'],['left'],['upright'],['U0155.bmp'],['male'],[[4]],['female'],[[0]],[[0.0004436]],SH
516,[[21]],[[517]],[[15]],['high holistic'],['right'],['inverted'],['U0312.bmp'],['male'],[[4]],['female'],[[0]],[[0.43005783]],SH
517,[[21]],[[518]],[[7]],['low holistic'],['right'],['upright'],['U0107.bmp'],['female'],[[4]],['female'],[[1]],[[0.2939737]],SH
518,[[21]],[[519]],[[13]],['high holistic'],['right'],['upright'],['U0181.bmp'],['female'],[[10]],['female'],[[1]],[[0.20165114]],SH
519,[[21]],[[520]],[[9]],['high holistic'],['right'],['inverted'],['U0155.bmp'],['female'],[[12]],['female'],[[1]],[[0.09759314]],SH
520,[[21]],[[521]],[[1]],['high holistic'],['left'],['upright'],['U0006.bmp'],['female'],[[8]],['female'],[[1]],[[0.21788819]],SH
521,[[21]],[[522]],[[10]],['high holistic'],['left'],['upright'],['U0159.bmp'],['male'],[[6]],['male'],[[1]],[[1.05708438]],SH
522,[[21]],[[523]],[[6]],['high holistic'],['left'],['upright'],['U0106.bmp'],['female'],[[2]],['female'],[[1]],[[0.18967079]],SH
523,[[21]],[[524]],[[7]],['low holistic'],['right'],['inverted'],['U0107.bmp'],['female'],[[8]],['female'],[[1]],[[0.27776297]],SH
524,[[21]],[[525]],[[16]],['high holistic'],['right'],['inverted'],['U0335.bmp'],['female'],[[8]],['female'],[[1]],[[0.67468482]],SH
525,[[21]],[[526]],[[13]],['low holistic'],['right'],['upright'],['U0181.bmp'],['male'],[[10]],['male'],[[1]],[[0.23093396]],SH
526,[[21]],[[527]],[[14]],['high holistic'],['right'],['inverted'],['U0228.bmp'],['male'],[[10]],['female'],[[0]],[[0.24399991]],SH
527,[[21]],[[528]],[[1]],['low holistic'],['left'],['upright'],['U0006.bmp'],['female'],[[8]],['female'],[[1]],[[0.13082414]],SH
528,[[21]],[[529]],[[15]],['high holistic'],['right'],['upright'],['U0312.bmp'],['male'],[[8]],['male'],[[1]],[[0.89319424]],SH
529,[[21]],[[530]],[[20]],['high holistic'],['right'],['upright'],['U0362.bmp'],['female'],[[12]],['female'],[[1]],[[0.27240145]],SH
530,[[21]],[[531]],[[4]],['high holistic'],['right'],['upright'],['U0061.bmp'],['female'],[[12]],['male'],[[0]],[[1.07813237]],SH
531,[[21]],[[532]],[[14]],['high holistic'],['left'],['upright'],['U0228.bmp'],['male'],[[4]],['male'],[[1]],[[0.4039801]],SH
532,[[21]],[[533]],[[15]],['low holistic'],['fovea'],['inverted'],['U0312.bmp'],['male'],[[0]],['male'],[[1]],[[0.31323769]],SH
533,[[21]],[[534]],[[6]],['low holistic'],['left'],['inverted'],['U0106.bmp'],['male'],[[2]],['male'],[[1]],[[0.32552541]],SH
534,[[21]],[[535]],[[1]],['high holistic'],['right'],['inverted'],['U0006.bmp'],['female'],[[4]],['female'],[[1]],[[0.3829996]],SH
535,[[21]],[[536]],[[20]],['high holistic'],['right'],['inverted'],['U0362.bmp'],['female'],[[4]],['male'],[[0]],[[0.28076868]],SH
536,[[21]],[[537]],[[14]],['high holistic'],['left'],['upright'],['U0228.bmp'],['male'],[[8]],['male'],[[1]],[[0.24376487]],SH
537,[[21]],[[538]],[[15]],['low holistic'],['left'],['inverted'],['U0312.bmp'],['male'],[[6]],['male'],[[1]],[[0.78567972]],SH
538,[[21]],[[539]],[[4]],['high holistic'],['right'],['upright'],['U0061.bmp'],['female'],[[2]],['female'],[[1]],[[0.16153196]],SH
539,[[21]],[[540]],[[5]],['high holistic'],['left'],['upright'],['U0076.bmp'],['female'],[[6]],['female'],[[1]],[[0.2199148]],SH
540,[[21]],[[541]],[[9]],['low holistic'],['right'],['inverted'],['U0155.bmp'],['male'],[[4]],['male'],[[1]],[[0.07482016]],SH
541,[[21]],[[542]],[[9]],['low holistic'],['fovea'],['upright'],['U0155.bmp'],['male'],[[0]],['male'],[[1]],[[0.11304481]],SH
542,[[21]],[[543]],[[3]],['high holistic'],['left'],['inverted'],['U0020.bmp'],['male'],[[4]],['female'],[[0]],[[0.21082314]],SH
543,[[21]],[[544]],[[4]],['low holistic'],['left'],['upright'],['U0061.bmp'],['female'],[[4]],['female'],[[1]],[[0.39521562]],SH
544,[[21]],[[545]],[[10]],['high holistic'],['right'],['inverted'],['U0159.bmp'],['male'],[[4]],['male'],[[1]],[[0.53114394]],SH
545,[[21]],[[546]],[[20]],['high holistic'],['left'],['upright'],['U0362.bmp'],['female'],[[10]],['female'],[[1]],[[0.27651769]],SH
546,[[21]],[[547]],[[7]],['high holistic'],['right'],['upright'],['U0107.bmp'],['female'],[[10]],['male'],[[0]],[[0.10505649]],SH
547,[[21]],[[548]],[[9]],['low holistic'],['left'],['upright'],['U0155.bmp'],['male'],[[2]],['female'],[[0]],[[0.00010112]],SH
548,[[21]],[[549]],[[10]],['high holistic'],['right'],['inverted'],['U0159.bmp'],['male'],[[2]],['male'],[[1]],[[1.21282286]],SH
549,[[21]],[[550]],[[4]],['low holistic'],['right'],['inverted'],['U0061.bmp'],['female'],[[8]],['female'],[[1]],[[0.25254191]],SH
550,[[21]],[[551]],[[3]],['high holistic'],['left'],['inverted'],['U0020.bmp'],['male'],[[8]],['female'],[[0]],[[0.39295056]],SH
551,[[21]],[[552]],[[9]],['low holistic'],['right'],['upright'],['U0155.bmp'],['male'],[[2]],['male'],[[1]],[[0.03110914]],SH
552,[[21]],[[553]],[[15]],['high holistic'],['right'],['inverted'],['U0312.bmp'],['male'],[[12]],['female'],[[0]],[[0.03767843]],SH
553,[[21]],[[554]],[[17]],['low holistic'],['left'],['inverted'],['U0346.bmp'],['female'],[[4]],['female'],[[1]],[[9.99178737e-05]],SH
554,[[21]],[[555]],[[9]],['low holistic'],['right'],['inverted'],['U0155.bmp'],['male'],[[12]],['male'],[[1]],[[0.00415718]],SH
555,[[21]],[[556]],[[14]],['low holistic'],['right'],['upright'],['U0228.bmp'],['male'],[[2]],['male'],[[1]],[[0.32335088]],SH
556,[[21]],[[557]],[[15]],['high holistic'],['fovea'],['upright'],['U0312.bmp'],['male'],[[0]],['male'],[[1]],[[0.21406939]],SH
557,[[21]],[[558]],[[3]],['low holistic'],['left'],['inverted'],['U0020.bmp'],['female'],[[4]],['female'],[[1]],[[0.22991077]],SH
558,[[21]],[[559]],[[7]],['low holistic'],['right'],['inverted'],['U0107.bmp'],['female'],[[6]],['female'],[[1]],[[0.0986052]],SH
559,[[21]],[[560]],[[18]],['low holistic'],['fovea'],['upright'],['U0359.bmp'],['male'],[[0]],['male'],[[1]],[[0.04001769]],SH
560,[[21]],[[561]],[[18]],['high holistic'],['right'],['upright'],['U0359.bmp'],['male'],[[8]],['male'],[[1]],[[0.03002393]],SH
561,[[21]],[[562]],[[17]],['high holistic'],['left'],['inverted'],['U0346.bmp'],['male'],[[8]],['female'],[[0]],[[0.01803825]],SH
562,[[21]],[[563]],[[16]],['low holistic'],['fovea'],['inverted'],['U0335.bmp'],['female'],[[0]],['female'],[[1]],[[0.09093697]],SH
563,[[21]],[[564]],[[1]],['low holistic'],['left'],['inverted'],['U0006.bmp'],['female'],[[6]],['female'],[[1]],[[0.00011038]],SH
564,[[21]],[[565]],[[12]],['low holistic'],['left'],['inverted'],['U0178.bmp'],['female'],[[6]],['female'],[[1]],[[3.83123678]],SH
565,[[21]],[[566]],[[6]],['high holistic'],['left'],['inverted'],['U0106.bmp'],['female'],[[2]],['female'],[[1]],[[0.20351712]],SH
566,[[21]],[[567]],[[6]],['high holistic'],['fovea'],['upright'],['U0106.bmp'],['female'],[[0]],['female'],[[1]],[[0.16496046]],SH
567,[[21]],[[568]],[[19]],['high holistic'],['left'],['upright'],['U0361.bmp'],['female'],[[4]],['male'],[[0]],[[0.01176123]],SH
568,[[21]],[[569]],[[10]],['high holistic'],['left'],['inverted'],['U0159.bmp'],['male'],[[6]],['female'],[[0]],[[0.30803643]],SH
569,[[21]],[[570]],[[5]],['low holistic'],['fovea'],['inverted'],['U0076.bmp'],['male'],[[0]],['male'],[[1]],[[0.16833817]],SH
570,[[21]],[[571]],[[13]],['low holistic'],['left'],['inverted'],['U0181.bmp'],['male'],[[4]],['male'],[[1]],[[0.14517634]],SH
571,[[21]],[[572]],[[7]],['low holistic'],['left'],['upright'],['U0107.bmp'],['female'],[[10]],['female'],[[1]],[[0.24996975]],SH
572,[[21]],[[573]],[[7]],['low holistic'],['right'],['inverted'],['U0107.bmp'],['female'],[[12]],['female'],[[1]],[[0.18483458]],SH
573,[[21]],[[574]],[[12]],['low holistic'],['right'],['upright'],['U0178.bmp'],['female'],[[10]],['female'],[[1]],[[0.00010135]],SH
574,[[21]],[[575]],[[15]],['low holistic'],['right'],['upright'],['U0312.bmp'],['male'],[[2]],['female'],[[0]],[[0.000101]],SH
575,[[21]],[[576]],[[7]],['low holistic'],['fovea'],['upright'],['U0107.bmp'],['female'],[[0]],['female'],[[1]],[[0.59261438]],SH
576,[[21]],[[577]],[[6]],['high holistic'],['left'],['upright'],['U0106.bmp'],['female'],[[12]],['male'],[[0]],[[0.32773908]],SH
577,[[21]],[[578]],[[20]],['high holistic'],['left'],['upright'],['U0362.bmp'],['female'],[[6]],['male'],[[0]],[[0.07569457]],SH
578,[[21]],[[579]],[[18]],['low holistic'],['fovea'],['upright'],['U0359.bmp'],['male'],[[0]],['male'],[[1]],[[0.09659414]],SH
579,[[21]],[[580]],[[10]],['high holistic'],['left'],['upright'],['U0159.bmp'],['male'],[[2]],['female'],[[0]],[[0.00010072]],SH
580,[[21]],[[581]],[[11]],['low holistic'],['left'],['upright'],['U0164.bmp'],['female'],[[8]],['female'],[[1]],[[0.07376071]],SH
581,[[21]],[[582]],[[1]],['low holistic'],['right'],['upright'],['U0006.bmp'],['female'],[[8]],['female'],[[1]],[[0.0310668]],SH
582,[[21]],[[583]],[[2]],['low holistic'],['left'],['inverted'],['U0014.bmp'],['male'],[[2]],['male'],[[1]],[[0.10113342]],SH
583,[[21]],[[584]],[[9]],['low holistic'],['right'],['upright'],['U0155.bmp'],['male'],[[10]],['male'],[[1]],[[0.05635831]],SH
584,[[21]],[[585]],[[15]],['high holistic'],['right'],['inverted'],['U0312.bmp'],['male'],[[6]],['male'],[[1]],[[0.08490858]],SH
585,[[21]],[[586]],[[19]],['high holistic'],['right'],['inverted'],['U0361.bmp'],['female'],[[10]],['male'],[[0]],[[0.00025812]],SH
586,[[21]],[[587]],[[2]],['low holistic'],['left'],['upright'],['U0014.bmp'],['male'],[[6]],['male'],[[1]],[[0.1535604]],SH
587,[[21]],[[588]],[[1]],['low holistic'],['right'],['upright'],['U0006.bmp'],['female'],[[6]],['female'],[[1]],[[0.03580078]],SH
588,[[21]],[[589]],[[14]],['low holistic'],['right'],['upright'],['U0228.bmp'],['male'],[[10]],['male'],[[1]],[[0.09947867]],SH
589,[[21]],[[590]],[[18]],['high holistic'],['right'],['upright'],['U0359.bmp'],['male'],[[8]],['male'],[[1]],[[0.00010064]],SH
590,[[21]],[[591]],[[6]],['low holistic'],['right'],['inverted'],['U0106.bmp'],['male'],[[2]],['male'],[[1]],[[0.00010424]],SH
591,[[21]],[[592]],[[16]],['high holistic'],['left'],['upright'],['U0335.bmp'],['female'],[[4]],['female'],[[1]],[[0.04563066]],SH
592,[[21]],[[593]],[[19]],['low holistic'],['right'],['inverted'],['U0361.bmp'],['female'],[[6]],['male'],[[0]],[[0.00222858]],SH
593,[[21]],[[594]],[[6]],['high holistic'],['right'],['inverted'],['U0106.bmp'],['female'],[[6]],['male'],[[0]],[[0.05104194]],SH
594,[[21]],[[595]],[[19]],['high holistic'],['right'],['inverted'],['U0361.bmp'],['female'],[[8]],['female'],[[1]],[[0.00960077]],SH
595,[[21]],[[596]],[[14]],['low holistic'],['right'],['upright'],['U0228.bmp'],['male'],[[8]],['male'],[[1]],[[0.08870809]],SH
596,[[21]],[[597]],[[4]],['low holistic'],['right'],['upright'],['U0061.bmp'],['female'],[[4]],['female'],[[1]],[[0.24364228]],SH
597,[[21]],[[598]],[[13]],['high holistic'],['left'],['inverted'],['U0181.bmp'],['female'],[[12]],['male'],[[0]],[[0.06638995]],SH
598,[[21]],[[599]],[[14]],['high holistic'],['right'],['upright'],['U0228.bmp'],['male'],[[12]],['male'],[[1]],[[0.04700435]],SH
599,[[21]],[[600]],[[8]],['high holistic'],['left'],['inverted'],['U0137.bmp'],['female'],[[12]],['male'],[[0]],[[0.06171758]],SH
600,[[21]],[[601]],[[15]],['low holistic'],['right'],['inverted'],['U0312.bmp'],['male'],[[12]],['male'],[[1]],[[0.777535]],SH
601,[[21]],[[602]],[[10]],['high holistic'],['left'],['inverted'],['U0159.bmp'],['male'],[[12]],['female'],[[0]],[[0.17930638]],SH
602,[[21]],[[603]],[[6]],['low holistic'],['right'],['inverted'],['U0106.bmp'],['male'],[[2]],['male'],[[1]],[[0.10618946]],SH
603,[[21]],[[604]],[[5]],['high holistic'],['right'],['upright'],['U0076.bmp'],['female'],[[2]],['female'],[[1]],[[0.04652606]],SH
604,[[21]],[[605]],[[18]],['high holistic'],['fovea'],['upright'],['U0359.bmp'],['male'],[[0]],['male'],[[1]],[[0.02066864]],SH
605,[[21]],[[606]],[[13]],['low holistic'],['left'],['inverted'],['U0181.bmp'],['male'],[[8]],['female'],[[0]],[[0.00289147]],SH
606,[[21]],[[607]],[[10]],['high holistic'],['left'],['upright'],['U0159.bmp'],['male'],[[2]],['male'],[[1]],[[0.04404925]],SH
607,[[21]],[[608]],[[20]],['high holistic'],['left'],['upright'],['U0362.bmp'],['female'],[[10]],['female'],[[1]],[[0.20804521]],SH
608,[[21]],[[609]],[[3]],['high holistic'],['left'],['upright'],['U0020.bmp'],['male'],[[6]],['female'],[[0]],[[0.44113669]],SH
609,[[21]],[[610]],[[8]],['high holistic'],['right'],['inverted'],['U0137.bmp'],['female'],[[4]],['male'],[[0]],[[0.08528074]],SH
610,[[21]],[[611]],[[4]],['low holistic'],['right'],['upright'],['U0061.bmp'],['female'],[[10]],['female'],[[1]],[[0.14798883]],SH
611,[[21]],[[612]],[[6]],['high holistic'],['right'],['upright'],['U0106.bmp'],['female'],[[4]],['female'],[[1]],[[0.14126791]],SH
612,[[21]],[[613]],[[6]],['low holistic'],['right'],['upright'],['U0106.bmp'],['male'],[[12]],['male'],[[1]],[[0.41560121]],SH
613,[[21]],[[614]],[[1]],['low holistic'],['fovea'],['upright'],['U0006.bmp'],['female'],[[0]],['female'],[[1]],[[0.00014683]],SH
614,[[21]],[[615]],[[13]],['low holistic'],['fovea'],['inverted'],['U0181.bmp'],['male'],[[0]],['male'],[[1]],[[0.29227116]],SH
615,[[21]],[[616]],[[4]],['low holistic'],['left'],['inverted'],['U0061.bmp'],['female'],[[4]],['female'],[[1]],[[0.08239393]],SH
616,[[21]],[[617]],[[17]],['high holistic'],['right'],['upright'],['U0346.bmp'],['male'],[[10]],['male'],[[1]],[[0.2044298]],SH
617,[[21]],[[618]],[[5]],['low holistic'],['right'],['upright'],['U0076.bmp'],['male'],[[10]],['male'],[[1]],[[0.0005119]],SH
618,[[21]],[[619]],[[1]],['low holistic'],['right'],['upright'],['U0006.bmp'],['female'],[[8]],['female'],[[1]],[[0.0041411]],SH
619,[[21]],[[620]],[[8]],['low holistic'],['left'],['upright'],['U0137.bmp'],['male'],[[2]],['male'],[[1]],[[0.8752842]],SH
620,[[21]],[[621]],[[17]],['high holistic'],['left'],['inverted'],['U0346.bmp'],['male'],[[4]],['female'],[[0]],[[0.14487258]],SH
621,[[21]],[[622]],[[9]],['high holistic'],['fovea'],['inverted'],['U0155.bmp'],['female'],[[0]],['male'],[[0]],[[0.00010649]],SH
622,[[21]],[[623]],[[19]],['low holistic'],['left'],['inverted'],['U0361.bmp'],['female'],[[12]],['female'],[[1]],[[0.68329648]],SH
623,[[21]],[[624]],[[18]],['high holistic'],['left'],['inverted'],['U0359.bmp'],['male'],[[12]],['female'],[[0]],[[0.37560969]],SH
624,[[21]],[[625]],[[14]],['low holistic'],['left'],['inverted'],['U0228.bmp'],['male'],[[8]],['male'],[[1]],[[0.31917996]],SH
625,[[21]],[[626]],[[18]],['low holistic'],['left'],['upright'],['U0359.bmp'],['male'],[[4]],['male'],[[1]],[[0.00045963]],SH
626,[[21]],[[627]],[[12]],['low holistic'],['right'],['upright'],['U0178.bmp'],['female'],[[12]],['female'],[[1]],[[0.00015386]],SH
627,[[21]],[[628]],[[12]],['high holistic'],['right'],['upright'],['U0178.bmp'],['male'],[[8]],['female'],[[0]],[[0.04252913]],SH
628,[[21]],[[629]],[[16]],['high holistic'],['right'],['upright'],['U0335.bmp'],['female'],[[4]],['female'],[[1]],[[0.36688873]],SH
629,[[21]],[[630]],[[11]],['low holistic'],['left'],['upright'],['U0164.bmp'],['female'],[[12]],['female'],[[1]],[[0.08950779]],SH
630,[[21]],[[631]],[[2]],['low holistic'],['right'],['inverted'],['U0014.bmp'],['male'],[[10]],['male'],[[1]],[[0.42885808]],SH
631,[[21]],[[632]],[[7]],['low holistic'],['left'],['inverted'],['U0107.bmp'],['female'],[[6]],['female'],[[1]],[[0.0001021]],SH
632,[[21]],[[633]],[[19]],['high holistic'],['right'],['upright'],['U0361.bmp'],['female'],[[2]],['female'],[[1]],[[0.23621308]],SH
633,[[21]],[[634]],[[19]],['low holistic'],['right'],['upright'],['U0361.bmp'],['female'],[[12]],['female'],[[1]],[[0.10519953]],SH
634,[[21]],[[635]],[[6]],['low holistic'],['right'],['upright'],['U0106.bmp'],['male'],[[4]],['male'],[[1]],[[0.10949272]],SH
635,[[21]],[[636]],[[10]],['high holistic'],['left'],['upright'],['U0159.bmp'],['male'],[[12]],['female'],[[0]],[[9.96291637e-05]],SH
636,[[21]],[[637]],[[13]],['high holistic'],['right'],['inverted'],['U0181.bmp'],['female'],[[6]],['female'],[[1]],[[0.0002057]],SH
637,[[21]],[[638]],[[8]],['low holistic'],['right'],['inverted'],['U0137.bmp'],['male'],[[4]],['female'],[[0]],[[0.23849696]],SH
638,[[21]],[[639]],[[1]],['high holistic'],['left'],['inverted'],['U0006.bmp'],['female'],[[12]],['female'],[[1]],[[0.07840705]],SH
639,[[21]],[[640]],[[6]],['low holistic'],['right'],['inverted'],['U0106.bmp'],['male'],[[12]],['female'],[[0]],[[9.92976129e-05]],SH
640,[[21]],[[641]],[[5]],['high holistic'],['left'],['inverted'],['U0076.bmp'],['female'],[[12]],['female'],[[1]],[[0.00016237]],SH
641,[[21]],[[642]],[[17]],['high holistic'],['right'],['inverted'],['U0346.bmp'],['male'],[[8]],['female'],[[0]],[[0.00010724]],SH
642,[[21]],[[643]],[[20]],['low holistic'],['right'],['upright'],['U0362.bmp'],['male'],[[6]],['male'],[[1]],[[0.08118487]],SH
643,[[21]],[[644]],[[3]],['high holistic'],['right'],['inverted'],['U0020.bmp'],['male'],[[10]],['female'],[[0]],[[0.1496223]],SH
644,[[21]],[[645]],[[20]],['low holistic'],['right'],['inverted'],['U0362.bmp'],['male'],[[10]],['male'],[[1]],[[0.10370998]],SH
645,[[21]],[[646]],[[9]],['high holistic'],['left'],['upright'],['U0155.bmp'],['female'],[[8]],['female'],[[1]],[[0.08199562]],SH
646,[[21]],[[647]],[[18]],['high holistic'],['right'],['inverted'],['U0359.bmp'],['male'],[[4]],['male'],[[1]],[[0.31081772]],SH
647,[[21]],[[648]],[[1]],['high holistic'],['right'],['inverted'],['U0006.bmp'],['female'],[[12]],['female'],[[1]],[[0.00016551]],SH
648,[[21]],[[649]],[[17]],['high holistic'],['left'],['inverted'],['U0346.bmp'],['male'],[[6]],['female'],[[0]],[[0.02529666]],SH
649,[[21]],[[650]],[[15]],['low holistic'],['right'],['inverted'],['U0312.bmp'],['male'],[[4]],['male'],[[1]],[[0.00011791]],SH
650,[[21]],[[651]],[[4]],['low holistic'],['left'],['upright'],['U0061.bmp'],['female'],[[4]],['female'],[[1]],[[0.29804823]],SH
651,[[21]],[[652]],[[20]],['high holistic'],['left'],['upright'],['U0362.bmp'],['female'],[[4]],['female'],[[1]],[[0.00060395]],SH
652,[[21]],[[653]],[[13]],['low holistic'],['right'],['inverted'],['U0181.bmp'],['male'],[[12]],['male'],[[1]],[[0.36590804]],SH
653,[[21]],[[654]],[[19]],['low holistic'],['left'],['upright'],['U0361.bmp'],['female'],[[2]],['female'],[[1]],[[0.00010851]],SH
654,[[21]],[[655]],[[10]],['low holistic'],['left'],['inverted'],['U0159.bmp'],['female'],[[8]],['female'],[[1]],[[0.00010806]],SH
655,[[21]],[[656]],[[14]],['low holistic'],['right'],['inverted'],['U0228.bmp'],['male'],[[10]],['male'],[[1]],[[0.16625936]],SH
656,[[21]],[[657]],[[11]],['low holistic'],['right'],['upright'],['U0164.bmp'],['female'],[[6]],['female'],[[1]],[[0.00543851]],SH
657,[[21]],[[658]],[[14]],['low holistic'],['right'],['inverted'],['U0228.bmp'],['male'],[[10]],['male'],[[1]],[[0.00010016]],SH
658,[[21]],[[659]],[[4]],['high holistic'],['right'],['upright'],['U0061.bmp'],['female'],[[10]],['male'],[[0]],[[0.02197747]],SH
659,[[21]],[[660]],[[7]],['low holistic'],['right'],['upright'],['U0107.bmp'],['female'],[[6]],['male'],[[0]],[[0.00010176]],SH
660,[[21]],[[661]],[[17]],['low holistic'],['left'],['upright'],['U0346.bmp'],['female'],[[6]],['female'],[[1]],[[0.00010051]],SH
661,[[21]],[[662]],[[7]],['high holistic'],['right'],['upright'],['U0107.bmp'],['female'],[[8]],['male'],[[0]],[[0.01789871]],SH
662,[[21]],[[663]],[[10]],['low holistic'],['left'],['inverted'],['U0159.bmp'],['female'],[[12]],['female'],[[1]],[[2.10524759]],SH
663,[[21]],[[664]],[[5]],['high holistic'],['left'],['upright'],['U0076.bmp'],['female'],[[2]],['female'],[[1]],[[0.00619956]],SH
664,[[21]],[[665]],[[7]],['low holistic'],['right'],['inverted'],['U0107.bmp'],['female'],[[6]],['female'],[[1]],[[0.00010022]],SH
665,[[21]],[[666]],[[9]],['high holistic'],['right'],['inverted'],['U0155.bmp'],['female'],[[8]],['female'],[[1]],[[0.00010704]],SH
666,[[21]],[[667]],[[5]],['low holistic'],['left'],['inverted'],['U0076.bmp'],['male'],[[12]],['female'],[[0]],[[0.01110194]],SH
667,[[21]],[[668]],[[1]],['low holistic'],['right'],['inverted'],['U0006.bmp'],['female'],[[2]],['female'],[[1]],[[0.00010743]],SH
668,[[21]],[[669]],[[5]],['high holistic'],['left'],['upright'],['U0076.bmp'],['female'],[[6]],['female'],[[1]],[[0.00010051]],SH
669,[[21]],[[670]],[[16]],['low holistic'],['left'],['inverted'],['U0335.bmp'],['female'],[[2]],['female'],[[1]],[[2.65142845]],SH
670,[[21]],[[671]],[[18]],['high holistic'],['left'],['inverted'],['U0359.bmp'],['male'],[[4]],['female'],[[0]],[[0.00046451]],SH
671,[[21]],[[672]],[[17]],['high holistic'],['left'],['inverted'],['U0346.bmp'],['male'],[[10]],['female'],[[0]],[[0.0003277]],SH
672,[[21]],[[673]],[[18]],['low holistic'],['left'],['inverted'],['U0359.bmp'],['male'],[[4]],['male'],[[1]],[[0.18273671]],SH
673,[[21]],[[674]],[[16]],['low holistic'],['right'],['inverted'],['U0335.bmp'],['female'],[[12]],['female'],[[1]],[[9.9433586e-05]],SH
674,[[21]],[[675]],[[12]],['high holistic'],['right'],['inverted'],['U0178.bmp'],['male'],[[2]],['female'],[[0]],[[0.28727358]],SH
675,[[21]],[[676]],[[18]],['high holistic'],['left'],['upright'],['U0359.bmp'],['male'],[[2]],['male'],[[1]],[[0.18716853]],SH
676,[[21]],[[677]],[[14]],['low holistic'],['right'],['upright'],['U0228.bmp'],['male'],[[4]],['male'],[[1]],[[0.01946659]],SH
677,[[21]],[[678]],[[17]],['high holistic'],['right'],['upright'],['U0346.bmp'],['male'],[[4]],['male'],[[1]],[[0.00010862]],SH
678,[[21]],[[679]],[[15]],['high holistic'],['right'],['upright'],['U0312.bmp'],['male'],[[2]],['male'],[[1]],[[0.00010021]],SH
679,[[21]],[[680]],[[11]],['low holistic'],['right'],['inverted'],['U0164.bmp'],['female'],[[8]],['female'],[[1]],[[0.00022157]],SH
680,[[21]],[[681]],[[3]],['low holistic'],['right'],['inverted'],['U0020.bmp'],['female'],[[4]],['female'],[[1]],[[0.00870324]],SH
681,[[21]],[[682]],[[14]],['high holistic'],['right'],['upright'],['U0228.bmp'],['male'],[[4]],['male'],[[1]],[[0.12224428]],SH
682,[[21]],[[683]],[[16]],['high holistic'],['left'],['inverted'],['U0335.bmp'],['female'],[[2]],['female'],[[1]],[[0.0001058]],SH
683,[[21]],[[684]],[[11]],['low holistic'],['right'],['inverted'],['U0164.bmp'],['female'],[[10]],['female'],[[1]],[[0.12259364]],SH
684,[[21]],[[685]],[[8]],['high holistic'],['left'],['upright'],['U0137.bmp'],['female'],[[4]],['female'],[[1]],[[9.9690631e-05]],SH
685,[[21]],[[686]],[[17]],['low holistic'],['right'],['inverted'],['U0346.bmp'],['female'],[[12]],['female'],[[1]],[[0.31112521]],SH
686,[[21]],[[687]],[[10]],['high holistic'],['right'],['upright'],['U0159.bmp'],['male'],[[4]],['male'],[[1]],[[0.20074954]],SH
687,[[21]],[[688]],[[10]],['high holistic'],['left'],['inverted'],['U0159.bmp'],['male'],[[12]],['male'],[[1]],[[0.32190813]],SH
688,[[21]],[[689]],[[16]],['low holistic'],['left'],['upright'],['U0335.bmp'],['female'],[[10]],['female'],[[1]],[[0.06779479]],SH
689,[[21]],[[690]],[[17]],['low holistic'],['right'],['inverted'],['U0346.bmp'],['female'],[[2]],['male'],[[0]],[[0.02592296]],SH
690,[[21]],[[691]],[[15]],['high holistic'],['right'],['inverted'],['U0312.bmp'],['male'],[[8]],['male'],[[1]],[[0.53617826]],SH
691,[[21]],[[692]],[[14]],['low holistic'],['right'],['inverted'],['U0228.bmp'],['male'],[[2]],['male'],[[1]],[[0.08210407]],SH
692,[[21]],[[693]],[[14]],['low holistic'],['right'],['inverted'],['U0228.bmp'],['male'],[[10]],['male'],[[1]],[[0.00011174]],SH
693,[[21]],[[694]],[[4]],['low holistic'],['right'],['upright'],['U0061.bmp'],['female'],[[6]],['female'],[[1]],[[0.04659302]],SH
694,[[21]],[[695]],[[3]],['high holistic'],['right'],['upright'],['U0020.bmp'],['male'],[[6]],['male'],[[1]],[[0.14675757]],SH
695,[[21]],[[696]],[[15]],['low holistic'],['right'],['inverted'],['U0312.bmp'],['male'],[[2]],['male'],[[1]],[[0.12674187]],SH
696,[[21]],[[697]],[[15]],['low holistic'],['left'],['inverted'],['U0312.bmp'],['male'],[[2]],['male'],[[1]],[[0.000137]],SH
697,[[21]],[[698]],[[15]],['low holistic'],['fovea'],['inverted'],['U0312.bmp'],['male'],[[0]],['male'],[[1]],[[3.27908407]],SH
698,[[21]],[[699]],[[19]],['high holistic'],['right'],['upright'],['U0361.bmp'],['female'],[[10]],['male'],[[0]],[[0.31509509]],SH
699,[[21]],[[700]],[[11]],['high holistic'],['left'],['inverted'],['U0164.bmp'],['female'],[[4]],['female'],[[1]],[[0.00015496]],SH
700,[[21]],[[701]],[[15]],['high holistic'],['right'],['upright'],['U0312.bmp'],['male'],[[10]],['male'],[[1]],[[0.0001007]],SH
701,[[21]],[[702]],[[14]],['low holistic'],['right'],['inverted'],['U0228.bmp'],['male'],[[2]],['male'],[[1]],[[0.00047349]],SH
702,[[21]],[[703]],[[5]],['low holistic'],['left'],['upright'],['U0076.bmp'],['male'],[[10]],['male'],[[1]],[[0.00019262]],SH
703,[[21]],[[704]],[[3]],['low holistic'],['right'],['inverted'],['U0020.bmp'],['female'],[[6]],['female'],[[1]],[[0.10281845]],SH
704,[[21]],[[705]],[[15]],['low holistic'],['right'],['inverted'],['U0312.bmp'],['male'],[[2]],['female'],[[0]],[[0.00984929]],SH
705,[[21]],[[706]],[[11]],['low holistic'],['right'],['inverted'],['U0164.bmp'],['female'],[[8]],['female'],[[1]],[[0.36007568]],SH
706,[[21]],[[707]],[[13]],['high holistic'],['left'],['upright'],['U0181.bmp'],['female'],[[8]],['female'],[[1]],[[0.13923668]],SH
707,[[21]],[[708]],[[3]],['high holistic'],['right'],['inverted'],['U0020.bmp'],['male'],[[8]],['female'],[[0]],[[0.01997428]],SH
708,[[21]],[[709]],[[2]],['high holistic'],['right'],['inverted'],['U0014.bmp'],['male'],[[10]],['female'],[[0]],[[0.1146098]],SH
709,[[21]],[[710]],[[6]],['high holistic'],['right'],['inverted'],['U0106.bmp'],['female'],[[4]],['female'],[[1]],[[0.01321251]],SH
710,[[21]],[[711]],[[10]],['high holistic'],['right'],['inverted'],['U0159.bmp'],['male'],[[2]],['female'],[[0]],[[9.89623368e-05]],SH
711,[[21]],[[712]],[[8]],['low holistic'],['left'],['upright'],['U0137.bmp'],['male'],[[4]],['male'],[[1]],[[0.10772749]],SH
712,[[21]],[[713]],[[5]],['high holistic'],['left'],['inverted'],['U0076.bmp'],['female'],[[2]],['female'],[[1]],[[0.29510725]],SH
713,[[21]],[[714]],[[10]],['high holistic'],['left'],['upright'],['U0159.bmp'],['male'],[[2]],['male'],[[1]],[[0.00417178]],SH
714,[[21]],[[715]],[[13]],['high holistic'],['left'],['inverted'],['U0181.bmp'],['female'],[[8]],['female'],[[1]],[[0.06813615]],SH
715,[[21]],[[716]],[[11]],['high holistic'],['right'],['inverted'],['U0164.bmp'],['female'],[[10]],['male'],[[0]],[[9.99327749e-05]],SH
716,[[21]],[[717]],[[10]],['high holistic'],['right'],['inverted'],['U0159.bmp'],['male'],[[2]],['male'],[[1]],[[0.18445502]],SH
717,[[21]],[[718]],[[12]],['high holistic'],['fovea'],['upright'],['U0178.bmp'],['male'],[[0]],['male'],[[1]],[[0.07259469]],SH
718,[[21]],[[719]],[[18]],['high holistic'],['left'],['inverted'],['U0359.bmp'],['male'],[[6]],['female'],[[0]],[[0.11645166]],SH
719,[[21]],[[720]],[[9]],['low holistic'],['right'],['upright'],['U0155.bmp'],['male'],[[4]],['male'],[[1]],[[3.20114121]],SH
720,[[21]],[[721]],[[13]],['high holistic'],['right'],['inverted'],['U0181.bmp'],['female'],[[6]],['female'],[[1]],[[0.10434163]],SH
721,[[21]],[[722]],[[19]],['high holistic'],['right'],['inverted'],['U0361.bmp'],['female'],[[12]],['female'],[[1]],[[0.00036091]],SH
722,[[21]],[[723]],[[9]],['high holistic'],['left'],['inverted'],['U0155.bmp'],['female'],[[2]],['female'],[[1]],[[0.09068101]],SH
723,[[21]],[[724]],[[18]],['low holistic'],['left'],['upright'],['U0359.bmp'],['male'],[[2]],['female'],[[0]],[[0.03877243]],SH
724,[[21]],[[725]],[[7]],['low holistic'],['right'],['inverted'],['U0107.bmp'],['female'],[[8]],['female'],[[1]],[[0.52407588]],SH
725,[[21]],[[726]],[[4]],['high holistic'],['right'],['upright'],['U0061.bmp'],['female'],[[4]],['female'],[[1]],[[0.08789263]],SH
726,[[21]],[[727]],[[4]],['low holistic'],['right'],['inverted'],['U0061.bmp'],['female'],[[6]],['female'],[[1]],[[9.96869057e-05]],SH
727,[[21]],[[728]],[[17]],['high holistic'],['fovea'],['upright'],['U0346.bmp'],['male'],[[0]],['male'],[[1]],[[9.99029726e-05]],SH
728,[[21]],[[729]],[[16]],['low holistic'],['left'],['upright'],['U0335.bmp'],['female'],[[2]],['female'],[[1]],[[0.08341909]],SH
729,[[21]],[[730]],[[17]],['low holistic'],['right'],['upright'],['U0346.bmp'],['female'],[[4]],['male'],[[0]],[[0.00011881]],SH
730,[[21]],[[731]],[[1]],['high holistic'],['left'],['inverted'],['U0006.bmp'],['female'],[[10]],['female'],[[1]],[[0.67967306]],SH
731,[[21]],[[732]],[[7]],['low holistic'],['left'],['upright'],['U0107.bmp'],['female'],[[2]],['female'],[[1]],[[0.00028961]],SH
732,[[21]],[[733]],[[20]],['high holistic'],['right'],['upright'],['U0362.bmp'],['female'],[[6]],['male'],[[0]],[[0.00144205]],SH
733,[[21]],[[734]],[[5]],['low holistic'],['left'],['inverted'],['U0076.bmp'],['male'],[[4]],['female'],[[0]],[[0.19336453]],SH
734,[[21]],[[735]],[[5]],['low holistic'],['right'],['upright'],['U0076.bmp'],['male'],[[6]],['male'],[[1]],[[0.16262666]],SH
735,[[21]],[[736]],[[20]],['high holistic'],['left'],['upright'],['U0362.bmp'],['female'],[[2]],['female'],[[1]],[[0.01131119]],SH
736,[[21]],[[737]],[[2]],['low holistic'],['left'],['upright'],['U0014.bmp'],['male'],[[4]],['male'],[[1]],[[0.2999242]],SH
737,[[21]],[[738]],[[15]],['high holistic'],['left'],['inverted'],['U0312.bmp'],['male'],[[2]],['male'],[[1]],[[0.02187521]],SH
738,[[21]],[[739]],[[18]],['low holistic'],['left'],['upright'],['U0359.bmp'],['male'],[[6]],['male'],[[1]],[[0.17400831]],SH
739,[[21]],[[740]],[[12]],['low holistic'],['fovea'],['upright'],['U0178.bmp'],['female'],[[0]],['female'],[[1]],[[0.00634828]],SH
740,[[21]],[[741]],[[4]],['low holistic'],['right'],['upright'],['U0061.bmp'],['female'],[[10]],['female'],[[1]],[[0.07681084]],SH
741,[[21]],[[742]],[[3]],['high holistic'],['left'],['upright'],['U0020.bmp'],['male'],[[10]],['female'],[[0]],[[0.57115795]],SH
742,[[21]],[[743]],[[18]],['high holistic'],['left'],['inverted'],['U0359.bmp'],['male'],[[12]],['female'],[[0]],[[0.25907442]],SH
743,[[21]],[[744]],[[14]],['high holistic'],['left'],['upright'],['U0228.bmp'],['male'],[[12]],['female'],[[0]],[[9.8709017e-05]],SH
744,[[21]],[[745]],[[9]],['low holistic'],['left'],['inverted'],['U0155.bmp'],['male'],[[4]],['female'],[[0]],[[0.35900694]],SH
745,[[21]],[[746]],[[6]],['high holistic'],['left'],['upright'],['U0106.bmp'],['female'],[[2]],['female'],[[1]],[[0.16725517]],SH
746,[[21]],[[747]],[[11]],['high holistic'],['right'],['inverted'],['U0164.bmp'],['female'],[[6]],['male'],[[0]],[[0.0496528]],SH
747,[[21]],[[748]],[[15]],['low holistic'],['left'],['inverted'],['U0312.bmp'],['male'],[[8]],['male'],[[1]],[[0.44579952]],SH
748,[[21]],[[749]],[[16]],['low holistic'],['right'],['inverted'],['U0335.bmp'],['female'],[[10]],['male'],[[0]],[[0.01211099]],SH
749,[[21]],[[750]],[[9]],['low holistic'],['left'],['upright'],['U0155.bmp'],['male'],[[6]],['male'],[[1]],[[0.01256923]],SH
750,[[21]],[[751]],[[7]],['low holistic'],['left'],['upright'],['U0107.bmp'],['female'],[[4]],['male'],[[0]],[[0.00010765]],SH
751,[[21]],[[752]],[[19]],['low holistic'],['left'],['inverted'],['U0361.bmp'],['female'],[[10]],['male'],[[0]],[[0.14648596]],SH
752,[[21]],[[753]],[[6]],['high holistic'],['left'],['inverted'],['U0106.bmp'],['female'],[[8]],['male'],[[0]],[[0.00010584]],SH
753,[[21]],[[754]],[[19]],['low holistic'],['left'],['inverted'],['U0361.bmp'],['female'],[[4]],['male'],[[0]],[[1.45099382]],SH
754,[[21]],[[755]],[[2]],['high holistic'],['left'],['inverted'],['U0014.bmp'],['male'],[[8]],['male'],[[1]],[[0.1200713]],SH
755,[[21]],[[756]],[[19]],['low holistic'],['right'],['upright'],['U0361.bmp'],['female'],[[12]],['female'],[[1]],[[0.12366888]],SH
756,[[21]],[[757]],[[17]],['high holistic'],['right'],['inverted'],['U0346.bmp'],['male'],[[2]],['female'],[[0]],[[0.47984986]],SH
757,[[21]],[[758]],[[8]],['low holistic'],['left'],['upright'],['U0137.bmp'],['male'],[[8]],['male'],[[1]],[[0.07557367]],SH
758,[[21]],[[759]],[[17]],['low holistic'],['right'],['upright'],['U0346.bmp'],['female'],[[4]],['female'],[[1]],[[0.11987565]],SH
759,[[21]],[[760]],[[13]],['high holistic'],['left'],['upright'],['U0181.bmp'],['female'],[[12]],['male'],[[0]],[[0.18835973]],SH
760,[[21]],[[761]],[[18]],['low holistic'],['left'],['upright'],['U0359.bmp'],['male'],[[8]],['male'],[[1]],[[0.25046991]],SH
761,[[21]],[[762]],[[10]],['low holistic'],['right'],['upright'],['U0159.bmp'],['female'],[[8]],['female'],[[1]],[[0.081787]],SH
762,[[21]],[[763]],[[14]],['high holistic'],['right'],['upright'],['U0228.bmp'],['male'],[[12]],['male'],[[1]],[[0.13238167]],SH
763,[[21]],[[764]],[[6]],['high holistic'],['right'],['upright'],['U0106.bmp'],['female'],[[6]],['female'],[[1]],[[0.22377247]],SH
764,[[21]],[[765]],[[17]],['high holistic'],['left'],['upright'],['U0346.bmp'],['male'],[[4]],['male'],[[1]],[[0.17322797]],SH
765,[[21]],[[766]],[[14]],['low holistic'],['right'],['inverted'],['U0228.bmp'],['male'],[[2]],['male'],[[1]],[[0.27018001]],SH
766,[[21]],[[767]],[[14]],['high holistic'],['left'],['upright'],['U0228.bmp'],['male'],[[4]],['male'],[[1]],[[0.05909374]],SH
767,[[21]],[[768]],[[7]],['low holistic'],['left'],['inverted'],['U0107.bmp'],['female'],[[6]],['female'],[[1]],[[0.01654751]],SH
768,[[21]],[[769]],[[6]],['high holistic'],['right'],['upright'],['U0106.bmp'],['female'],[[10]],['female'],[[1]],[[0.28041416]],SH
769,[[21]],[[770]],[[11]],['high holistic'],['left'],['upright'],['U0164.bmp'],['female'],[[12]],['male'],[[0]],[[0.11571358]],SH
770,[[21]],[[771]],[[18]],['high holistic'],['right'],['inverted'],['U0359.bmp'],['male'],[[10]],['female'],[[0]],[[0.47179249]],SH
771,[[21]],[[772]],[[3]],['high holistic'],['left'],['upright'],['U0020.bmp'],['male'],[[12]],['female'],[[0]],[[0.49258195]],SH
