,SUBID,TRIAL,MOONEYID,MOONEYCATEGORY,LOC,COND,MOONEY_NAME,MOONEY_GENDER,ECCENTRICITY,RESPONSE,ACCURACY,RT,SUBINIT
0,[[5]],[[1]],[[16]],['low holistic'],['right'],['upright'],['U0335.bmp'],['female'],[],['female'],[[1]],[[0.8081904]],SM
1,[[5]],[[2]],[[12]],['high holistic'],['right'],['upright'],['U0178.bmp'],['male'],[],['male'],[[1]],[[0.11927519]],SM
2,[[5]],[[3]],[[19]],['high holistic'],['left'],['upright'],['U0361.bmp'],['female'],[],['male'],[[0]],[[0.03522836]],SM
3,[[5]],[[4]],[[6]],['low holistic'],['right'],['upright'],['U0106.bmp'],['male'],[],['female'],[[0]],[[0.0001705]],SM
4,[[5]],[[5]],[[14]],['high holistic'],['left'],['inverted'],['U0228.bmp'],['male'],[],['male'],[[1]],[[9.97921452e-05]],SM
5,[[5]],[[6]],[[15]],['high holistic'],['left'],['inverted'],['U0312.bmp'],['male'],[],['male'],[[1]],[[2.13919575]],SM
6,[[5]],[[7]],[[6]],['low holistic'],['left'],['upright'],['U0106.bmp'],['male'],[],['female'],[[0]],[[0.09240095]],SM
7,[[5]],[[8]],[[7]],['high holistic'],['right'],['upright'],['U0107.bmp'],['female'],[],['male'],[[0]],[[0.00010031]],SM
8,[[5]],[[9]],[[4]],['low holistic'],['right'],['inverted'],['U0061.bmp'],['female'],[],['female'],[[1]],[[0.08853184]],SM
9,[[5]],[[10]],[[16]],['low holistic'],['right'],['upright'],['U0335.bmp'],['female'],[],['female'],[[1]],[[0.0001089]],SM
10,[[5]],[[11]],[[10]],['low holistic'],['left'],['inverted'],['U0159.bmp'],['female'],[],['male'],[[0]],[[0.00602154]],SM
11,[[5]],[[12]],[[13]],['high holistic'],['left'],['inverted'],['U0181.bmp'],['female'],[],['female'],[[1]],[[0.18895174]],SM
12,[[5]],[[13]],[[15]],['high holistic'],['right'],['inverted'],['U0312.bmp'],['male'],[],['male'],[[1]],[[0.1018842]],SM
13,[[5]],[[14]],[[12]],['low holistic'],['left'],['inverted'],['U0178.bmp'],['female'],[],['female'],[[1]],[[0.16270455]],SM
14,[[5]],[[15]],[[6]],['low holistic'],['right'],['upright'],['U0106.bmp'],['male'],[],['male'],[[1]],[[0.06825059]],SM
15,[[5]],[[16]],[[12]],['low holistic'],['left'],['inverted'],['U0178.bmp'],['female'],[],['female'],[[1]],[[2.72118066]],SM
16,[[5]],[[17]],[[13]],['low holistic'],['right'],['inverted'],['U0181.bmp'],['male'],[],['male'],[[1]],[[0.22133984]],SM
17,[[5]],[[18]],[[10]],['high holistic'],['right'],['inverted'],['U0159.bmp'],['male'],[],['male'],[[1]],[[0.04522079]],SM
18,[[5]],[[19]],[[10]],['low holistic'],['right'],['upright'],['U0159.bmp'],['female'],[],['female'],[[1]],[[0.09867451]],SM
19,[[5]],[[20]],[[14]],['high holistic'],['left'],['upright'],['U0228.bmp'],['male'],[],['male'],[[1]],[[0.3835729]],SM
20,[[5]],[[21]],[[17]],['high holistic'],['right'],['upright'],['U0346.bmp'],['male'],[],['male'],[[1]],[[0.19274113]],SM
21,[[5]],[[22]],[[10]],['low holistic'],['left'],['inverted'],['U0159.bmp'],['female'],[],['female'],[[1]],[[0.00103153]],SM
22,[[5]],[[23]],[[4]],['low holistic'],['right'],['inverted'],['U0061.bmp'],['female'],[],['male'],[[0]],[[0.00010011]],SM
23,[[5]],[[24]],[[18]],['low holistic'],['left'],['inverted'],['U0359.bmp'],['male'],[],['female'],[[0]],[[9.91730485e-05]],SM
24,[[5]],[[25]],[[4]],['low holistic'],['left'],['inverted'],['U0061.bmp'],['female'],[],['female'],[[1]],[[2.0322491]],SM
25,[[5]],[[26]],[[18]],['high holistic'],['left'],['inverted'],['U0359.bmp'],['male'],[],['female'],[[0]],[[0.0397444]],SM
26,[[5]],[[27]],[[3]],['high holistic'],['left'],['upright'],['U0020.bmp'],['male'],[],['male'],[[1]],[[0.13394456]],SM
27,[[5]],[[28]],[[16]],['low holistic'],['left'],['upright'],['U0335.bmp'],['female'],[],['female'],[[1]],[[0.00010645]],SM
28,[[5]],[[29]],[[4]],['low holistic'],['right'],['upright'],['U0061.bmp'],['female'],[],['female'],[[1]],[[0.16987635]],SM
29,[[5]],[[30]],[[3]],['low holistic'],['right'],['inverted'],['U0020.bmp'],['female'],[],['female'],[[1]],[[0.1933261]],SM
30,[[5]],[[31]],[[7]],['low holistic'],['right'],['upright'],['U0107.bmp'],['female'],[],['female'],[[1]],[[0.11604489]],SM
31,[[5]],[[32]],[[14]],['high holistic'],['right'],['upright'],['U0228.bmp'],['male'],[],['male'],[[1]],[[0.00023874]],SM
32,[[5]],[[33]],[[6]],['high holistic'],['right'],['inverted'],['U0106.bmp'],['female'],[],['female'],[[1]],[[0.33567659]],SM
33,[[5]],[[34]],[[11]],['high holistic'],['left'],['upright'],['U0164.bmp'],['female'],[],['male'],[[0]],[[0.00013604]],SM
34,[[5]],[[35]],[[7]],['high holistic'],['left'],['upright'],['U0107.bmp'],['female'],[],['male'],[[0]],[[0.00013812]],SM
35,[[5]],[[36]],[[5]],['low holistic'],['left'],['upright'],['U0076.bmp'],['male'],[],['female'],[[0]],[[0.00023027]],SM
36,[[5]],[[37]],[[19]],['high holistic'],['right'],['upright'],['U0361.bmp'],['female'],[],['male'],[[0]],[[0.00021179]],SM
37,[[5]],[[38]],[[11]],['low holistic'],['left'],['upright'],['U0164.bmp'],['female'],[],['female'],[[1]],[[9.96901654e-05]],SM
38,[[5]],[[39]],[[8]],['high holistic'],['left'],['upright'],['U0137.bmp'],['female'],[],['male'],[[0]],[[0.00909432]],SM
39,[[5]],[[40]],[[16]],['high holistic'],['right'],['inverted'],['U0335.bmp'],['female'],[],['female'],[[1]],[[1.6262933]],SM
40,[[5]],[[41]],[[11]],['high holistic'],['left'],['inverted'],['U0164.bmp'],['female'],[],['female'],[[1]],[[0.16808762]],SM
41,[[5]],[[42]],[[20]],['high holistic'],['right'],['inverted'],['U0362.bmp'],['female'],[],['male'],[[0]],[[3.82625948]],SM
42,[[5]],[[43]],[[6]],['low holistic'],['right'],['inverted'],['U0106.bmp'],['male'],[],['male'],[[1]],[[0.00022942]],SM
43,[[5]],[[44]],[[18]],['high holistic'],['right'],['upright'],['U0359.bmp'],['male'],[],['male'],[[1]],[[0.25573273]],SM
44,[[5]],[[45]],[[19]],['low holistic'],['right'],['upright'],['U0361.bmp'],['female'],[],['female'],[[1]],[[0.01474331]],SM
45,[[5]],[[46]],[[18]],['high holistic'],['left'],['inverted'],['U0359.bmp'],['male'],[],['male'],[[1]],[[0.00554498]],SM
46,[[5]],[[47]],[[6]],['low holistic'],['left'],['inverted'],['U0106.bmp'],['male'],[],['male'],[[1]],[[0.10124561]],SM
47,[[5]],[[48]],[[9]],['high holistic'],['left'],['upright'],['U0155.bmp'],['female'],[],['female'],[[1]],[[0.24824132]],SM
48,[[5]],[[49]],[[19]],['high holistic'],['right'],['inverted'],['U0361.bmp'],['female'],[],['male'],[[0]],[[0.00010724]],SM
49,[[5]],[[50]],[[3]],['low holistic'],['fovea'],['inverted'],['U0020.bmp'],['female'],[],['female'],[[1]],[[0.16044434]],SM
50,[[5]],[[51]],[[17]],['low holistic'],['left'],['upright'],['U0346.bmp'],['female'],[],['female'],[[1]],[[0.08990018]],SM
51,[[5]],[[52]],[[15]],['low holistic'],['left'],['inverted'],['U0312.bmp'],['male'],[],['male'],[[1]],[[0.10847831]],SM
52,[[5]],[[53]],[[12]],['high holistic'],['left'],['upright'],['U0178.bmp'],['male'],[],['male'],[[1]],[[9.94009897e-05]],SM
53,[[5]],[[54]],[[7]],['low holistic'],['right'],['upright'],['U0107.bmp'],['female'],[],['female'],[[1]],[[0.04702813]],SM
54,[[5]],[[55]],[[12]],['high holistic'],['right'],['inverted'],['U0178.bmp'],['male'],[],['male'],[[1]],[[0.15836145]],SM
55,[[5]],[[56]],[[8]],['low holistic'],['right'],['inverted'],['U0137.bmp'],['male'],[],['male'],[[1]],[[0.16666257]],SM
56,[[5]],[[57]],[[8]],['high holistic'],['left'],['upright'],['U0137.bmp'],['female'],[],['female'],[[1]],[[0.00010749]],SM
57,[[5]],[[58]],[[10]],['high holistic'],['right'],['inverted'],['U0159.bmp'],['male'],[],['male'],[[1]],[[0.00010659]],SM
58,[[5]],[[59]],[[17]],['high holistic'],['right'],['inverted'],['U0346.bmp'],['male'],[],['male'],[[1]],[[0.11246059]],SM
59,[[5]],[[60]],[[12]],['low holistic'],['right'],['upright'],['U0178.bmp'],['female'],[],['female'],[[1]],[[0.18018699]],SM
60,[[5]],[[61]],[[6]],['low holistic'],['left'],['inverted'],['U0106.bmp'],['male'],[],['male'],[[1]],[[9.99809708e-05]],SM
61,[[5]],[[62]],[[9]],['low holistic'],['left'],['upright'],['U0155.bmp'],['male'],[],['male'],[[1]],[[0.03596903]],SM
62,[[5]],[[63]],[[13]],['high holistic'],['fovea'],['upright'],['U0181.bmp'],['female'],[],['female'],[[1]],[[0.03356879]],SM
63,[[5]],[[64]],[[15]],['low holistic'],['left'],['upright'],['U0312.bmp'],['male'],[],['male'],[[1]],[[0.00010689]],SM
64,[[5]],[[65]],[[9]],['low holistic'],['right'],['upright'],['U0155.bmp'],['male'],[],['male'],[[1]],[[0.00010597]],SM
65,[[5]],[[66]],[[18]],['high holistic'],['left'],['upright'],['U0359.bmp'],['male'],[],['male'],[[1]],[[2.44224861]],SM
66,[[5]],[[67]],[[16]],['low holistic'],['right'],['upright'],['U0335.bmp'],['female'],[],['male'],[[0]],[[3.81546609]],SM
67,[[5]],[[68]],[[8]],['high holistic'],['left'],['inverted'],['U0137.bmp'],['female'],[],['female'],[[1]],[[0.07999161]],SM
68,[[5]],[[69]],[[19]],['high holistic'],['right'],['upright'],['U0361.bmp'],['female'],[],['male'],[[0]],[[0.01244629]],SM
69,[[5]],[[70]],[[1]],['high holistic'],['left'],['upright'],['U0006.bmp'],['female'],[],['male'],[[0]],[[0.22823987]],SM
70,[[5]],[[71]],[[7]],['low holistic'],['right'],['inverted'],['U0107.bmp'],['female'],[],['female'],[[1]],[[9.95418523e-05]],SM
71,[[5]],[[72]],[[15]],['high holistic'],['left'],['inverted'],['U0312.bmp'],['male'],[],['male'],[[1]],[[0.09904385]],SM
72,[[5]],[[73]],[[19]],['high holistic'],['right'],['upright'],['U0361.bmp'],['female'],[],['female'],[[1]],[[0.01411025]],SM
73,[[5]],[[74]],[[17]],['low holistic'],['right'],['upright'],['U0346.bmp'],['female'],[],['female'],[[1]],[[0.00011716]],SM
74,[[5]],[[75]],[[18]],['high holistic'],['left'],['upright'],['U0359.bmp'],['male'],[],['male'],[[1]],[[0.00616965]],SM
75,[[5]],[[76]],[[2]],['high holistic'],['right'],['inverted'],['U0014.bmp'],['male'],[],['male'],[[1]],[[9.91909765e-05]],SM
76,[[5]],[[77]],[[15]],['high holistic'],['right'],['inverted'],['U0312.bmp'],['male'],[],['female'],[[0]],[[0.00683242]],SM
77,[[5]],[[78]],[[8]],['high holistic'],['left'],['upright'],['U0137.bmp'],['female'],[],['female'],[[1]],[[0.08565371]],SM
78,[[5]],[[79]],[[1]],['high holistic'],['right'],['inverted'],['U0006.bmp'],['female'],[],['female'],[[1]],[[0.00010507]],SM
79,[[5]],[[80]],[[5]],['high holistic'],['left'],['upright'],['U0076.bmp'],['female'],[],['female'],[[1]],[[0.07507168]],SM
80,[[5]],[[81]],[[19]],['low holistic'],['left'],['inverted'],['U0361.bmp'],['female'],[],['female'],[[1]],[[0.17564656]],SM
81,[[5]],[[82]],[[7]],['low holistic'],['fovea'],['inverted'],['U0107.bmp'],['female'],[],['female'],[[1]],[[0.13763293]],SM
82,[[5]],[[83]],[[18]],['high holistic'],['left'],['upright'],['U0359.bmp'],['male'],[],['male'],[[1]],[[0.08337493]],SM
83,[[5]],[[84]],[[6]],['low holistic'],['left'],['inverted'],['U0106.bmp'],['male'],[],['male'],[[1]],[[9.9718105e-05]],SM
84,[[5]],[[85]],[[6]],['high holistic'],['left'],['upright'],['U0106.bmp'],['female'],[],['female'],[[1]],[[0.55997924]],SM
85,[[5]],[[86]],[[14]],['low holistic'],['right'],['upright'],['U0228.bmp'],['male'],[],['male'],[[1]],[[2.24198038]],SM
86,[[5]],[[87]],[[16]],['low holistic'],['left'],['upright'],['U0335.bmp'],['female'],[],['female'],[[1]],[[9.95770097e-05]],SM
87,[[5]],[[88]],[[1]],['high holistic'],['right'],['upright'],['U0006.bmp'],['female'],[],['male'],[[0]],[[0.00011775]],SM
88,[[5]],[[89]],[[4]],['low holistic'],['right'],['upright'],['U0061.bmp'],['female'],[],['female'],[[1]],[[0.00030465]],SM
89,[[5]],[[90]],[[9]],['low holistic'],['left'],['upright'],['U0155.bmp'],['male'],[],['male'],[[1]],[[0.00011193]],SM
90,[[5]],[[91]],[[12]],['low holistic'],['left'],['upright'],['U0178.bmp'],['female'],[],['female'],[[1]],[[0.02437945]],SM
91,[[5]],[[92]],[[2]],['low holistic'],['left'],['inverted'],['U0014.bmp'],['male'],[],['female'],[[0]],[[0.02316118]],SM
92,[[5]],[[93]],[[6]],['high holistic'],['left'],['inverted'],['U0106.bmp'],['female'],[],['male'],[[0]],[[0.18977496]],SM
93,[[5]],[[94]],[[15]],['high holistic'],['left'],['inverted'],['U0312.bmp'],['male'],[],['female'],[[0]],[[0.00022156]],SM
94,[[5]],[[95]],[[20]],['high holistic'],['left'],['inverted'],['U0362.bmp'],['female'],[],['female'],[[1]],[[0.00027592]],SM
95,[[5]],[[96]],[[5]],['high holistic'],['right'],['inverted'],['U0076.bmp'],['female'],[],['female'],[[1]],[[0.00020635]],SM
96,[[5]],[[97]],[[15]],['high holistic'],['fovea'],['upright'],['U0312.bmp'],['male'],[],['male'],[[1]],[[0.00651669]],SM
97,[[5]],[[98]],[[18]],['low holistic'],['right'],['upright'],['U0359.bmp'],['male'],[],['male'],[[1]],[[0.02180216]],SM
98,[[5]],[[99]],[[9]],['low holistic'],['left'],['inverted'],['U0155.bmp'],['male'],[],['female'],[[0]],[[0.00010486]],SM
99,[[5]],[[100]],[[5]],['low holistic'],['right'],['upright'],['U0076.bmp'],['male'],[],['male'],[[1]],[[0.00010682]],SM
100,[[5]],[[101]],[[9]],['low holistic'],['right'],['inverted'],['U0155.bmp'],['male'],[],['male'],[[1]],[[0.00013738]],SM
101,[[5]],[[102]],[[9]],['low holistic'],['left'],['upright'],['U0155.bmp'],['male'],[],['male'],[[1]],[[0.03651277]],SM
102,[[5]],[[103]],[[9]],['low holistic'],['left'],['upright'],['U0155.bmp'],['male'],[],['male'],[[1]],[[9.86349769e-05]],SM
103,[[5]],[[104]],[[8]],['high holistic'],['left'],['upright'],['U0137.bmp'],['female'],[],['female'],[[1]],[[0.0835771]],SM
104,[[5]],[[105]],[[9]],['low holistic'],['right'],['inverted'],['U0155.bmp'],['male'],[],['male'],[[1]],[[0.00017631]],SM
105,[[5]],[[106]],[[15]],['high holistic'],['left'],['upright'],['U0312.bmp'],['male'],[],['female'],[[0]],[[0.20897037]],SM
106,[[5]],[[107]],[[11]],['low holistic'],['left'],['inverted'],['U0164.bmp'],['female'],[],['female'],[[1]],[[0.03111626]],SM
107,[[5]],[[108]],[[15]],['low holistic'],['left'],['inverted'],['U0312.bmp'],['male'],[],['female'],[[0]],[[0.11874225]],SM
108,[[5]],[[109]],[[12]],['low holistic'],['right'],['inverted'],['U0178.bmp'],['female'],[],['male'],[[0]],[[1.01099055]],SM
109,[[5]],[[110]],[[18]],['low holistic'],['fovea'],['inverted'],['U0359.bmp'],['male'],[],['female'],[[0]],[[0.17777212]],SM
110,[[5]],[[111]],[[11]],['high holistic'],['left'],['upright'],['U0164.bmp'],['female'],[],['male'],[[0]],[[0.20936995]],SM
111,[[5]],[[112]],[[7]],['high holistic'],['left'],['inverted'],['U0107.bmp'],['female'],[],['female'],[[1]],[[0.18685142]],SM
112,[[5]],[[113]],[[16]],['high holistic'],['left'],['inverted'],['U0335.bmp'],['female'],[],['female'],[[1]],[[0.00010872]],SM
113,[[5]],[[114]],[[15]],['high holistic'],['right'],['inverted'],['U0312.bmp'],['male'],[],['male'],[[1]],[[0.14799716]],SM
114,[[5]],[[115]],[[1]],['low holistic'],['right'],['inverted'],['U0006.bmp'],['female'],[],['female'],[[1]],[[0.0001067]],SM
115,[[5]],[[116]],[[10]],['high holistic'],['right'],['inverted'],['U0159.bmp'],['male'],[],['female'],[[0]],[[0.19404089]],SM
116,[[5]],[[117]],[[4]],['low holistic'],['left'],['upright'],['U0061.bmp'],['female'],[],['female'],[[1]],[[0.01700611]],SM
117,[[5]],[[118]],[[14]],['low holistic'],['left'],['inverted'],['U0228.bmp'],['male'],[],['female'],[[0]],[[0.00015753]],SM
118,[[5]],[[119]],[[6]],['high holistic'],['right'],['upright'],['U0106.bmp'],['female'],[],['male'],[[0]],[[0.00012492]],SM
119,[[5]],[[120]],[[11]],['high holistic'],['right'],['upright'],['U0164.bmp'],['female'],[],['female'],[[1]],[[0.06409168]],SM
120,[[5]],[[121]],[[1]],['low holistic'],['left'],['inverted'],['U0006.bmp'],['female'],[],['male'],[[0]],[[0.006161]],SM
121,[[5]],[[122]],[[15]],['high holistic'],['right'],['upright'],['U0312.bmp'],['male'],[],['male'],[[1]],[[0.04562929]],SM
122,[[5]],[[123]],[[17]],['low holistic'],['right'],['upright'],['U0346.bmp'],['female'],[],['female'],[[1]],[[0.8273788]],SM
123,[[5]],[[124]],[[5]],['low holistic'],['right'],['inverted'],['U0076.bmp'],['male'],[],['female'],[[0]],[[0.00014693]],SM
124,[[5]],[[125]],[[18]],['high holistic'],['left'],['inverted'],['U0359.bmp'],['male'],[],['female'],[[0]],[[0.09094112]],SM
125,[[5]],[[126]],[[17]],['low holistic'],['right'],['inverted'],['U0346.bmp'],['female'],[],['female'],[[1]],[[0.00030725]],SM
126,[[5]],[[127]],[[4]],['low holistic'],['right'],['inverted'],['U0061.bmp'],['female'],[],['female'],[[1]],[[0.11955498]],SM
127,[[5]],[[128]],[[16]],['low holistic'],['left'],['inverted'],['U0335.bmp'],['female'],[],['female'],[[1]],[[0.23354315]],SM
128,[[5]],[[129]],[[16]],['low holistic'],['right'],['inverted'],['U0335.bmp'],['female'],[],['female'],[[1]],[[0.00022858]],SM
129,[[5]],[[130]],[[11]],['high holistic'],['right'],['inverted'],['U0164.bmp'],['female'],[],['female'],[[1]],[[9.88701358e-05]],SM
130,[[5]],[[131]],[[9]],['high holistic'],['right'],['upright'],['U0155.bmp'],['female'],[],['male'],[[0]],[[0.28557243]],SM
131,[[5]],[[132]],[[19]],['low holistic'],['right'],['upright'],['U0361.bmp'],['female'],[],['female'],[[1]],[[0.11462874]],SM
132,[[5]],[[133]],[[3]],['low holistic'],['right'],['upright'],['U0020.bmp'],['female'],[],['female'],[[1]],[[0.00031979]],SM
133,[[5]],[[134]],[[19]],['low holistic'],['left'],['inverted'],['U0361.bmp'],['female'],[],['female'],[[1]],[[0.00019697]],SM
134,[[5]],[[135]],[[7]],['high holistic'],['fovea'],['inverted'],['U0107.bmp'],['female'],[],['female'],[[1]],[[0.08609943]],SM
135,[[5]],[[136]],[[18]],['high holistic'],['fovea'],['upright'],['U0359.bmp'],['male'],[],['female'],[[0]],[[0.00041542]],SM
136,[[5]],[[137]],[[19]],['low holistic'],['right'],['inverted'],['U0361.bmp'],['female'],[],['female'],[[1]],[[9.98000614e-05]],SM
137,[[5]],[[138]],[[3]],['low holistic'],['right'],['inverted'],['U0020.bmp'],['female'],[],['female'],[[1]],[[9.99809708e-05]],SM
138,[[5]],[[139]],[[17]],['high holistic'],['right'],['upright'],['U0346.bmp'],['male'],[],['female'],[[0]],[[0.00018361]],SM
139,[[5]],[[140]],[[2]],['high holistic'],['right'],['upright'],['U0014.bmp'],['male'],[],['male'],[[1]],[[0.12153783]],SM
140,[[5]],[[141]],[[20]],['high holistic'],['left'],['inverted'],['U0362.bmp'],['female'],[],['female'],[[1]],[[0.16561953]],SM
141,[[5]],[[142]],[[3]],['low holistic'],['fovea'],['upright'],['U0020.bmp'],['female'],[],['male'],[[0]],[[0.00010682]],SM
142,[[5]],[[143]],[[4]],['high holistic'],['right'],['upright'],['U0061.bmp'],['female'],[],['male'],[[0]],[[0.00017594]],SM
143,[[5]],[[144]],[[15]],['high holistic'],['right'],['upright'],['U0312.bmp'],['male'],[],['female'],[[0]],[[0.00041303]],SM
144,[[5]],[[145]],[[13]],['low holistic'],['left'],['inverted'],['U0181.bmp'],['male'],[],['female'],[[0]],[[0.03124118]],SM
145,[[5]],[[146]],[[16]],['low holistic'],['left'],['inverted'],['U0335.bmp'],['female'],[],['male'],[[0]],[[0.00034766]],SM
146,[[5]],[[147]],[[8]],['low holistic'],['fovea'],['upright'],['U0137.bmp'],['male'],[],['female'],[[0]],[[0.09334726]],SM
147,[[5]],[[148]],[[3]],['high holistic'],['right'],['upright'],['U0020.bmp'],['male'],[],['male'],[[1]],[[9.88328829e-05]],SM
148,[[5]],[[149]],[[13]],['high holistic'],['left'],['upright'],['U0181.bmp'],['female'],[],['male'],[[0]],[[0.02418765]],SM
149,[[5]],[[150]],[[6]],['high holistic'],['right'],['inverted'],['U0106.bmp'],['female'],[],['female'],[[1]],[[0.0002026]],SM
150,[[5]],[[151]],[[8]],['low holistic'],['right'],['inverted'],['U0137.bmp'],['male'],[],['female'],[[0]],[[0.00018189]],SM
151,[[5]],[[152]],[[20]],['low holistic'],['left'],['upright'],['U0362.bmp'],['male'],[],['female'],[[0]],[[0.0002113]],SM
152,[[5]],[[153]],[[4]],['high holistic'],['right'],['upright'],['U0061.bmp'],['female'],[],['male'],[[0]],[[0.09616816]],SM
153,[[5]],[[154]],[[13]],['low holistic'],['left'],['inverted'],['U0181.bmp'],['male'],[],['female'],[[0]],[[9.81700141e-05]],SM
154,[[5]],[[155]],[[20]],['high holistic'],['right'],['upright'],['U0362.bmp'],['female'],[],['female'],[[1]],[[9.83108766e-05]],SM
155,[[5]],[[156]],[[17]],['high holistic'],['right'],['inverted'],['U0346.bmp'],['male'],[],['female'],[[0]],[[1.4752671]],SM
156,[[5]],[[157]],[[6]],['high holistic'],['right'],['upright'],['U0106.bmp'],['female'],[],['male'],[[0]],[[0.17810094]],SM
157,[[5]],[[158]],[[1]],['low holistic'],['fovea'],['upright'],['U0006.bmp'],['female'],[],['male'],[[0]],[[1.51534242]],SM
158,[[5]],[[159]],[[13]],['low holistic'],['left'],['upright'],['U0181.bmp'],['male'],[],['male'],[[1]],[[0.10291825]],SM
159,[[5]],[[160]],[[4]],['low holistic'],['left'],['inverted'],['U0061.bmp'],['female'],[],['male'],[[0]],[[0.00957584]],SM
160,[[5]],[[161]],[[2]],['high holistic'],['right'],['inverted'],['U0014.bmp'],['male'],[],['male'],[[1]],[[0.13681096]],SM
161,[[5]],[[162]],[[16]],['high holistic'],['left'],['inverted'],['U0335.bmp'],['female'],[],['male'],[[0]],[[0.09042382]],SM
162,[[5]],[[163]],[[12]],['low holistic'],['right'],['inverted'],['U0178.bmp'],['female'],[],['male'],[[0]],[[0.23189141]],SM
163,[[5]],[[164]],[[10]],['low holistic'],['right'],['upright'],['U0159.bmp'],['female'],[],['male'],[[0]],[[0.14224188]],SM
164,[[5]],[[165]],[[8]],['low holistic'],['left'],['upright'],['U0137.bmp'],['male'],[],['male'],[[1]],[[0.00017664]],SM
165,[[5]],[[166]],[[6]],['low holistic'],['right'],['inverted'],['U0106.bmp'],['male'],[],['male'],[[1]],[[0.00017785]],SM
166,[[5]],[[167]],[[12]],['high holistic'],['right'],['upright'],['U0178.bmp'],['male'],[],['male'],[[1]],[[0.04885549]],SM
167,[[5]],[[168]],[[14]],['high holistic'],['right'],['inverted'],['U0228.bmp'],['male'],[],['male'],[[1]],[[9.78389289e-05]],SM
168,[[5]],[[169]],[[18]],['high holistic'],['right'],['inverted'],['U0359.bmp'],['male'],[],['female'],[[0]],[[0.51120118]],SM
169,[[5]],[[170]],[[6]],['high holistic'],['left'],['inverted'],['U0106.bmp'],['female'],[],['female'],[[1]],[[0.00013445]],SM
170,[[5]],[[171]],[[9]],['low holistic'],['left'],['upright'],['U0155.bmp'],['male'],[],['female'],[[0]],[[0.00015649]],SM
171,[[5]],[[172]],[[8]],['high holistic'],['right'],['upright'],['U0137.bmp'],['female'],[],['female'],[[1]],[[0.03481379]],SM
172,[[5]],[[173]],[[6]],['high holistic'],['left'],['inverted'],['U0106.bmp'],['female'],[],['female'],[[1]],[[0.00014373]],SM
173,[[5]],[[174]],[[18]],['high holistic'],['right'],['inverted'],['U0359.bmp'],['male'],[],['male'],[[1]],[[1.49790261]],SM
174,[[5]],[[175]],[[9]],['low holistic'],['fovea'],['inverted'],['U0155.bmp'],['male'],[],['male'],[[1]],[[0.06952991]],SM
175,[[5]],[[176]],[[5]],['low holistic'],['left'],['upright'],['U0076.bmp'],['male'],[],['female'],[[0]],[[0.00021396]],SM
176,[[5]],[[177]],[[8]],['high holistic'],['fovea'],['inverted'],['U0137.bmp'],['female'],[],['male'],[[0]],[[0.02796914]],SM
177,[[5]],[[178]],[[14]],['low holistic'],['left'],['upright'],['U0228.bmp'],['male'],[],['male'],[[1]],[[0.77679282]],SM
178,[[5]],[[179]],[[1]],['low holistic'],['fovea'],['inverted'],['U0006.bmp'],['female'],[],['male'],[[0]],[[0.06575196]],SM
179,[[5]],[[180]],[[18]],['low holistic'],['left'],['upright'],['U0359.bmp'],['male'],[],['female'],[[0]],[[0.3265632]],SM
180,[[5]],[[181]],[[12]],['low holistic'],['right'],['inverted'],['U0178.bmp'],['female'],[],['female'],[[1]],[[0.00038105]],SM
181,[[5]],[[182]],[[15]],['high holistic'],['right'],['inverted'],['U0312.bmp'],['male'],[],['female'],[[0]],[[0.1557543]],SM
182,[[5]],[[183]],[[7]],['high holistic'],['left'],['inverted'],['U0107.bmp'],['female'],[],['female'],[[1]],[[0.00011007]],SM
183,[[5]],[[184]],[[19]],['low holistic'],['right'],['upright'],['U0361.bmp'],['female'],[],['female'],[[1]],[[0.00020151]],SM
184,[[5]],[[185]],[[7]],['low holistic'],['left'],['upright'],['U0107.bmp'],['female'],[],['female'],[[1]],[[0.00037871]],SM
185,[[5]],[[186]],[[14]],['low holistic'],['left'],['inverted'],['U0228.bmp'],['male'],[],['female'],[[0]],[[0.06912849]],SM
186,[[5]],[[187]],[[6]],['high holistic'],['left'],['inverted'],['U0106.bmp'],['female'],[],['female'],[[1]],[[0.06483306]],SM
187,[[5]],[[188]],[[14]],['low holistic'],['left'],['inverted'],['U0228.bmp'],['male'],[],['female'],[[0]],[[0.22249151]],SM
188,[[5]],[[189]],[[9]],['high holistic'],['right'],['inverted'],['U0155.bmp'],['female'],[],['male'],[[0]],[[9.9878991e-05]],SM
189,[[5]],[[190]],[[16]],['low holistic'],['left'],['inverted'],['U0335.bmp'],['female'],[],['male'],[[0]],[[0.11018607]],SM
190,[[5]],[[191]],[[1]],['high holistic'],['right'],['upright'],['U0006.bmp'],['female'],[],['male'],[[0]],[[0.00010783]],SM
191,[[5]],[[192]],[[16]],['low holistic'],['right'],['upright'],['U0335.bmp'],['female'],[],['male'],[[0]],[[0.00012654]],SM
192,[[5]],[[193]],[[4]],['low holistic'],['fovea'],['upright'],['U0061.bmp'],['female'],[],['male'],[[0]],[[0.12876717]],SM
193,[[5]],[[194]],[[2]],['high holistic'],['left'],['upright'],['U0014.bmp'],['male'],[],['female'],[[0]],[[0.00020339]],SM
194,[[5]],[[195]],[[15]],['low holistic'],['right'],['upright'],['U0312.bmp'],['male'],[],['male'],[[1]],[[0.00014423]],SM
195,[[5]],[[196]],[[15]],['high holistic'],['right'],['inverted'],['U0312.bmp'],['male'],[],['female'],[[0]],[[0.00010091]],SM
196,[[5]],[[197]],[[17]],['high holistic'],['right'],['upright'],['U0346.bmp'],['male'],[],['female'],[[0]],[[0.12490176]],SM
197,[[5]],[[198]],[[10]],['high holistic'],['left'],['inverted'],['U0159.bmp'],['male'],[],['male'],[[1]],[[0.00037604]],SM
198,[[5]],[[199]],[[11]],['high holistic'],['left'],['inverted'],['U0164.bmp'],['female'],[],['male'],[[0]],[[9.9806115e-05]],SM
199,[[5]],[[200]],[[4]],['low holistic'],['left'],['upright'],['U0061.bmp'],['female'],[],['male'],[[0]],[[1.0475345]],SM
200,[[5]],[[201]],[[16]],['high holistic'],['right'],['inverted'],['U0335.bmp'],['female'],[],['female'],[[1]],[[0.00011671]],SM
201,[[5]],[[202]],[[1]],['low holistic'],['left'],['inverted'],['U0006.bmp'],['female'],[],['female'],[[1]],[[1.12589747]],SM
202,[[5]],[[203]],[[17]],['high holistic'],['left'],['inverted'],['U0346.bmp'],['male'],[],['male'],[[1]],[[0.02351478]],SM
203,[[5]],[[204]],[[15]],['high holistic'],['left'],['inverted'],['U0312.bmp'],['male'],[],['female'],[[0]],[[0.00012554]],SM
204,[[5]],[[205]],[[16]],['high holistic'],['left'],['inverted'],['U0335.bmp'],['female'],[],['female'],[[1]],[[0.08848235]],SM
205,[[5]],[[206]],[[5]],['high holistic'],['left'],['upright'],['U0076.bmp'],['female'],[],['female'],[[1]],[[0.00012168]],SM
206,[[5]],[[207]],[[13]],['low holistic'],['left'],['upright'],['U0181.bmp'],['male'],[],['male'],[[1]],[[0.08288691]],SM
207,[[5]],[[208]],[[11]],['high holistic'],['fovea'],['upright'],['U0164.bmp'],['female'],[],['female'],[[1]],[[0.05696073]],SM
208,[[5]],[[209]],[[8]],['low holistic'],['left'],['upright'],['U0137.bmp'],['male'],[],['female'],[[0]],[[1.07848565]],SM
209,[[5]],[[210]],[[20]],['high holistic'],['right'],['inverted'],['U0362.bmp'],['female'],[],['male'],[[0]],[[0.25906974]],SM
210,[[5]],[[211]],[[19]],['low holistic'],['right'],['upright'],['U0361.bmp'],['female'],[],['male'],[[0]],[[0.04081785]],SM
211,[[5]],[[212]],[[14]],['low holistic'],['left'],['upright'],['U0228.bmp'],['male'],[],['male'],[[1]],[[0.19941078]],SM
212,[[5]],[[213]],[[20]],['low holistic'],['right'],['inverted'],['U0362.bmp'],['male'],[],['male'],[[1]],[[0.00019258]],SM
213,[[5]],[[214]],[[20]],['high holistic'],['left'],['inverted'],['U0362.bmp'],['female'],[],['male'],[[0]],[[0.16652758]],SM
214,[[5]],[[215]],[[2]],['low holistic'],['left'],['inverted'],['U0014.bmp'],['male'],[],['male'],[[1]],[[0.27235102]],SM
215,[[5]],[[216]],[[19]],['low holistic'],['left'],['inverted'],['U0361.bmp'],['female'],[],['male'],[[0]],[[0.000321]],SM
216,[[5]],[[217]],[[1]],['high holistic'],['left'],['inverted'],['U0006.bmp'],['female'],[],['female'],[[1]],[[9.9736033e-05]],SM
217,[[5]],[[218]],[[14]],['low holistic'],['left'],['inverted'],['U0228.bmp'],['male'],[],['male'],[[1]],[[0.00015229]],SM
218,[[5]],[[219]],[[2]],['low holistic'],['right'],['inverted'],['U0014.bmp'],['male'],[],['male'],[[1]],[[9.80619807e-05]],SM
219,[[5]],[[220]],[[17]],['high holistic'],['right'],['inverted'],['U0346.bmp'],['male'],[],['male'],[[1]],[[0.00017486]],SM
220,[[5]],[[221]],[[16]],['low holistic'],['left'],['upright'],['U0335.bmp'],['female'],[],['male'],[[0]],[[0.00017202]],SM
221,[[5]],[[222]],[[4]],['low holistic'],['left'],['inverted'],['U0061.bmp'],['female'],[],['male'],[[0]],[[0.09342162]],SM
222,[[5]],[[223]],[[11]],['low holistic'],['right'],['upright'],['U0164.bmp'],['female'],[],['male'],[[0]],[[0.05843354]],SM
223,[[5]],[[224]],[[11]],['high holistic'],['left'],['inverted'],['U0164.bmp'],['female'],[],['male'],[[0]],[[9.85278748e-05]],SM
224,[[5]],[[225]],[[15]],['high holistic'],['left'],['upright'],['U0312.bmp'],['male'],[],['male'],[[1]],[[0.03983973]],SM
225,[[5]],[[226]],[[4]],['low holistic'],['right'],['upright'],['U0061.bmp'],['female'],[],['male'],[[0]],[[0.34986241]],SM
226,[[5]],[[227]],[[18]],['high holistic'],['left'],['upright'],['U0359.bmp'],['male'],[],['male'],[[1]],[[0.10377613]],SM
227,[[5]],[[228]],[[1]],['low holistic'],['left'],['upright'],['U0006.bmp'],['female'],[],['male'],[[0]],[[0.04979186]],SM
228,[[5]],[[229]],[[4]],['high holistic'],['fovea'],['upright'],['U0061.bmp'],['female'],[],['female'],[[1]],[[0.06487444]],SM
229,[[5]],[[230]],[[6]],['low holistic'],['left'],['inverted'],['U0106.bmp'],['male'],[],['male'],[[1]],[[0.22133143]],SM
230,[[5]],[[231]],[[17]],['low holistic'],['right'],['upright'],['U0346.bmp'],['female'],[],['female'],[[1]],[[0.00013884]],SM
231,[[5]],[[232]],[[2]],['low holistic'],['right'],['inverted'],['U0014.bmp'],['male'],[],['male'],[[1]],[[0.19541424]],SM
232,[[5]],[[233]],[[8]],['high holistic'],['right'],['upright'],['U0137.bmp'],['female'],[],['male'],[[0]],[[0.04390616]],SM
233,[[5]],[[234]],[[9]],['low holistic'],['right'],['upright'],['U0155.bmp'],['male'],[],['male'],[[1]],[[0.00020649]],SM
234,[[5]],[[235]],[[17]],['low holistic'],['right'],['upright'],['U0346.bmp'],['female'],[],['female'],[[1]],[[0.00010483]],SM
235,[[5]],[[236]],[[3]],['low holistic'],['right'],['upright'],['U0020.bmp'],['female'],[],['male'],[[0]],[[0.00319085]],SM
236,[[5]],[[237]],[[9]],['low holistic'],['left'],['inverted'],['U0155.bmp'],['male'],[],['female'],[[0]],[[0.01025447]],SM
237,[[5]],[[238]],[[14]],['high holistic'],['left'],['inverted'],['U0228.bmp'],['male'],[],['female'],[[0]],[[1.24166088]],SM
238,[[5]],[[239]],[[13]],['high holistic'],['right'],['upright'],['U0181.bmp'],['female'],[],['male'],[[0]],[[0.11204137]],SM
239,[[5]],[[240]],[[12]],['high holistic'],['left'],['upright'],['U0178.bmp'],['male'],[],['female'],[[0]],[[0.00028212]],SM
240,[[5]],[[241]],[[11]],['low holistic'],['right'],['upright'],['U0164.bmp'],['female'],[],['male'],[[0]],[[0.00023191]],SM
241,[[5]],[[242]],[[8]],['high holistic'],['right'],['upright'],['U0137.bmp'],['female'],[],['male'],[[0]],[[0.00012185]],SM
242,[[5]],[[243]],[[8]],['high holistic'],['right'],['inverted'],['U0137.bmp'],['female'],[],['female'],[[1]],[[0.04295323]],SM
243,[[5]],[[244]],[[8]],['low holistic'],['left'],['upright'],['U0137.bmp'],['male'],[],['male'],[[1]],[[0.00017892]],SM
244,[[5]],[[245]],[[12]],['high holistic'],['right'],['upright'],['U0178.bmp'],['male'],[],['female'],[[0]],[[0.00015032]],SM
245,[[5]],[[246]],[[11]],['high holistic'],['left'],['upright'],['U0164.bmp'],['female'],[],['female'],[[1]],[[0.07451103]],SM
246,[[5]],[[247]],[[2]],['high holistic'],['left'],['upright'],['U0014.bmp'],['male'],[],['female'],[[0]],[[0.00015409]],SM
247,[[5]],[[248]],[[13]],['low holistic'],['right'],['inverted'],['U0181.bmp'],['male'],[],['male'],[[1]],[[0.26291769]],SM
248,[[5]],[[249]],[[9]],['high holistic'],['left'],['upright'],['U0155.bmp'],['female'],[],['female'],[[1]],[[0.00023094]],SM
249,[[5]],[[250]],[[15]],['high holistic'],['right'],['inverted'],['U0312.bmp'],['male'],[],['male'],[[1]],[[0.00017867]],SM
250,[[5]],[[251]],[[9]],['low holistic'],['right'],['upright'],['U0155.bmp'],['male'],[],['female'],[[0]],[[0.0369611]],SM
251,[[5]],[[252]],[[18]],['low holistic'],['left'],['upright'],['U0359.bmp'],['male'],[],['female'],[[0]],[[0.00016523]],SM
252,[[5]],[[253]],[[1]],['low holistic'],['left'],['upright'],['U0006.bmp'],['female'],[],['female'],[[1]],[[0.00020254]],SM
253,[[5]],[[254]],[[20]],['low holistic'],['right'],['inverted'],['U0362.bmp'],['male'],[],['male'],[[1]],[[1.00110702]],SM
254,[[5]],[[255]],[[12]],['low holistic'],['right'],['inverted'],['U0178.bmp'],['female'],[],['male'],[[0]],[[0.51399312]],SM
255,[[5]],[[256]],[[14]],['high holistic'],['right'],['inverted'],['U0228.bmp'],['male'],[],['male'],[[1]],[[0.19730269]],SM
256,[[5]],[[257]],[[17]],['low holistic'],['left'],['upright'],['U0346.bmp'],['female'],[],['male'],[[0]],[[9.90941189e-05]],SM
257,[[5]],[[258]],[[1]],['low holistic'],['left'],['upright'],['U0006.bmp'],['female'],[],['male'],[[0]],[[0.00053561]],SM
258,[[5]],[[259]],[[3]],['high holistic'],['right'],['inverted'],['U0020.bmp'],['male'],[],['male'],[[1]],[[0.44631388]],SM
259,[[5]],[[260]],[[1]],['low holistic'],['right'],['inverted'],['U0006.bmp'],['female'],[],['male'],[[0]],[[0.21993668]],SM
260,[[5]],[[261]],[[12]],['high holistic'],['left'],['upright'],['U0178.bmp'],['male'],[],['female'],[[0]],[[0.14144136]],SM
261,[[5]],[[262]],[[8]],['high holistic'],['right'],['upright'],['U0137.bmp'],['female'],[],['female'],[[1]],[[0.00020712]],SM
262,[[5]],[[263]],[[19]],['low holistic'],['right'],['inverted'],['U0361.bmp'],['female'],[],['male'],[[0]],[[0.00021268]],SM
263,[[5]],[[264]],[[15]],['low holistic'],['left'],['upright'],['U0312.bmp'],['male'],[],['female'],[[0]],[[0.00016398]],SM
264,[[5]],[[265]],[[4]],['low holistic'],['left'],['inverted'],['U0061.bmp'],['female'],[],['female'],[[1]],[[9.85751394e-05]],SM
265,[[5]],[[266]],[[13]],['low holistic'],['left'],['upright'],['U0181.bmp'],['male'],[],['female'],[[0]],[[9.73199494e-05]],SM
266,[[5]],[[267]],[[11]],['low holistic'],['left'],['upright'],['U0164.bmp'],['female'],[],['female'],[[1]],[[9.92850401e-05]],SM
267,[[5]],[[268]],[[12]],['low holistic'],['left'],['inverted'],['U0178.bmp'],['female'],[],['female'],[[1]],[[9.72638372e-05]],SM
268,[[5]],[[269]],[[19]],['low holistic'],['right'],['upright'],['U0361.bmp'],['female'],[],['female'],[[1]],[[0.00010484]],SM
269,[[5]],[[270]],[[1]],['high holistic'],['left'],['upright'],['U0006.bmp'],['female'],[],['female'],[[1]],[[0.19316362]],SM
270,[[5]],[[271]],[[1]],['high holistic'],['fovea'],['upright'],['U0006.bmp'],['female'],[],['female'],[[1]],[[0.15188794]],SM
271,[[5]],[[272]],[[9]],['low holistic'],['right'],['inverted'],['U0155.bmp'],['male'],[],['female'],[[0]],[[0.00041691]],SM
272,[[5]],[[273]],[[20]],['high holistic'],['right'],['inverted'],['U0362.bmp'],['female'],[],['female'],[[1]],[[9.90221743e-05]],SM
273,[[5]],[[274]],[[13]],['high holistic'],['left'],['upright'],['U0181.bmp'],['female'],[],['male'],[[0]],[[0.00019044]],SM
274,[[5]],[[275]],[[15]],['high holistic'],['left'],['inverted'],['U0312.bmp'],['male'],[],['female'],[[0]],[[0.00021456]],SM
275,[[5]],[[276]],[[9]],['low holistic'],['fovea'],['upright'],['U0155.bmp'],['male'],[],['female'],[[0]],[[0.00015655]],SM
276,[[5]],[[277]],[[19]],['high holistic'],['right'],['inverted'],['U0361.bmp'],['female'],[],['female'],[[1]],[[0.00026868]],SM
277,[[5]],[[278]],[[16]],['high holistic'],['right'],['upright'],['U0335.bmp'],['female'],[],['female'],[[1]],[[0.00010688]],SM
278,[[5]],[[279]],[[8]],['low holistic'],['left'],['inverted'],['U0137.bmp'],['male'],[],['female'],[[0]],[[0.5041765]],SM
279,[[5]],[[280]],[[13]],['low holistic'],['left'],['upright'],['U0181.bmp'],['male'],[],['female'],[[0]],[[0.00021929]],SM
280,[[5]],[[281]],[[4]],['high holistic'],['fovea'],['inverted'],['U0061.bmp'],['female'],[],['female'],[[1]],[[0.00010636]],SM
281,[[5]],[[282]],[[3]],['low holistic'],['fovea'],['inverted'],['U0020.bmp'],['female'],[],['female'],[[1]],[[1.2691127]],SM
282,[[5]],[[283]],[[13]],['high holistic'],['fovea'],['inverted'],['U0181.bmp'],['female'],[],['male'],[[0]],[[0.08957067]],SM
283,[[5]],[[284]],[[10]],['high holistic'],['fovea'],['upright'],['U0159.bmp'],['male'],[],['male'],[[1]],[[0.12581801]],SM
284,[[5]],[[285]],[[6]],['high holistic'],['left'],['upright'],['U0106.bmp'],['female'],[],['female'],[[1]],[[0.00016729]],SM
285,[[5]],[[286]],[[5]],['high holistic'],['fovea'],['inverted'],['U0076.bmp'],['female'],[],['female'],[[1]],[[0.00014945]],SM
286,[[5]],[[287]],[[11]],['low holistic'],['left'],['upright'],['U0164.bmp'],['female'],[],['female'],[[1]],[[9.90331173e-05]],SM
287,[[5]],[[288]],[[15]],['high holistic'],['right'],['upright'],['U0312.bmp'],['male'],[],['male'],[[1]],[[0.00010249]],SM
288,[[5]],[[289]],[[11]],['high holistic'],['left'],['inverted'],['U0164.bmp'],['female'],[],['female'],[[1]],[[0.00017716]],SM
289,[[5]],[[290]],[[8]],['low holistic'],['right'],['inverted'],['U0137.bmp'],['male'],[],['male'],[[1]],[[0.00024843]],SM
290,[[5]],[[291]],[[13]],['high holistic'],['right'],['inverted'],['U0181.bmp'],['female'],[],['male'],[[0]],[[0.00016434]],SM
291,[[5]],[[292]],[[13]],['high holistic'],['right'],['upright'],['U0181.bmp'],['female'],[],['female'],[[1]],[[0.02504756]],SM
292,[[5]],[[293]],[[2]],['low holistic'],['right'],['inverted'],['U0014.bmp'],['male'],[],['male'],[[1]],[[0.00702279]],SM
293,[[5]],[[294]],[[6]],['low holistic'],['left'],['inverted'],['U0106.bmp'],['male'],[],['female'],[[0]],[[0.02285371]],SM
294,[[5]],[[295]],[[5]],['low holistic'],['right'],['inverted'],['U0076.bmp'],['male'],[],['male'],[[1]],[[0.03047975]],SM
295,[[5]],[[296]],[[9]],['low holistic'],['right'],['inverted'],['U0155.bmp'],['male'],[],['male'],[[1]],[[0.15655159]],SM
296,[[5]],[[297]],[[19]],['low holistic'],['right'],['upright'],['U0361.bmp'],['female'],[],['male'],[[0]],[[0.00016489]],SM
297,[[5]],[[298]],[[7]],['high holistic'],['right'],['inverted'],['U0107.bmp'],['female'],[],['female'],[[1]],[[0.00018009]],SM
298,[[5]],[[299]],[[6]],['high holistic'],['right'],['inverted'],['U0106.bmp'],['female'],[],['male'],[[0]],[[0.09401463]],SM
299,[[5]],[[300]],[[12]],['high holistic'],['fovea'],['upright'],['U0178.bmp'],['male'],[],['female'],[[0]],[[9.96300951e-05]],SM
300,[[5]],[[301]],[[4]],['high holistic'],['left'],['inverted'],['U0061.bmp'],['female'],[],['female'],[[1]],[[0.00015421]],SM
301,[[5]],[[302]],[[3]],['high holistic'],['right'],['inverted'],['U0020.bmp'],['male'],[],['male'],[[1]],[[0.00013234]],SM
302,[[5]],[[303]],[[15]],['high holistic'],['left'],['inverted'],['U0312.bmp'],['male'],[],['male'],[[1]],[[0.00019285]],SM
303,[[5]],[[304]],[[8]],['low holistic'],['left'],['inverted'],['U0137.bmp'],['male'],[],['female'],[[0]],[[2.22695515]],SM
304,[[5]],[[305]],[[13]],['low holistic'],['right'],['upright'],['U0181.bmp'],['male'],[],['male'],[[1]],[[9.8753022e-05]],SM
305,[[5]],[[306]],[[8]],['low holistic'],['right'],['inverted'],['U0137.bmp'],['male'],[],['male'],[[1]],[[0.0496707]],SM
306,[[5]],[[307]],[[11]],['high holistic'],['left'],['inverted'],['U0164.bmp'],['female'],[],['male'],[[0]],[[0.09514321]],SM
307,[[5]],[[308]],[[8]],['low holistic'],['left'],['inverted'],['U0137.bmp'],['male'],[],['male'],[[1]],[[0.00029667]],SM
308,[[5]],[[309]],[[1]],['high holistic'],['left'],['inverted'],['U0006.bmp'],['female'],[],['female'],[[1]],[[0.00386211]],SM
309,[[5]],[[310]],[[6]],['low holistic'],['left'],['inverted'],['U0106.bmp'],['male'],[],['male'],[[1]],[[0.00037824]],SM
310,[[5]],[[311]],[[4]],['high holistic'],['left'],['upright'],['U0061.bmp'],['female'],[],['female'],[[1]],[[0.00055858]],SM
311,[[5]],[[312]],[[11]],['low holistic'],['fovea'],['upright'],['U0164.bmp'],['female'],[],['female'],[[1]],[[0.00011072]],SM
312,[[5]],[[313]],[[3]],['low holistic'],['left'],['inverted'],['U0020.bmp'],['female'],[],['male'],[[0]],[[0.06637612]],SM
313,[[5]],[[314]],[[7]],['high holistic'],['right'],['inverted'],['U0107.bmp'],['female'],[],['male'],[[0]],[[9.93418507e-05]],SM
314,[[5]],[[315]],[[6]],['high holistic'],['left'],['upright'],['U0106.bmp'],['female'],[],['female'],[[1]],[[0.00024495]],SM
315,[[5]],[[316]],[[9]],['low holistic'],['fovea'],['upright'],['U0155.bmp'],['male'],[],['female'],[[0]],[[0.0002499]],SM
316,[[5]],[[317]],[[12]],['low holistic'],['left'],['upright'],['U0178.bmp'],['female'],[],['male'],[[0]],[[0.00017248]],SM
317,[[5]],[[318]],[[20]],['high holistic'],['left'],['inverted'],['U0362.bmp'],['female'],[],['female'],[[1]],[[0.00019621]],SM
318,[[5]],[[319]],[[2]],['low holistic'],['left'],['upright'],['U0014.bmp'],['male'],[],['male'],[[1]],[[0.00012352]],SM
319,[[5]],[[320]],[[3]],['low holistic'],['left'],['inverted'],['U0020.bmp'],['female'],[],['female'],[[1]],[[0.00041239]],SM
320,[[5]],[[321]],[[13]],['high holistic'],['right'],['upright'],['U0181.bmp'],['female'],[],['male'],[[0]],[[0.00010099]],SM
321,[[5]],[[322]],[[3]],['low holistic'],['left'],['upright'],['U0020.bmp'],['female'],[],['male'],[[0]],[[0.07839033]],SM
322,[[5]],[[323]],[[8]],['low holistic'],['left'],['upright'],['U0137.bmp'],['male'],[],['male'],[[1]],[[1.64287795]],SM
323,[[5]],[[324]],[[19]],['low holistic'],['right'],['upright'],['U0361.bmp'],['female'],[],['female'],[[1]],[[1.88780653]],SM
324,[[5]],[[325]],[[20]],['high holistic'],['left'],['upright'],['U0362.bmp'],['female'],[],['female'],[[1]],[[0.10888952]],SM
325,[[5]],[[326]],[[14]],['low holistic'],['right'],['upright'],['U0228.bmp'],['male'],[],['female'],[[0]],[[9.79760662e-05]],SM
326,[[5]],[[327]],[[7]],['high holistic'],['fovea'],['upright'],['U0107.bmp'],['female'],[],['female'],[[1]],[[0.84844166]],SM
327,[[5]],[[328]],[[13]],['high holistic'],['right'],['upright'],['U0181.bmp'],['female'],[],['male'],[[0]],[[1.69478696]],SM
328,[[5]],[[329]],[[6]],['low holistic'],['right'],['inverted'],['U0106.bmp'],['male'],[],['male'],[[1]],[[0.18662321]],SM
329,[[5]],[[330]],[[18]],['high holistic'],['right'],['upright'],['U0359.bmp'],['male'],[],['female'],[[0]],[[0.00017545]],SM
330,[[5]],[[331]],[[6]],['low holistic'],['right'],['inverted'],['U0106.bmp'],['male'],[],['female'],[[0]],[[1.50622807]],SM
331,[[5]],[[332]],[[10]],['low holistic'],['left'],['upright'],['U0159.bmp'],['female'],[],['male'],[[0]],[[0.00019321]],SM
332,[[5]],[[333]],[[10]],['low holistic'],['left'],['upright'],['U0159.bmp'],['female'],[],['male'],[[0]],[[0.00010013]],SM
333,[[5]],[[334]],[[15]],['high holistic'],['left'],['inverted'],['U0312.bmp'],['male'],[],['female'],[[0]],[[0.00012691]],SM
334,[[5]],[[335]],[[9]],['high holistic'],['right'],['upright'],['U0155.bmp'],['female'],[],['male'],[[0]],[[9.95511655e-05]],SM
335,[[5]],[[336]],[[15]],['low holistic'],['fovea'],['upright'],['U0312.bmp'],['male'],[],['female'],[[0]],[[3.77250378]],SM
336,[[5]],[[337]],[[13]],['high holistic'],['left'],['inverted'],['U0181.bmp'],['female'],[],['female'],[[1]],[[1.04598561]],SM
337,[[5]],[[338]],[[13]],['high holistic'],['left'],['inverted'],['U0181.bmp'],['female'],[],['male'],[[0]],[[0.00010783]],SM
338,[[5]],[[339]],[[4]],['high holistic'],['right'],['inverted'],['U0061.bmp'],['female'],[],['male'],[[0]],[[0.02040288]],SM
339,[[5]],[[340]],[[6]],['high holistic'],['right'],['inverted'],['U0106.bmp'],['female'],[],['male'],[[0]],[[0.01224976]],SM
340,[[5]],[[341]],[[17]],['high holistic'],['left'],['inverted'],['U0346.bmp'],['male'],[],['male'],[[1]],[[0.0001008]],SM
341,[[5]],[[342]],[[4]],['high holistic'],['fovea'],['inverted'],['U0061.bmp'],['female'],[],['male'],[[0]],[[0.01861239]],SM
342,[[5]],[[343]],[[4]],['low holistic'],['left'],['inverted'],['U0061.bmp'],['female'],[],['male'],[[0]],[[0.00025655]],SM
343,[[5]],[[344]],[[19]],['low holistic'],['left'],['inverted'],['U0361.bmp'],['female'],[],['male'],[[0]],[[0.02660149]],SM
344,[[5]],[[345]],[[11]],['high holistic'],['left'],['inverted'],['U0164.bmp'],['female'],[],['male'],[[0]],[[9.98249743e-05]],SM
345,[[5]],[[346]],[[10]],['low holistic'],['right'],['inverted'],['U0159.bmp'],['female'],[],['male'],[[0]],[[1.03379763]],SM
346,[[5]],[[347]],[[11]],['low holistic'],['right'],['upright'],['U0164.bmp'],['female'],[],['male'],[[0]],[[0.00019668]],SM
347,[[5]],[[348]],[[18]],['low holistic'],['right'],['upright'],['U0359.bmp'],['male'],[],['male'],[[1]],[[0.00017949]],SM
348,[[5]],[[349]],[[9]],['low holistic'],['left'],['upright'],['U0155.bmp'],['male'],[],['male'],[[1]],[[1.4798685]],SM
349,[[5]],[[350]],[[18]],['low holistic'],['left'],['inverted'],['U0359.bmp'],['male'],[],['female'],[[0]],[[0.00025008]],SM
350,[[5]],[[351]],[[11]],['high holistic'],['fovea'],['upright'],['U0164.bmp'],['female'],[],['male'],[[0]],[[0.18883946]],SM
351,[[5]],[[352]],[[7]],['high holistic'],['right'],['upright'],['U0107.bmp'],['female'],[],['female'],[[1]],[[9.84868966e-05]],SM
352,[[5]],[[353]],[[3]],['high holistic'],['left'],['upright'],['U0020.bmp'],['male'],[],['female'],[[0]],[[0.25232489]],SM
353,[[5]],[[354]],[[11]],['low holistic'],['right'],['inverted'],['U0164.bmp'],['female'],[],['female'],[[1]],[[0.0002607]],SM
354,[[5]],[[355]],[[3]],['low holistic'],['left'],['inverted'],['U0020.bmp'],['female'],[],['male'],[[0]],[[0.00019394]],SM
355,[[5]],[[356]],[[19]],['high holistic'],['left'],['inverted'],['U0361.bmp'],['female'],[],['female'],[[1]],[[0.7220644]],SM
356,[[5]],[[357]],[[3]],['low holistic'],['left'],['upright'],['U0020.bmp'],['female'],[],['female'],[[1]],[[9.90091357e-05]],SM
357,[[5]],[[358]],[[17]],['high holistic'],['left'],['upright'],['U0346.bmp'],['male'],[],['female'],[[0]],[[0.02257232]],SM
358,[[5]],[[359]],[[14]],['high holistic'],['right'],['upright'],['U0228.bmp'],['male'],[],['female'],[[0]],[[0.00012808]],SM
359,[[5]],[[360]],[[7]],['high holistic'],['left'],['inverted'],['U0107.bmp'],['female'],[],['female'],[[1]],[[0.01262053]],SM
360,[[5]],[[361]],[[1]],['low holistic'],['left'],['upright'],['U0006.bmp'],['female'],[],['female'],[[1]],[[0.00013395]],SM
361,[[5]],[[362]],[[16]],['low holistic'],['left'],['inverted'],['U0335.bmp'],['female'],[],['male'],[[0]],[[0.00026773]],SM
362,[[5]],[[363]],[[10]],['high holistic'],['fovea'],['upright'],['U0159.bmp'],['male'],[],['female'],[[0]],[[0.00038929]],SM
363,[[5]],[[364]],[[7]],['high holistic'],['right'],['inverted'],['U0107.bmp'],['female'],[],['male'],[[0]],[[0.00019032]],SM
364,[[5]],[[365]],[[4]],['high holistic'],['right'],['upright'],['U0061.bmp'],['female'],[],['female'],[[1]],[[0.00030465]],SM
365,[[5]],[[366]],[[5]],['high holistic'],['left'],['inverted'],['U0076.bmp'],['female'],[],['female'],[[1]],[[0.00023494]],SM
366,[[5]],[[367]],[[3]],['low holistic'],['right'],['inverted'],['U0020.bmp'],['female'],[],['female'],[[1]],[[0.14677078]],SM
367,[[5]],[[368]],[[7]],['low holistic'],['right'],['inverted'],['U0107.bmp'],['female'],[],['male'],[[0]],[[0.11698118]],SM
368,[[5]],[[369]],[[11]],['low holistic'],['left'],['inverted'],['U0164.bmp'],['female'],[],['female'],[[1]],[[0.00011011]],SM
369,[[5]],[[370]],[[19]],['high holistic'],['left'],['inverted'],['U0361.bmp'],['female'],[],['female'],[[1]],[[0.0001739]],SM
370,[[5]],[[371]],[[8]],['high holistic'],['right'],['upright'],['U0137.bmp'],['female'],[],['male'],[[0]],[[0.0001298]],SM
371,[[5]],[[372]],[[3]],['high holistic'],['left'],['upright'],['U0020.bmp'],['male'],[],['male'],[[1]],[[9.86319501e-05]],SM
372,[[5]],[[373]],[[3]],['low holistic'],['left'],['upright'],['U0020.bmp'],['female'],[],['female'],[[1]],[[0.00029197]],SM
373,[[5]],[[374]],[[3]],['low holistic'],['left'],['inverted'],['U0020.bmp'],['female'],[],['female'],[[1]],[[0.00021156]],SM
374,[[5]],[[375]],[[16]],['high holistic'],['left'],['upright'],['U0335.bmp'],['female'],[],['female'],[[1]],[[0.00016461]],SM
375,[[5]],[[376]],[[14]],['high holistic'],['left'],['inverted'],['U0228.bmp'],['male'],[],['female'],[[0]],[[9.81988851e-05]],SM
376,[[5]],[[377]],[[8]],['low holistic'],['right'],['inverted'],['U0137.bmp'],['male'],[],['female'],[[0]],[[0.00023454]],SM
377,[[5]],[[378]],[[10]],['high holistic'],['fovea'],['upright'],['U0159.bmp'],['male'],[],['female'],[[0]],[[0.78434777]],SM
378,[[5]],[[379]],[[9]],['high holistic'],['left'],['inverted'],['U0155.bmp'],['female'],[],['male'],[[0]],[[2.13625786]],SM
379,[[5]],[[380]],[[17]],['high holistic'],['left'],['upright'],['U0346.bmp'],['male'],[],['male'],[[1]],[[0.02875984]],SM
380,[[5]],[[381]],[[9]],['low holistic'],['left'],['upright'],['U0155.bmp'],['male'],[],['male'],[[1]],[[9.80149489e-05]],SM
381,[[5]],[[382]],[[8]],['low holistic'],['right'],['inverted'],['U0137.bmp'],['male'],[],['female'],[[0]],[[0.00280518]],SM
382,[[5]],[[383]],[[15]],['high holistic'],['right'],['inverted'],['U0312.bmp'],['male'],[],['female'],[[0]],[[0.00035409]],SM
383,[[5]],[[384]],[[17]],['high holistic'],['right'],['inverted'],['U0346.bmp'],['male'],[],['male'],[[1]],[[0.01894228]],SM
384,[[5]],[[385]],[[7]],['high holistic'],['left'],['inverted'],['U0107.bmp'],['female'],[],['male'],[[0]],[[0.00158367]],SM
385,[[5]],[[386]],[[18]],['high holistic'],['left'],['upright'],['U0359.bmp'],['male'],[],['female'],[[0]],[[0.00012125]],SM
386,[[5]],[[387]],[[16]],['low holistic'],['right'],['inverted'],['U0335.bmp'],['female'],[],['female'],[[1]],[[0.00012676]],SM
387,[[5]],[[388]],[[1]],['low holistic'],['left'],['inverted'],['U0006.bmp'],['female'],[],['male'],[[0]],[[0.02497848]],SM
388,[[5]],[[389]],[[16]],['low holistic'],['right'],['inverted'],['U0335.bmp'],['female'],[],['male'],[[0]],[[0.00010011]],SM
389,[[5]],[[390]],[[7]],['high holistic'],['left'],['inverted'],['U0107.bmp'],['female'],[],['female'],[[1]],[[0.00020708]],SM
390,[[5]],[[391]],[[18]],['low holistic'],['right'],['upright'],['U0359.bmp'],['male'],[],['female'],[[0]],[[0.00011587]],SM
391,[[5]],[[392]],[[4]],['low holistic'],['right'],['upright'],['U0061.bmp'],['female'],[],['female'],[[1]],[[0.4324719]],SM
392,[[5]],[[393]],[[7]],['low holistic'],['left'],['upright'],['U0107.bmp'],['female'],[],['female'],[[1]],[[0.06368403]],SM
393,[[5]],[[394]],[[20]],['high holistic'],['right'],['upright'],['U0362.bmp'],['female'],[],['female'],[[1]],[[9.96859744e-05]],SM
394,[[5]],[[395]],[[16]],['low holistic'],['left'],['upright'],['U0335.bmp'],['female'],[],['female'],[[1]],[[0.00015366]],SM
395,[[5]],[[396]],[[10]],['low holistic'],['right'],['inverted'],['U0159.bmp'],['female'],[],['female'],[[1]],[[0.00020953]],SM
396,[[5]],[[397]],[[13]],['high holistic'],['right'],['inverted'],['U0181.bmp'],['female'],[],['female'],[[1]],[[5.68384142]],SM
397,[[5]],[[398]],[[8]],['low holistic'],['right'],['upright'],['U0137.bmp'],['male'],[],['female'],[[0]],[[0.00012101]],SM
398,[[5]],[[399]],[[7]],['high holistic'],['left'],['inverted'],['U0107.bmp'],['female'],[],['female'],[[1]],[[0.08022793]],SM
399,[[5]],[[400]],[[3]],['low holistic'],['left'],['upright'],['U0020.bmp'],['female'],[],['male'],[[0]],[[0.01264802]],SM
400,[[5]],[[401]],[[4]],['low holistic'],['left'],['upright'],['U0061.bmp'],['female'],[],['female'],[[1]],[[0.00020097]],SM
401,[[5]],[[402]],[[1]],['low holistic'],['fovea'],['upright'],['U0006.bmp'],['female'],[],['female'],[[1]],[[0.00019328]],SM
402,[[5]],[[403]],[[8]],['low holistic'],['left'],['upright'],['U0137.bmp'],['male'],[],['female'],[[0]],[[0.00010003]],SM
403,[[5]],[[404]],[[16]],['high holistic'],['right'],['inverted'],['U0335.bmp'],['female'],[],['female'],[[1]],[[0.00010745]],SM
404,[[5]],[[405]],[[9]],['high holistic'],['right'],['upright'],['U0155.bmp'],['female'],[],['female'],[[1]],[[0.00018694]],SM
405,[[5]],[[406]],[[20]],['high holistic'],['fovea'],['inverted'],['U0362.bmp'],['female'],[],['male'],[[0]],[[0.05299102]],SM
406,[[5]],[[407]],[[5]],['high holistic'],['right'],['upright'],['U0076.bmp'],['female'],[],['female'],[[1]],[[0.00017798]],SM
407,[[5]],[[408]],[[17]],['low holistic'],['right'],['inverted'],['U0346.bmp'],['female'],[],['female'],[[1]],[[0.93840613]],SM
408,[[5]],[[409]],[[20]],['high holistic'],['left'],['upright'],['U0362.bmp'],['female'],[],['male'],[[0]],[[0.00017312]],SM
409,[[5]],[[410]],[[4]],['low holistic'],['fovea'],['upright'],['U0061.bmp'],['female'],[],['female'],[[1]],[[2.75747636]],SM
410,[[5]],[[411]],[[19]],['low holistic'],['left'],['inverted'],['U0361.bmp'],['female'],[],['male'],[[0]],[[0.08551191]],SM
411,[[5]],[[412]],[[7]],['low holistic'],['right'],['upright'],['U0107.bmp'],['female'],[],['female'],[[1]],[[0.00046463]],SM
412,[[5]],[[413]],[[20]],['low holistic'],['left'],['upright'],['U0362.bmp'],['male'],[],['male'],[[1]],[[0.00015924]],SM
413,[[5]],[[414]],[[20]],['low holistic'],['left'],['upright'],['U0362.bmp'],['male'],[],['female'],[[0]],[[0.00015109]],SM
414,[[5]],[[415]],[[5]],['low holistic'],['left'],['inverted'],['U0076.bmp'],['male'],[],['male'],[[1]],[[0.00164376]],SM
415,[[5]],[[416]],[[4]],['low holistic'],['left'],['inverted'],['U0061.bmp'],['female'],[],['female'],[[1]],[[0.00029106]],SM
416,[[5]],[[417]],[[11]],['low holistic'],['right'],['upright'],['U0164.bmp'],['female'],[],['female'],[[1]],[[0.00011874]],SM
417,[[5]],[[418]],[[19]],['low holistic'],['left'],['upright'],['U0361.bmp'],['female'],[],['female'],[[1]],[[0.0093356]],SM
418,[[5]],[[419]],[[1]],['high holistic'],['right'],['inverted'],['U0006.bmp'],['female'],[],['male'],[[0]],[[0.03302824]],SM
419,[[5]],[[420]],[[10]],['high holistic'],['right'],['inverted'],['U0159.bmp'],['male'],[],['male'],[[1]],[[0.00035519]],SM
420,[[5]],[[421]],[[8]],['low holistic'],['right'],['upright'],['U0137.bmp'],['male'],[],['male'],[[1]],[[0.00022755]],SM
421,[[5]],[[422]],[[4]],['low holistic'],['right'],['inverted'],['U0061.bmp'],['female'],[],['female'],[[1]],[[0.00011406]],SM
422,[[5]],[[423]],[[7]],['low holistic'],['fovea'],['upright'],['U0107.bmp'],['female'],[],['female'],[[1]],[[0.06808571]],SM
423,[[5]],[[424]],[[18]],['low holistic'],['left'],['upright'],['U0359.bmp'],['male'],[],['female'],[[0]],[[9.72058624e-05]],SM
424,[[5]],[[425]],[[11]],['high holistic'],['right'],['inverted'],['U0164.bmp'],['female'],[],['female'],[[1]],[[0.00039763]],SM
425,[[5]],[[426]],[[2]],['low holistic'],['right'],['inverted'],['U0014.bmp'],['male'],[],['female'],[[0]],[[0.00010649]],SM
426,[[5]],[[427]],[[18]],['high holistic'],['left'],['upright'],['U0359.bmp'],['male'],[],['male'],[[1]],[[0.00013454]],SM
427,[[5]],[[428]],[[12]],['low holistic'],['right'],['upright'],['U0178.bmp'],['female'],[],['male'],[[0]],[[0.07237967]],SM
428,[[5]],[[429]],[[8]],['low holistic'],['right'],['inverted'],['U0137.bmp'],['male'],[],['female'],[[0]],[[4.47683093]],SM
429,[[5]],[[430]],[[1]],['low holistic'],['right'],['upright'],['U0006.bmp'],['female'],[],['male'],[[0]],[[0.00026986]],SM
430,[[5]],[[431]],[[3]],['low holistic'],['left'],['upright'],['U0020.bmp'],['female'],[],['female'],[[1]],[[0.0001058]],SM
431,[[5]],[[432]],[[8]],['high holistic'],['left'],['inverted'],['U0137.bmp'],['female'],[],['female'],[[1]],[[9.97949392e-05]],SM
432,[[5]],[[433]],[[6]],['high holistic'],['right'],['upright'],['U0106.bmp'],['female'],[],['female'],[[1]],[[0.00024849]],SM
433,[[5]],[[434]],[[11]],['high holistic'],['left'],['upright'],['U0164.bmp'],['female'],[],['female'],[[1]],[[0.19169983]],SM
434,[[5]],[[435]],[[17]],['high holistic'],['right'],['inverted'],['U0346.bmp'],['male'],[],['female'],[[0]],[[0.02467622]],SM
435,[[5]],[[436]],[[12]],['low holistic'],['left'],['inverted'],['U0178.bmp'],['female'],[],['female'],[[1]],[[0.00017903]],SM
436,[[5]],[[437]],[[11]],['low holistic'],['left'],['upright'],['U0164.bmp'],['female'],[],['female'],[[1]],[[0.18188983]],SM
437,[[5]],[[438]],[[17]],['low holistic'],['right'],['inverted'],['U0346.bmp'],['female'],[],['female'],[[1]],[[0.13610759]],SM
438,[[5]],[[439]],[[11]],['low holistic'],['left'],['inverted'],['U0164.bmp'],['female'],[],['female'],[[1]],[[0.00031438]],SM
439,[[5]],[[440]],[[1]],['low holistic'],['left'],['inverted'],['U0006.bmp'],['female'],[],['female'],[[1]],[[0.1045058]],SM
440,[[5]],[[441]],[[8]],['low holistic'],['right'],['inverted'],['U0137.bmp'],['male'],[],['female'],[[0]],[[0.07831035]],SM
441,[[5]],[[442]],[[14]],['low holistic'],['left'],['inverted'],['U0228.bmp'],['male'],[],['female'],[[0]],[[0.03501423]],SM
442,[[5]],[[443]],[[16]],['low holistic'],['right'],['upright'],['U0335.bmp'],['female'],[],['female'],[[1]],[[0.00739185]],SM
443,[[5]],[[444]],[[4]],['high holistic'],['right'],['inverted'],['U0061.bmp'],['female'],[],['female'],[[1]],[[0.04781863]],SM
444,[[5]],[[445]],[[10]],['low holistic'],['fovea'],['upright'],['U0159.bmp'],['female'],[],['male'],[[0]],[[0.47977161]],SM
445,[[5]],[[446]],[[9]],['high holistic'],['right'],['inverted'],['U0155.bmp'],['female'],[],['female'],[[1]],[[0.24327284]],SM
446,[[5]],[[447]],[[8]],['low holistic'],['fovea'],['upright'],['U0137.bmp'],['male'],[],['female'],[[0]],[[0.00019686]],SM
447,[[5]],[[448]],[[20]],['low holistic'],['right'],['upright'],['U0362.bmp'],['male'],[],['female'],[[0]],[[0.04954336]],SM
448,[[5]],[[449]],[[15]],['low holistic'],['fovea'],['inverted'],['U0312.bmp'],['male'],[],['female'],[[0]],[[0.12766354]],SM
449,[[5]],[[450]],[[8]],['low holistic'],['left'],['upright'],['U0137.bmp'],['male'],[],['female'],[[0]],[[0.08368696]],SM
450,[[5]],[[451]],[[12]],['high holistic'],['right'],['upright'],['U0178.bmp'],['male'],[],['female'],[[0]],[[0.00012272]],SM
451,[[5]],[[452]],[[7]],['low holistic'],['left'],['inverted'],['U0107.bmp'],['female'],[],['female'],[[1]],[[9.79830511e-05]],SM
452,[[5]],[[453]],[[14]],['high holistic'],['left'],['upright'],['U0228.bmp'],['male'],[],['female'],[[0]],[[9.8529039e-05]],SM
453,[[5]],[[454]],[[11]],['low holistic'],['left'],['inverted'],['U0164.bmp'],['female'],[],['female'],[[1]],[[0.00019385]],SM
454,[[5]],[[455]],[[9]],['low holistic'],['left'],['inverted'],['U0155.bmp'],['male'],[],['female'],[[0]],[[0.0002032]],SM
455,[[5]],[[456]],[[2]],['low holistic'],['right'],['upright'],['U0014.bmp'],['male'],[],['female'],[[0]],[[0.14316497]],SM
456,[[5]],[[457]],[[19]],['high holistic'],['right'],['upright'],['U0361.bmp'],['female'],[],['female'],[[1]],[[0.00034668]],SM
457,[[5]],[[458]],[[10]],['low holistic'],['right'],['inverted'],['U0159.bmp'],['female'],[],['female'],[[1]],[[0.11242161]],SM
458,[[5]],[[459]],[[2]],['low holistic'],['right'],['inverted'],['U0014.bmp'],['male'],[],['female'],[[0]],[[0.2910755]],SM
459,[[5]],[[460]],[[3]],['high holistic'],['left'],['inverted'],['U0020.bmp'],['male'],[],['female'],[[0]],[[0.07134926]],SM
460,[[5]],[[461]],[[19]],['low holistic'],['right'],['inverted'],['U0361.bmp'],['female'],[],['female'],[[1]],[[0.02905642]],SM
461,[[5]],[[462]],[[10]],['high holistic'],['left'],['inverted'],['U0159.bmp'],['male'],[],['female'],[[0]],[[0.00019209]],SM
462,[[5]],[[463]],[[10]],['high holistic'],['right'],['upright'],['U0159.bmp'],['male'],[],['female'],[[0]],[[0.00016722]],SM
463,[[5]],[[464]],[[13]],['high holistic'],['fovea'],['inverted'],['U0181.bmp'],['female'],[],['female'],[[1]],[[0.12865199]],SM
464,[[5]],[[465]],[[6]],['high holistic'],['left'],['inverted'],['U0106.bmp'],['female'],[],['female'],[[1]],[[0.04538284]],SM
465,[[5]],[[466]],[[10]],['high holistic'],['left'],['upright'],['U0159.bmp'],['male'],[],['female'],[[0]],[[0.14546466]],SM
466,[[5]],[[467]],[[15]],['high holistic'],['left'],['inverted'],['U0312.bmp'],['male'],[],['female'],[[0]],[[0.00023477]],SM
467,[[5]],[[468]],[[18]],['high holistic'],['right'],['upright'],['U0359.bmp'],['male'],[],['female'],[[0]],[[0.00518216]],SM
468,[[5]],[[469]],[[15]],['low holistic'],['right'],['upright'],['U0312.bmp'],['male'],[],['female'],[[0]],[[0.0212456]],SM
469,[[5]],[[470]],[[7]],['low holistic'],['right'],['inverted'],['U0107.bmp'],['female'],[],['female'],[[1]],[[0.13174554]],SM
470,[[5]],[[471]],[[4]],['low holistic'],['left'],['inverted'],['U0061.bmp'],['female'],[],['female'],[[1]],[[0.08647796]],SM
471,[[5]],[[472]],[[10]],['high holistic'],['right'],['upright'],['U0159.bmp'],['male'],[],['female'],[[0]],[[0.00010582]],SM
472,[[5]],[[473]],[[12]],['low holistic'],['left'],['upright'],['U0178.bmp'],['female'],[],['female'],[[1]],[[0.12332378]],SM
473,[[5]],[[474]],[[14]],['low holistic'],['right'],['inverted'],['U0228.bmp'],['male'],[],['female'],[[0]],[[0.00020187]],SM
474,[[5]],[[475]],[[4]],['low holistic'],['left'],['inverted'],['U0061.bmp'],['female'],[],['female'],[[1]],[[0.00012257]],SM
475,[[5]],[[476]],[[8]],['low holistic'],['right'],['inverted'],['U0137.bmp'],['male'],[],['female'],[[0]],[[0.09252866]],SM
476,[[5]],[[477]],[[14]],['high holistic'],['left'],['upright'],['U0228.bmp'],['male'],[],['female'],[[0]],[[0.00015897]],SM
477,[[5]],[[478]],[[5]],['low holistic'],['left'],['upright'],['U0076.bmp'],['male'],[],['female'],[[0]],[[0.00020688]],SM
478,[[5]],[[479]],[[11]],['low holistic'],['right'],['upright'],['U0164.bmp'],['female'],[],['female'],[[1]],[[0.00019393]],SM
479,[[5]],[[480]],[[9]],['low holistic'],['left'],['upright'],['U0155.bmp'],['male'],[],['female'],[[0]],[[0.40747501]],SM
480,[[5]],[[481]],[[10]],['high holistic'],['left'],['inverted'],['U0159.bmp'],['male'],[],['female'],[[0]],[[0.00015484]],SM
481,[[5]],[[482]],[[18]],['high holistic'],['left'],['inverted'],['U0359.bmp'],['male'],[],['female'],[[0]],[[0.00017749]],SM
482,[[5]],[[483]],[[20]],['high holistic'],['right'],['upright'],['U0362.bmp'],['female'],[],['female'],[[1]],[[0.00012392]],SM
483,[[5]],[[484]],[[13]],['low holistic'],['left'],['upright'],['U0181.bmp'],['male'],[],['female'],[[0]],[[0.05454349]],SM
484,[[5]],[[485]],[[20]],['high holistic'],['right'],['upright'],['U0362.bmp'],['female'],[],['female'],[[1]],[[0.13190536]],SM
485,[[5]],[[486]],[[20]],['high holistic'],['right'],['upright'],['U0362.bmp'],['female'],[],['female'],[[1]],[[0.00012035]],SM
486,[[5]],[[487]],[[7]],['low holistic'],['right'],['upright'],['U0107.bmp'],['female'],[],['female'],[[1]],[[0.06198293]],SM
487,[[5]],[[488]],[[9]],['high holistic'],['left'],['upright'],['U0155.bmp'],['female'],[],['female'],[[1]],[[0.00014186]],SM
488,[[5]],[[489]],[[11]],['high holistic'],['left'],['inverted'],['U0164.bmp'],['female'],[],['female'],[[1]],[[9.80379991e-05]],SM
489,[[5]],[[490]],[[19]],['high holistic'],['left'],['inverted'],['U0361.bmp'],['female'],[],['female'],[[1]],[[0.06715191]],SM
490,[[5]],[[491]],[[18]],['high holistic'],['right'],['inverted'],['U0359.bmp'],['male'],[],['female'],[[0]],[[9.85520892e-05]],SM
491,[[5]],[[492]],[[7]],['low holistic'],['left'],['upright'],['U0107.bmp'],['female'],[],['female'],[[1]],[[0.02299734]],SM
492,[[5]],[[493]],[[5]],['low holistic'],['right'],['inverted'],['U0076.bmp'],['male'],[],['female'],[[0]],[[9.77078453e-05]],SM
493,[[5]],[[494]],[[10]],['low holistic'],['right'],['inverted'],['U0159.bmp'],['female'],[],['female'],[[1]],[[0.00018562]],SM
494,[[5]],[[495]],[[9]],['high holistic'],['left'],['upright'],['U0155.bmp'],['female'],[],['female'],[[1]],[[0.5974252]],SM
495,[[5]],[[496]],[[18]],['high holistic'],['right'],['inverted'],['U0359.bmp'],['male'],[],['female'],[[0]],[[0.18990634]],SM
496,[[5]],[[497]],[[5]],['low holistic'],['left'],['inverted'],['U0076.bmp'],['male'],[],['female'],[[0]],[[0.05450783]],SM
497,[[5]],[[498]],[[18]],['low holistic'],['left'],['inverted'],['U0359.bmp'],['male'],[],['female'],[[0]],[[0.17136918]],SM
498,[[5]],[[499]],[[16]],['high holistic'],['right'],['inverted'],['U0335.bmp'],['female'],[],['female'],[[1]],[[0.0289645]],SM
499,[[5]],[[500]],[[19]],['high holistic'],['right'],['inverted'],['U0361.bmp'],['female'],[],['female'],[[1]],[[0.00019945]],SM
500,[[5]],[[501]],[[19]],['low holistic'],['right'],['inverted'],['U0361.bmp'],['female'],[],['female'],[[1]],[[0.08985042]],SM
501,[[5]],[[502]],[[17]],['high holistic'],['right'],['upright'],['U0346.bmp'],['male'],[],['female'],[[0]],[[0.00020412]],SM
502,[[5]],[[503]],[[10]],['high holistic'],['left'],['inverted'],['U0159.bmp'],['male'],[],['female'],[[0]],[[0.00016314]],SM
503,[[5]],[[504]],[[15]],['low holistic'],['right'],['upright'],['U0312.bmp'],['male'],[],['female'],[[0]],[[0.00012896]],SM
504,[[5]],[[505]],[[4]],['low holistic'],['left'],['upright'],['U0061.bmp'],['female'],[],['female'],[[1]],[[0.11726123]],SM
505,[[5]],[[506]],[[4]],['low holistic'],['fovea'],['inverted'],['U0061.bmp'],['female'],[],['female'],[[1]],[[0.13586136]],SM
506,[[5]],[[507]],[[9]],['low holistic'],['left'],['upright'],['U0155.bmp'],['male'],[],['female'],[[0]],[[0.0825773]],SM
507,[[5]],[[508]],[[11]],['high holistic'],['left'],['upright'],['U0164.bmp'],['female'],[],['female'],[[1]],[[0.03726453]],SM
508,[[5]],[[509]],[[9]],['low holistic'],['left'],['inverted'],['U0155.bmp'],['male'],[],['female'],[[0]],[[9.72689595e-05]],SM
509,[[5]],[[510]],[[5]],['high holistic'],['left'],['inverted'],['U0076.bmp'],['female'],[],['female'],[[1]],[[0.05240652]],SM
510,[[5]],[[511]],[[18]],['low holistic'],['left'],['inverted'],['U0359.bmp'],['male'],[],['female'],[[0]],[[0.00014292]],SM
511,[[5]],[[512]],[[7]],['high holistic'],['right'],['inverted'],['U0107.bmp'],['female'],[],['female'],[[1]],[[0.00016702]],SM
512,[[5]],[[513]],[[19]],['low holistic'],['right'],['upright'],['U0361.bmp'],['female'],[],['female'],[[1]],[[0.08161059]],SM
513,[[5]],[[514]],[[11]],['high holistic'],['left'],['upright'],['U0164.bmp'],['female'],[],['female'],[[1]],[[0.20529123]],SM
514,[[5]],[[515]],[[19]],['low holistic'],['left'],['upright'],['U0361.bmp'],['female'],[],['male'],[[0]],[[0.09273768]],SM
515,[[5]],[[516]],[[5]],['high holistic'],['left'],['upright'],['U0076.bmp'],['female'],[],['male'],[[0]],[[0.04922971]],SM
516,[[5]],[[517]],[[7]],['low holistic'],['left'],['upright'],['U0107.bmp'],['female'],[],['male'],[[0]],[[0.09499887]],SM
517,[[5]],[[518]],[[4]],['high holistic'],['left'],['inverted'],['U0061.bmp'],['female'],[],['male'],[[0]],[[0.00020267]],SM
518,[[5]],[[519]],[[11]],['low holistic'],['right'],['inverted'],['U0164.bmp'],['female'],[],['male'],[[0]],[[0.00015791]],SM
519,[[5]],[[520]],[[19]],['low holistic'],['left'],['upright'],['U0361.bmp'],['female'],[],['male'],[[0]],[[6.78562126]],SM
520,[[5]],[[521]],[[13]],['high holistic'],['right'],['upright'],['U0181.bmp'],['female'],[],['male'],[[0]],[[0.00023102]],SM
521,[[5]],[[522]],[[13]],['low holistic'],['right'],['upright'],['U0181.bmp'],['male'],[],['male'],[[1]],[[0.10303478]],SM
522,[[5]],[[523]],[[11]],['low holistic'],['right'],['upright'],['U0164.bmp'],['female'],[],['male'],[[0]],[[0.09217068]],SM
523,[[5]],[[524]],[[11]],['low holistic'],['left'],['inverted'],['U0164.bmp'],['female'],[],['female'],[[1]],[[1.95855007]],SM
524,[[5]],[[525]],[[15]],['low holistic'],['left'],['inverted'],['U0312.bmp'],['male'],[],['female'],[[0]],[[0.00022517]],SM
525,[[5]],[[526]],[[16]],['low holistic'],['left'],['inverted'],['U0335.bmp'],['female'],[],['male'],[[0]],[[0.00014852]],SM
526,[[5]],[[527]],[[10]],['high holistic'],['right'],['upright'],['U0159.bmp'],['male'],[],['female'],[[0]],[[0.00014084]],SM
527,[[5]],[[528]],[[20]],['low holistic'],['right'],['inverted'],['U0362.bmp'],['male'],[],['female'],[[0]],[[0.0002236]],SM
528,[[5]],[[529]],[[13]],['low holistic'],['fovea'],['upright'],['U0181.bmp'],['male'],[],['female'],[[0]],[[0.00546901]],SM
529,[[5]],[[530]],[[5]],['low holistic'],['right'],['inverted'],['U0076.bmp'],['male'],[],['female'],[[0]],[[0.00034796]],SM
530,[[5]],[[531]],[[15]],['low holistic'],['right'],['upright'],['U0312.bmp'],['male'],[],['male'],[[1]],[[9.67711676e-05]],SM
531,[[5]],[[532]],[[13]],['high holistic'],['left'],['upright'],['U0181.bmp'],['female'],[],['male'],[[0]],[[0.01375454]],SM
532,[[5]],[[533]],[[14]],['low holistic'],['left'],['inverted'],['U0228.bmp'],['male'],[],['male'],[[1]],[[0.00030365]],SM
533,[[5]],[[534]],[[5]],['high holistic'],['right'],['inverted'],['U0076.bmp'],['female'],[],['female'],[[1]],[[0.00014864]],SM
534,[[5]],[[535]],[[11]],['high holistic'],['left'],['upright'],['U0164.bmp'],['female'],[],['female'],[[1]],[[0.01162269]],SM
535,[[5]],[[536]],[[17]],['low holistic'],['right'],['inverted'],['U0346.bmp'],['female'],[],['female'],[[1]],[[0.00011897]],SM
536,[[5]],[[537]],[[12]],['high holistic'],['left'],['inverted'],['U0178.bmp'],['male'],[],['female'],[[0]],[[0.06737072]],SM
537,[[5]],[[538]],[[20]],['high holistic'],['left'],['upright'],['U0362.bmp'],['female'],[],['female'],[[1]],[[0.02258891]],SM
538,[[5]],[[539]],[[2]],['low holistic'],['right'],['upright'],['U0014.bmp'],['male'],[],['female'],[[0]],[[0.00013832]],SM
539,[[5]],[[540]],[[10]],['high holistic'],['right'],['upright'],['U0159.bmp'],['male'],[],['female'],[[0]],[[0.00028389]],SM
540,[[5]],[[541]],[[4]],['low holistic'],['left'],['inverted'],['U0061.bmp'],['female'],[],['female'],[[1]],[[0.00047361]],SM
541,[[5]],[[542]],[[9]],['high holistic'],['left'],['upright'],['U0155.bmp'],['female'],[],['female'],[[1]],[[0.029347]],SM
542,[[5]],[[543]],[[12]],['low holistic'],['right'],['inverted'],['U0178.bmp'],['female'],[],['male'],[[0]],[[0.00021227]],SM
543,[[5]],[[544]],[[20]],['low holistic'],['left'],['upright'],['U0362.bmp'],['male'],[],['male'],[[1]],[[0.00020171]],SM
544,[[5]],[[545]],[[6]],['high holistic'],['left'],['upright'],['U0106.bmp'],['female'],[],['female'],[[1]],[[0.00025652]],SM
545,[[5]],[[546]],[[15]],['high holistic'],['fovea'],['upright'],['U0312.bmp'],['male'],[],['female'],[[0]],[[0.00037905]],SM
546,[[5]],[[547]],[[11]],['high holistic'],['right'],['inverted'],['U0164.bmp'],['female'],[],['female'],[[1]],[[0.28321341]],SM
547,[[5]],[[548]],[[15]],['low holistic'],['right'],['inverted'],['U0312.bmp'],['male'],[],['female'],[[0]],[[0.26290527]],SM
548,[[5]],[[549]],[[6]],['high holistic'],['right'],['upright'],['U0106.bmp'],['female'],[],['female'],[[1]],[[0.25179938]],SM
549,[[5]],[[550]],[[17]],['low holistic'],['right'],['inverted'],['U0346.bmp'],['female'],[],['male'],[[0]],[[0.2165307]],SM
550,[[5]],[[551]],[[6]],['low holistic'],['left'],['inverted'],['U0106.bmp'],['male'],[],['female'],[[0]],[[0.19273887]],SM
551,[[5]],[[552]],[[1]],['high holistic'],['left'],['inverted'],['U0006.bmp'],['female'],[],['male'],[[0]],[[0.10317305]],SM
552,[[5]],[[553]],[[14]],['high holistic'],['right'],['upright'],['U0228.bmp'],['male'],[],['female'],[[0]],[[0.01834549]],SM
553,[[5]],[[554]],[[2]],['low holistic'],['left'],['inverted'],['U0014.bmp'],['male'],[],['female'],[[0]],[[0.00042883]],SM
554,[[5]],[[555]],[[8]],['high holistic'],['left'],['upright'],['U0137.bmp'],['female'],[],['male'],[[0]],[[0.01043097]],SM
555,[[5]],[[556]],[[2]],['high holistic'],['left'],['inverted'],['U0014.bmp'],['male'],[],['male'],[[1]],[[0.00024918]],SM
556,[[5]],[[557]],[[2]],['high holistic'],['left'],['upright'],['U0014.bmp'],['male'],[],['male'],[[1]],[[0.05730678]],SM
557,[[5]],[[558]],[[9]],['high holistic'],['right'],['inverted'],['U0155.bmp'],['female'],[],['female'],[[1]],[[0.00048489]],SM
558,[[5]],[[559]],[[18]],['high holistic'],['left'],['inverted'],['U0359.bmp'],['male'],[],['male'],[[1]],[[0.00022667]],SM
559,[[5]],[[560]],[[6]],['high holistic'],['right'],['upright'],['U0106.bmp'],['female'],[],['female'],[[1]],[[0.0002253]],SM
560,[[5]],[[561]],[[9]],['high holistic'],['right'],['inverted'],['U0155.bmp'],['female'],[],['female'],[[1]],[[0.00022191]],SM
561,[[5]],[[562]],[[3]],['low holistic'],['right'],['inverted'],['U0020.bmp'],['female'],[],['female'],[[1]],[[0.07700626]],SM
562,[[5]],[[563]],[[20]],['high holistic'],['right'],['inverted'],['U0362.bmp'],['female'],[],['male'],[[0]],[[9.94130969e-05]],SM
563,[[5]],[[564]],[[20]],['high holistic'],['left'],['inverted'],['U0362.bmp'],['female'],[],['male'],[[0]],[[3.90596625]],SM
564,[[5]],[[565]],[[15]],['high holistic'],['left'],['inverted'],['U0312.bmp'],['male'],[],['male'],[[1]],[[0.04519986]],SM
565,[[5]],[[566]],[[2]],['low holistic'],['right'],['upright'],['U0014.bmp'],['male'],[],['female'],[[0]],[[0.00025245]],SM
566,[[5]],[[567]],[[16]],['low holistic'],['left'],['upright'],['U0335.bmp'],['female'],[],['female'],[[1]],[[0.00036212]],SM
567,[[5]],[[568]],[[2]],['high holistic'],['right'],['upright'],['U0014.bmp'],['male'],[],['male'],[[1]],[[0.00051694]],SM
568,[[5]],[[569]],[[9]],['high holistic'],['right'],['upright'],['U0155.bmp'],['female'],[],['male'],[[0]],[[0.00024665]],SM
569,[[5]],[[570]],[[16]],['high holistic'],['right'],['inverted'],['U0335.bmp'],['female'],[],['male'],[[0]],[[0.00012446]],SM
570,[[5]],[[571]],[[15]],['low holistic'],['right'],['upright'],['U0312.bmp'],['male'],[],['female'],[[0]],[[0.07250142]],SM
571,[[5]],[[572]],[[8]],['high holistic'],['left'],['inverted'],['U0137.bmp'],['female'],[],['male'],[[0]],[[0.00043796]],SM
572,[[5]],[[573]],[[2]],['low holistic'],['left'],['inverted'],['U0014.bmp'],['male'],[],['female'],[[0]],[[0.07727069]],SM
573,[[5]],[[574]],[[3]],['high holistic'],['right'],['upright'],['U0020.bmp'],['male'],[],['female'],[[0]],[[0.01038824]],SM
574,[[5]],[[575]],[[19]],['high holistic'],['left'],['upright'],['U0361.bmp'],['female'],[],['female'],[[1]],[[0.00015085]],SM
575,[[5]],[[576]],[[5]],['low holistic'],['left'],['inverted'],['U0076.bmp'],['male'],[],['female'],[[0]],[[0.00020841]],SM
576,[[5]],[[577]],[[16]],['low holistic'],['left'],['upright'],['U0335.bmp'],['female'],[],['male'],[[0]],[[0.0730544]],SM
577,[[5]],[[578]],[[3]],['high holistic'],['left'],['upright'],['U0020.bmp'],['male'],[],['female'],[[0]],[[0.00010055]],SM
578,[[5]],[[579]],[[19]],['low holistic'],['left'],['upright'],['U0361.bmp'],['female'],[],['female'],[[1]],[[0.00488746]],SM
579,[[5]],[[580]],[[12]],['low holistic'],['left'],['upright'],['U0178.bmp'],['female'],[],['female'],[[1]],[[0.00012872]],SM
580,[[5]],[[581]],[[8]],['high holistic'],['right'],['upright'],['U0137.bmp'],['female'],[],['male'],[[0]],[[0.07660095]],SM
581,[[5]],[[582]],[[5]],['low holistic'],['left'],['inverted'],['U0076.bmp'],['male'],[],['male'],[[1]],[[0.04877436]],SM
582,[[5]],[[583]],[[20]],['low holistic'],['right'],['upright'],['U0362.bmp'],['male'],[],['female'],[[0]],[[0.00050651]],SM
583,[[5]],[[584]],[[14]],['high holistic'],['right'],['upright'],['U0228.bmp'],['male'],[],['female'],[[0]],[[0.00047463]],SM
584,[[5]],[[585]],[[2]],['low holistic'],['right'],['upright'],['U0014.bmp'],['male'],[],['female'],[[0]],[[0.01387432]],SM
585,[[5]],[[586]],[[13]],['low holistic'],['right'],['inverted'],['U0181.bmp'],['male'],[],['male'],[[1]],[[0.00012919]],SM
586,[[5]],[[587]],[[9]],['low holistic'],['right'],['inverted'],['U0155.bmp'],['male'],[],['female'],[[0]],[[0.00025962]],SM
587,[[5]],[[588]],[[12]],['high holistic'],['right'],['upright'],['U0178.bmp'],['male'],[],['male'],[[1]],[[0.00223572]],SM
588,[[5]],[[589]],[[10]],['low holistic'],['left'],['upright'],['U0159.bmp'],['female'],[],['female'],[[1]],[[0.00032099]],SM
589,[[5]],[[590]],[[3]],['low holistic'],['left'],['inverted'],['U0020.bmp'],['female'],[],['female'],[[1]],[[0.05982892]],SM
590,[[5]],[[591]],[[5]],['high holistic'],['left'],['upright'],['U0076.bmp'],['female'],[],['female'],[[1]],[[0.08748323]],SM
591,[[5]],[[592]],[[3]],['high holistic'],['fovea'],['upright'],['U0020.bmp'],['male'],[],['female'],[[0]],[[0.00043574]],SM
592,[[5]],[[593]],[[12]],['low holistic'],['fovea'],['upright'],['U0178.bmp'],['female'],[],['male'],[[0]],[[0.12475953]],SM
593,[[5]],[[594]],[[14]],['low holistic'],['left'],['upright'],['U0228.bmp'],['male'],[],['male'],[[1]],[[0.1662491]],SM
594,[[5]],[[595]],[[16]],['low holistic'],['left'],['upright'],['U0335.bmp'],['female'],[],['female'],[[1]],[[0.00040355]],SM
595,[[5]],[[596]],[[15]],['low holistic'],['left'],['inverted'],['U0312.bmp'],['male'],[],['male'],[[1]],[[0.0643276]],SM
596,[[5]],[[597]],[[13]],['high holistic'],['left'],['upright'],['U0181.bmp'],['female'],[],['male'],[[0]],[[0.10134641]],SM
597,[[5]],[[598]],[[19]],['low holistic'],['right'],['upright'],['U0361.bmp'],['female'],[],['female'],[[1]],[[0.03958293]],SM
598,[[5]],[[599]],[[3]],['high holistic'],['right'],['upright'],['U0020.bmp'],['male'],[],['female'],[[0]],[[0.00035332]],SM
599,[[5]],[[600]],[[20]],['low holistic'],['right'],['inverted'],['U0362.bmp'],['male'],[],['male'],[[1]],[[0.01339118]],SM
600,[[5]],[[601]],[[19]],['low holistic'],['right'],['upright'],['U0361.bmp'],['female'],[],['female'],[[1]],[[0.0044012]],SM
601,[[5]],[[602]],[[14]],['high holistic'],['left'],['upright'],['U0228.bmp'],['male'],[],['female'],[[0]],[[0.00014327]],SM
602,[[5]],[[603]],[[17]],['high holistic'],['right'],['inverted'],['U0346.bmp'],['male'],[],['female'],[[0]],[[0.92418172]],SM
603,[[5]],[[604]],[[8]],['high holistic'],['left'],['inverted'],['U0137.bmp'],['female'],[],['male'],[[0]],[[0.00011198]],SM
604,[[5]],[[605]],[[12]],['high holistic'],['left'],['inverted'],['U0178.bmp'],['male'],[],['male'],[[1]],[[0.00022359]],SM
605,[[5]],[[606]],[[19]],['high holistic'],['right'],['inverted'],['U0361.bmp'],['female'],[],['female'],[[1]],[[9.84899234e-05]],SM
606,[[5]],[[607]],[[16]],['high holistic'],['left'],['inverted'],['U0335.bmp'],['female'],[],['female'],[[1]],[[0.15746525]],SM
607,[[5]],[[608]],[[12]],['low holistic'],['left'],['upright'],['U0178.bmp'],['female'],[],['male'],[[0]],[[0.00019118]],SM
608,[[5]],[[609]],[[5]],['high holistic'],['right'],['inverted'],['U0076.bmp'],['female'],[],['male'],[[0]],[[0.00025544]],SM
609,[[5]],[[610]],[[4]],['low holistic'],['right'],['inverted'],['U0061.bmp'],['female'],[],['female'],[[1]],[[0.14269241]],SM
610,[[5]],[[611]],[[5]],['high holistic'],['left'],['inverted'],['U0076.bmp'],['female'],[],['female'],[[1]],[[9.99548938e-05]],SM
611,[[5]],[[612]],[[3]],['low holistic'],['left'],['inverted'],['U0020.bmp'],['female'],[],['female'],[[1]],[[0.00011942]],SM
612,[[5]],[[613]],[[7]],['high holistic'],['left'],['upright'],['U0107.bmp'],['female'],[],['male'],[[0]],[[0.00021134]],SM
613,[[5]],[[614]],[[10]],['high holistic'],['right'],['upright'],['U0159.bmp'],['male'],[],['female'],[[0]],[[0.00044376]],SM
614,[[5]],[[615]],[[17]],['high holistic'],['left'],['upright'],['U0346.bmp'],['male'],[],['male'],[[1]],[[0.14845043]],SM
615,[[5]],[[616]],[[11]],['low holistic'],['right'],['inverted'],['U0164.bmp'],['female'],[],['female'],[[1]],[[0.08694765]],SM
616,[[5]],[[617]],[[14]],['low holistic'],['right'],['upright'],['U0228.bmp'],['male'],[],['male'],[[1]],[[9.78969038e-05]],SM
617,[[5]],[[618]],[[12]],['low holistic'],['right'],['inverted'],['U0178.bmp'],['female'],[],['male'],[[0]],[[0.00013351]],SM
618,[[5]],[[619]],[[1]],['high holistic'],['left'],['inverted'],['U0006.bmp'],['female'],[],['female'],[[1]],[[0.13080992]],SM
619,[[5]],[[620]],[[17]],['low holistic'],['right'],['inverted'],['U0346.bmp'],['female'],[],['female'],[[1]],[[0.00035636]],SM
620,[[5]],[[621]],[[2]],['low holistic'],['left'],['upright'],['U0014.bmp'],['male'],[],['female'],[[0]],[[9.9116005e-05]],SM
621,[[5]],[[622]],[[11]],['low holistic'],['right'],['inverted'],['U0164.bmp'],['female'],[],['female'],[[1]],[[2.8036305]],SM
622,[[5]],[[623]],[[6]],['low holistic'],['left'],['inverted'],['U0106.bmp'],['male'],[],['male'],[[1]],[[0.00012319]],SM
623,[[5]],[[624]],[[11]],['low holistic'],['right'],['upright'],['U0164.bmp'],['female'],[],['male'],[[0]],[[0.00256066]],SM
624,[[5]],[[625]],[[4]],['high holistic'],['right'],['inverted'],['U0061.bmp'],['female'],[],['male'],[[0]],[[0.05862978]],SM
625,[[5]],[[626]],[[3]],['low holistic'],['right'],['upright'],['U0020.bmp'],['female'],[],['female'],[[1]],[[0.00018832]],SM
626,[[5]],[[627]],[[16]],['high holistic'],['right'],['inverted'],['U0335.bmp'],['female'],[],['female'],[[1]],[[0.00012137]],SM
627,[[5]],[[628]],[[19]],['low holistic'],['left'],['inverted'],['U0361.bmp'],['female'],[],['female'],[[1]],[[0.03047816]],SM
628,[[5]],[[629]],[[18]],['high holistic'],['left'],['upright'],['U0359.bmp'],['male'],[],['male'],[[1]],[[0.07785518]],SM
629,[[5]],[[630]],[[8]],['low holistic'],['left'],['upright'],['U0137.bmp'],['male'],[],['male'],[[1]],[[0.45051659]],SM
630,[[5]],[[631]],[[19]],['high holistic'],['right'],['upright'],['U0361.bmp'],['female'],[],['female'],[[1]],[[0.0002621]],SM
631,[[5]],[[632]],[[13]],['low holistic'],['right'],['inverted'],['U0181.bmp'],['male'],[],['female'],[[0]],[[0.1276224]],SM
632,[[5]],[[633]],[[8]],['low holistic'],['left'],['upright'],['U0137.bmp'],['male'],[],['female'],[[0]],[[0.07455458]],SM
633,[[5]],[[634]],[[20]],['low holistic'],['left'],['upright'],['U0362.bmp'],['male'],[],['female'],[[0]],[[0.16804209]],SM
634,[[5]],[[635]],[[8]],['low holistic'],['left'],['upright'],['U0137.bmp'],['male'],[],['male'],[[1]],[[0.00816611]],SM
635,[[5]],[[636]],[[6]],['low holistic'],['right'],['upright'],['U0106.bmp'],['male'],[],['male'],[[1]],[[0.00017253]],SM
636,[[5]],[[637]],[[3]],['high holistic'],['left'],['inverted'],['U0020.bmp'],['male'],[],['female'],[[0]],[[0.03862122]],SM
637,[[5]],[[638]],[[3]],['high holistic'],['right'],['upright'],['U0020.bmp'],['male'],[],['female'],[[0]],[[0.052383]],SM
638,[[5]],[[639]],[[1]],['low holistic'],['left'],['inverted'],['U0006.bmp'],['female'],[],['female'],[[1]],[[0.0003549]],SM
639,[[5]],[[640]],[[9]],['low holistic'],['left'],['upright'],['U0155.bmp'],['male'],[],['male'],[[1]],[[0.00017819]],SM
640,[[5]],[[641]],[[14]],['low holistic'],['left'],['upright'],['U0228.bmp'],['male'],[],['male'],[[1]],[[0.13975189]],SM
641,[[5]],[[642]],[[6]],['low holistic'],['left'],['upright'],['U0106.bmp'],['male'],[],['male'],[[1]],[[0.04491464]],SM
642,[[5]],[[643]],[[18]],['low holistic'],['right'],['inverted'],['U0359.bmp'],['male'],[],['male'],[[1]],[[1.50799743]],SM
643,[[5]],[[644]],[[13]],['high holistic'],['right'],['inverted'],['U0181.bmp'],['female'],[],['male'],[[0]],[[0.05452734]],SM
644,[[5]],[[645]],[[19]],['high holistic'],['left'],['inverted'],['U0361.bmp'],['female'],[],['male'],[[0]],[[0.1399058]],SM
645,[[5]],[[646]],[[7]],['high holistic'],['right'],['inverted'],['U0107.bmp'],['female'],[],['male'],[[0]],[[0.00048987]],SM
646,[[5]],[[647]],[[12]],['low holistic'],['right'],['upright'],['U0178.bmp'],['female'],[],['male'],[[0]],[[9.89539549e-05]],SM
647,[[5]],[[648]],[[6]],['low holistic'],['left'],['inverted'],['U0106.bmp'],['male'],[],['male'],[[1]],[[0.14016523]],SM
648,[[5]],[[649]],[[2]],['high holistic'],['left'],['upright'],['U0014.bmp'],['male'],[],['male'],[[1]],[[0.02294859]],SM
649,[[5]],[[650]],[[14]],['low holistic'],['right'],['inverted'],['U0228.bmp'],['male'],[],['male'],[[1]],[[0.11031788]],SM
650,[[5]],[[651]],[[13]],['low holistic'],['left'],['upright'],['U0181.bmp'],['male'],[],['male'],[[1]],[[0.04192099]],SM
651,[[5]],[[652]],[[9]],['low holistic'],['right'],['inverted'],['U0155.bmp'],['male'],[],['male'],[[1]],[[0.03336212]],SM
652,[[5]],[[653]],[[10]],['low holistic'],['left'],['upright'],['U0159.bmp'],['female'],[],['male'],[[0]],[[0.19831075]],SM
653,[[5]],[[654]],[[9]],['low holistic'],['left'],['upright'],['U0155.bmp'],['male'],[],['male'],[[1]],[[0.00019331]],SM
654,[[5]],[[655]],[[8]],['high holistic'],['left'],['upright'],['U0137.bmp'],['female'],[],['male'],[[0]],[[0.29413686]],SM
655,[[5]],[[656]],[[3]],['low holistic'],['right'],['upright'],['U0020.bmp'],['female'],[],['male'],[[0]],[[0.00022811]],SM
656,[[5]],[[657]],[[12]],['low holistic'],['left'],['inverted'],['U0178.bmp'],['female'],[],['male'],[[0]],[[0.14477776]],SM
657,[[5]],[[658]],[[8]],['high holistic'],['right'],['upright'],['U0137.bmp'],['female'],[],['male'],[[0]],[[0.02731879]],SM
658,[[5]],[[659]],[[20]],['high holistic'],['left'],['upright'],['U0362.bmp'],['female'],[],['male'],[[0]],[[0.00023595]],SM
659,[[5]],[[660]],[[8]],['low holistic'],['left'],['upright'],['U0137.bmp'],['male'],[],['male'],[[1]],[[0.23354472]],SM
660,[[5]],[[661]],[[13]],['low holistic'],['right'],['inverted'],['U0181.bmp'],['male'],[],['male'],[[1]],[[0.00012516]],SM
661,[[5]],[[662]],[[2]],['high holistic'],['left'],['upright'],['U0014.bmp'],['male'],[],['male'],[[1]],[[0.11973344]],SM
662,[[5]],[[663]],[[15]],['low holistic'],['right'],['upright'],['U0312.bmp'],['male'],[],['male'],[[1]],[[0.00013438]],SM
663,[[5]],[[664]],[[9]],['low holistic'],['left'],['upright'],['U0155.bmp'],['male'],[],['male'],[[1]],[[0.84157621]],SM
664,[[5]],[[665]],[[4]],['high holistic'],['left'],['upright'],['U0061.bmp'],['female'],[],['male'],[[0]],[[0.06389787]],SM
665,[[5]],[[666]],[[19]],['high holistic'],['left'],['inverted'],['U0361.bmp'],['female'],[],['male'],[[0]],[[0.00021372]],SM
666,[[5]],[[667]],[[4]],['high holistic'],['right'],['upright'],['U0061.bmp'],['female'],[],['male'],[[0]],[[0.00012512]],SM
667,[[5]],[[668]],[[19]],['high holistic'],['right'],['upright'],['U0361.bmp'],['female'],[],['male'],[[0]],[[0.29928979]],SM
668,[[5]],[[669]],[[3]],['low holistic'],['right'],['upright'],['U0020.bmp'],['female'],[],['male'],[[0]],[[0.7276927]],SM
669,[[5]],[[670]],[[15]],['low holistic'],['right'],['inverted'],['U0312.bmp'],['male'],[],['male'],[[1]],[[0.45889631]],SM
670,[[5]],[[671]],[[7]],['high holistic'],['right'],['upright'],['U0107.bmp'],['female'],[],['male'],[[0]],[[0.0001568]],SM
671,[[5]],[[672]],[[8]],['high holistic'],['right'],['inverted'],['U0137.bmp'],['female'],[],['male'],[[0]],[[0.0002114]],SM
672,[[5]],[[673]],[[7]],['low holistic'],['left'],['upright'],['U0107.bmp'],['female'],[],['male'],[[0]],[[0.03909383]],SM
673,[[5]],[[674]],[[15]],['high holistic'],['left'],['inverted'],['U0312.bmp'],['male'],[],['male'],[[1]],[[0.00016953]],SM
674,[[5]],[[675]],[[4]],['high holistic'],['right'],['inverted'],['U0061.bmp'],['female'],[],['male'],[[0]],[[0.00021404]],SM
675,[[5]],[[676]],[[3]],['low holistic'],['right'],['inverted'],['U0020.bmp'],['female'],[],['male'],[[0]],[[0.07628705]],SM
676,[[5]],[[677]],[[20]],['high holistic'],['right'],['inverted'],['U0362.bmp'],['female'],[],['female'],[[1]],[[1.27933594]],SM
677,[[5]],[[678]],[[2]],['high holistic'],['left'],['upright'],['U0014.bmp'],['male'],[],['male'],[[1]],[[0.14051968]],SM
678,[[5]],[[679]],[[13]],['high holistic'],['fovea'],['inverted'],['U0181.bmp'],['female'],[],['female'],[[1]],[[0.03810305]],SM
679,[[5]],[[680]],[[3]],['high holistic'],['left'],['upright'],['U0020.bmp'],['male'],[],['male'],[[1]],[[0.71722659]],SM
680,[[5]],[[681]],[[4]],['low holistic'],['left'],['inverted'],['U0061.bmp'],['female'],[],['male'],[[0]],[[0.13510289]],SM
681,[[5]],[[682]],[[14]],['high holistic'],['left'],['inverted'],['U0228.bmp'],['male'],[],['male'],[[1]],[[0.00010495]],SM
682,[[5]],[[683]],[[1]],['low holistic'],['fovea'],['inverted'],['U0006.bmp'],['female'],[],['female'],[[1]],[[0.26604006]],SM
683,[[5]],[[684]],[[10]],['high holistic'],['left'],['inverted'],['U0159.bmp'],['male'],[],['female'],[[0]],[[0.20502575]],SM
684,[[5]],[[685]],[[14]],['high holistic'],['fovea'],['upright'],['U0228.bmp'],['male'],[],['female'],[[0]],[[0.1404923]],SM
685,[[5]],[[686]],[[1]],['high holistic'],['right'],['upright'],['U0006.bmp'],['female'],[],['female'],[[1]],[[0.0001048]],SM
686,[[5]],[[687]],[[12]],['low holistic'],['right'],['upright'],['U0178.bmp'],['female'],[],['female'],[[1]],[[2.49567779]],SM
687,[[5]],[[688]],[[20]],['low holistic'],['right'],['inverted'],['U0362.bmp'],['male'],[],['female'],[[0]],[[0.00039261]],SM
688,[[5]],[[689]],[[11]],['low holistic'],['left'],['upright'],['U0164.bmp'],['female'],[],['female'],[[1]],[[0.00012978]],SM
689,[[5]],[[690]],[[10]],['high holistic'],['fovea'],['inverted'],['U0159.bmp'],['male'],[],['female'],[[0]],[[0.10780996]],SM
690,[[5]],[[691]],[[9]],['low holistic'],['right'],['inverted'],['U0155.bmp'],['male'],[],['female'],[[0]],[[0.1262321]],SM
691,[[5]],[[692]],[[12]],['high holistic'],['left'],['upright'],['U0178.bmp'],['male'],[],['female'],[[0]],[[0.0001408]],SM
692,[[5]],[[693]],[[16]],['high holistic'],['left'],['upright'],['U0335.bmp'],['female'],[],['female'],[[1]],[[0.08756068]],SM
693,[[5]],[[694]],[[6]],['high holistic'],['right'],['upright'],['U0106.bmp'],['female'],[],['female'],[[1]],[[0.0210049]],SM
694,[[5]],[[695]],[[7]],['low holistic'],['right'],['inverted'],['U0107.bmp'],['female'],[],['female'],[[1]],[[0.0356939]],SM
695,[[5]],[[696]],[[17]],['high holistic'],['fovea'],['inverted'],['U0346.bmp'],['male'],[],['female'],[[0]],[[9.90990084e-05]],SM
696,[[5]],[[697]],[[8]],['low holistic'],['left'],['upright'],['U0137.bmp'],['male'],[],['female'],[[0]],[[0.04129388]],SM
697,[[5]],[[698]],[[16]],['high holistic'],['left'],['inverted'],['U0335.bmp'],['female'],[],['female'],[[1]],[[0.00010462]],SM
698,[[5]],[[699]],[[16]],['high holistic'],['right'],['inverted'],['U0335.bmp'],['female'],[],['female'],[[1]],[[0.00035637]],SM
699,[[5]],[[700]],[[4]],['high holistic'],['left'],['upright'],['U0061.bmp'],['female'],[],['female'],[[1]],[[0.00013712]],SM
700,[[5]],[[701]],[[10]],['high holistic'],['right'],['inverted'],['U0159.bmp'],['male'],[],['female'],[[0]],[[0.10228917]],SM
701,[[5]],[[702]],[[2]],['low holistic'],['left'],['upright'],['U0014.bmp'],['male'],[],['female'],[[0]],[[0.19430362]],SM
702,[[5]],[[703]],[[9]],['high holistic'],['left'],['upright'],['U0155.bmp'],['female'],[],['female'],[[1]],[[9.93818976e-05]],SM
703,[[5]],[[704]],[[16]],['low holistic'],['fovea'],['inverted'],['U0335.bmp'],['female'],[],['female'],[[1]],[[0.00014997]],SM
704,[[5]],[[705]],[[13]],['high holistic'],['right'],['inverted'],['U0181.bmp'],['female'],[],['female'],[[1]],[[0.16827921]],SM
705,[[5]],[[706]],[[8]],['high holistic'],['left'],['inverted'],['U0137.bmp'],['female'],[],['female'],[[1]],[[0.6651376]],SM
706,[[5]],[[707]],[[12]],['high holistic'],['left'],['upright'],['U0178.bmp'],['male'],[],['female'],[[0]],[[0.07866632]],SM
707,[[5]],[[708]],[[8]],['high holistic'],['left'],['inverted'],['U0137.bmp'],['female'],[],['female'],[[1]],[[9.924802e-05]],SM
708,[[5]],[[709]],[[18]],['high holistic'],['left'],['inverted'],['U0359.bmp'],['male'],[],['female'],[[0]],[[9.98119358e-05]],SM
709,[[5]],[[710]],[[15]],['high holistic'],['right'],['inverted'],['U0312.bmp'],['male'],[],['female'],[[0]],[[9.88391694e-05]],SM
710,[[5]],[[711]],[[9]],['high holistic'],['left'],['inverted'],['U0155.bmp'],['female'],[],['female'],[[1]],[[9.98720061e-05]],SM
711,[[5]],[[712]],[[10]],['low holistic'],['right'],['upright'],['U0159.bmp'],['female'],[],['female'],[[1]],[[0.11395877]],SM
712,[[5]],[[713]],[[2]],['high holistic'],['left'],['inverted'],['U0014.bmp'],['male'],[],['female'],[[0]],[[0.00010011]],SM
713,[[5]],[[714]],[[2]],['high holistic'],['left'],['inverted'],['U0014.bmp'],['male'],[],['female'],[[0]],[[0.000128]],SM
714,[[5]],[[715]],[[20]],['low holistic'],['left'],['upright'],['U0362.bmp'],['male'],[],['female'],[[0]],[[0.04510455]],SM
715,[[5]],[[716]],[[12]],['high holistic'],['fovea'],['inverted'],['U0178.bmp'],['male'],[],['female'],[[0]],[[2.91521157]],SM
716,[[5]],[[717]],[[5]],['high holistic'],['right'],['inverted'],['U0076.bmp'],['female'],[],['female'],[[1]],[[9.93639696e-05]],SM
717,[[5]],[[718]],[[20]],['high holistic'],['right'],['inverted'],['U0362.bmp'],['female'],[],['female'],[[1]],[[9.89299733e-05]],SM
718,[[5]],[[719]],[[16]],['high holistic'],['right'],['inverted'],['U0335.bmp'],['female'],[],['female'],[[1]],[[0.63754206]],SM
719,[[5]],[[720]],[[17]],['high holistic'],['left'],['inverted'],['U0346.bmp'],['male'],[],['female'],[[0]],[[0.6186904]],SM
720,[[5]],[[721]],[[12]],['low holistic'],['right'],['upright'],['U0178.bmp'],['female'],[],['female'],[[1]],[[0.16188892]],SM
721,[[5]],[[722]],[[11]],['high holistic'],['right'],['inverted'],['U0164.bmp'],['female'],[],['female'],[[1]],[[0.06070574]],SM
722,[[5]],[[723]],[[4]],['high holistic'],['right'],['upright'],['U0061.bmp'],['female'],[],['female'],[[1]],[[0.04239743]],SM
723,[[5]],[[724]],[[8]],['high holistic'],['right'],['inverted'],['U0137.bmp'],['female'],[],['female'],[[1]],[[0.20683567]],SM
724,[[5]],[[725]],[[9]],['low holistic'],['right'],['inverted'],['U0155.bmp'],['male'],[],['female'],[[0]],[[0.17263748]],SM
725,[[5]],[[726]],[[17]],['high holistic'],['left'],['upright'],['U0346.bmp'],['male'],[],['female'],[[0]],[[0.14336009]],SM
726,[[5]],[[727]],[[3]],['low holistic'],['left'],['inverted'],['U0020.bmp'],['female'],[],['female'],[[1]],[[0.00011478]],SM
727,[[5]],[[728]],[[5]],['high holistic'],['left'],['upright'],['U0076.bmp'],['female'],[],['female'],[[1]],[[21.64887647]],SM
728,[[5]],[[729]],[[8]],['high holistic'],['left'],['inverted'],['U0137.bmp'],['female'],[],['female'],[[1]],[[0.07844937]],SM
729,[[5]],[[730]],[[5]],['high holistic'],['left'],['inverted'],['U0076.bmp'],['female'],[],['female'],[[1]],[[0.22750866]],SM
730,[[5]],[[731]],[[2]],['high holistic'],['left'],['upright'],['U0014.bmp'],['male'],[],['female'],[[0]],[[0.04095189]],SM
731,[[5]],[[732]],[[8]],['low holistic'],['right'],['upright'],['U0137.bmp'],['male'],[],['female'],[[0]],[[9.90510453e-05]],SM
732,[[5]],[[733]],[[4]],['low holistic'],['left'],['inverted'],['U0061.bmp'],['female'],[],['female'],[[1]],[[0.20004231]],SM
733,[[5]],[[734]],[[4]],['high holistic'],['left'],['upright'],['U0061.bmp'],['female'],[],['female'],[[1]],[[0.07188423]],SM
734,[[5]],[[735]],[[16]],['high holistic'],['left'],['upright'],['U0335.bmp'],['female'],[],['female'],[[1]],[[0.46024414]],SM
735,[[5]],[[736]],[[17]],['low holistic'],['right'],['upright'],['U0346.bmp'],['female'],[],['female'],[[1]],[[9.72780399e-05]],SM
736,[[5]],[[737]],[[13]],['high holistic'],['right'],['inverted'],['U0181.bmp'],['female'],[],['female'],[[1]],[[0.00010619]],SM
737,[[5]],[[738]],[[13]],['high holistic'],['right'],['upright'],['U0181.bmp'],['female'],[],['female'],[[1]],[[0.14467046]],SM
738,[[5]],[[739]],[[6]],['high holistic'],['left'],['upright'],['U0106.bmp'],['female'],[],['female'],[[1]],[[0.00010836]],SM
739,[[5]],[[740]],[[3]],['high holistic'],['right'],['inverted'],['U0020.bmp'],['male'],[],['female'],[[0]],[[0.13845627]],SM
740,[[5]],[[741]],[[4]],['high holistic'],['left'],['upright'],['U0061.bmp'],['female'],[],['female'],[[1]],[[0.28450772]],SM
741,[[5]],[[742]],[[13]],['low holistic'],['left'],['inverted'],['U0181.bmp'],['male'],[],['female'],[[0]],[[0.13548634]],SM
742,[[5]],[[743]],[[13]],['high holistic'],['fovea'],['upright'],['U0181.bmp'],['female'],[],['female'],[[1]],[[1.75339916]],SM
743,[[5]],[[744]],[[5]],['high holistic'],['left'],['inverted'],['U0076.bmp'],['female'],[],['female'],[[1]],[[0.00037734]],SM
744,[[5]],[[745]],[[13]],['high holistic'],['left'],['inverted'],['U0181.bmp'],['female'],[],['female'],[[1]],[[0.18028407]],SM
745,[[5]],[[746]],[[4]],['high holistic'],['right'],['upright'],['U0061.bmp'],['female'],[],['female'],[[1]],[[0.00010616]],SM
746,[[5]],[[747]],[[1]],['high holistic'],['right'],['inverted'],['U0006.bmp'],['female'],[],['female'],[[1]],[[0.1153431]],SM
747,[[5]],[[748]],[[16]],['high holistic'],['right'],['inverted'],['U0335.bmp'],['female'],[],['female'],[[1]],[[0.08684605]],SM
748,[[5]],[[749]],[[20]],['low holistic'],['left'],['inverted'],['U0362.bmp'],['male'],[],['female'],[[0]],[[82.01129722]],SM
749,[[5]],[[750]],[[13]],['low holistic'],['left'],['upright'],['U0181.bmp'],['male'],[],['female'],[[0]],[[0.0001064]],SM
750,[[5]],[[751]],[[12]],['low holistic'],['right'],['inverted'],['U0178.bmp'],['female'],[],['female'],[[1]],[[0.00010505]],SM
751,[[5]],[[752]],[[9]],['low holistic'],['right'],['upright'],['U0155.bmp'],['male'],[],['female'],[[0]],[[0.01036068]],SM
752,[[5]],[[753]],[[16]],['low holistic'],['left'],['upright'],['U0335.bmp'],['female'],[],['female'],[[1]],[[0.12116523]],SM
753,[[5]],[[754]],[[15]],['low holistic'],['right'],['inverted'],['U0312.bmp'],['male'],[],['female'],[[0]],[[0.09160182]],SM
754,[[5]],[[755]],[[1]],['high holistic'],['left'],['upright'],['U0006.bmp'],['female'],[],['female'],[[1]],[[0.00022259]],SM
755,[[5]],[[756]],[[2]],['high holistic'],['right'],['inverted'],['U0014.bmp'],['male'],[],['female'],[[0]],[[0.00021541]],SM
756,[[5]],[[757]],[[12]],['low holistic'],['fovea'],['upright'],['U0178.bmp'],['female'],[],['female'],[[1]],[[0.0001509]],SM
757,[[5]],[[758]],[[6]],['low holistic'],['fovea'],['inverted'],['U0106.bmp'],['male'],[],['female'],[[0]],[[9.666197e-05]],SM
758,[[5]],[[759]],[[18]],['high holistic'],['right'],['inverted'],['U0359.bmp'],['male'],[],['female'],[[0]],[[0.00010776]],SM
759,[[5]],[[760]],[[9]],['high holistic'],['left'],['upright'],['U0155.bmp'],['female'],[],['female'],[[1]],[[9.74149443e-05]],SM
760,[[5]],[[761]],[[14]],['low holistic'],['left'],['upright'],['U0228.bmp'],['male'],[],['female'],[[0]],[[0.09233646]],SM
761,[[5]],[[762]],[[14]],['low holistic'],['right'],['upright'],['U0228.bmp'],['male'],[],['female'],[[0]],[[0.0001821]],SM
762,[[5]],[[763]],[[11]],['low holistic'],['left'],['inverted'],['U0164.bmp'],['female'],[],['female'],[[1]],[[9.92962159e-05]],SM
763,[[5]],[[764]],[[1]],['low holistic'],['left'],['upright'],['U0006.bmp'],['female'],[],['female'],[[1]],[[9.7517157e-05]],SM
764,[[5]],[[765]],[[7]],['high holistic'],['left'],['upright'],['U0107.bmp'],['female'],[],['female'],[[1]],[[9.83050559e-05]],SM
765,[[5]],[[766]],[[6]],['low holistic'],['right'],['upright'],['U0106.bmp'],['male'],[],['female'],[[0]],[[9.85132065e-05]],SM
766,[[5]],[[767]],[[17]],['high holistic'],['right'],['upright'],['U0346.bmp'],['male'],[],['female'],[[0]],[[9.86368395e-05]],SM
767,[[5]],[[768]],[[7]],['high holistic'],['left'],['upright'],['U0107.bmp'],['female'],[],['female'],[[1]],[[0.05628751]],SM
768,[[5]],[[769]],[[20]],['low holistic'],['right'],['inverted'],['U0362.bmp'],['male'],[],['female'],[[0]],[[9.73138958e-05]],SM
769,[[5]],[[770]],[[6]],['low holistic'],['right'],['inverted'],['U0106.bmp'],['male'],[],['female'],[[0]],[[0.00010431]],SM
770,[[5]],[[771]],[[2]],['low holistic'],['left'],['inverted'],['U0014.bmp'],['male'],[],['female'],[[0]],[[0.00010584]],SM
771,[[5]],[[772]],[[13]],['high holistic'],['fovea'],['inverted'],['U0181.bmp'],['female'],[],['female'],[[1]],[[0.0001057]],SM
772,[[5]],[[773]],[[14]],['low holistic'],['left'],['inverted'],['U0228.bmp'],['male'],[],['female'],[[0]],[[9.88449901e-05]],SM
773,[[5]],[[774]],[[10]],['high holistic'],['left'],['inverted'],['U0159.bmp'],['male'],[],['female'],[[0]],[[9.92519781e-05]],SM
774,[[5]],[[775]],[[14]],['high holistic'],['right'],['inverted'],['U0228.bmp'],['male'],[],['female'],[[0]],[[9.76650044e-05]],SM
775,[[5]],[[776]],[[2]],['high holistic'],['left'],['inverted'],['U0014.bmp'],['male'],[],['female'],[[0]],[[9.81579069e-05]],SM
776,[[5]],[[777]],[[19]],['high holistic'],['left'],['inverted'],['U0361.bmp'],['female'],[],['female'],[[1]],[[9.71760601e-05]],SM
777,[[5]],[[778]],[[17]],['high holistic'],['right'],['upright'],['U0346.bmp'],['male'],[],['female'],[[0]],[[0.00010562]],SM
778,[[5]],[[779]],[[13]],['high holistic'],['left'],['inverted'],['U0181.bmp'],['female'],[],['female'],[[1]],[[9.96380113e-05]],SM
779,[[5]],[[780]],[[13]],['high holistic'],['left'],['inverted'],['U0181.bmp'],['female'],[],['female'],[[1]],[[0.00010502]],SM
780,[[5]],[[781]],[[11]],['low holistic'],['right'],['upright'],['U0164.bmp'],['female'],[],['female'],[[1]],[[0.60734467]],SM
781,[[5]],[[782]],[[13]],['high holistic'],['right'],['inverted'],['U0181.bmp'],['female'],[],['female'],[[1]],[[0.022564]],SM
782,[[5]],[[783]],[[13]],['high holistic'],['right'],['upright'],['U0181.bmp'],['female'],[],['female'],[[1]],[[0.00041984]],SM
783,[[5]],[[784]],[[17]],['low holistic'],['left'],['upright'],['U0346.bmp'],['female'],[],['female'],[[1]],[[0.11777875]],SM
784,[[5]],[[785]],[[19]],['high holistic'],['left'],['upright'],['U0361.bmp'],['female'],[],['female'],[[1]],[[0.11255102]],SM
785,[[5]],[[786]],[[9]],['low holistic'],['left'],['upright'],['U0155.bmp'],['male'],[],['female'],[[0]],[[9.88140237e-05]],SM
786,[[5]],[[787]],[[9]],['low holistic'],['right'],['upright'],['U0155.bmp'],['male'],[],['female'],[[0]],[[0.00010365]],SM
787,[[5]],[[788]],[[17]],['low holistic'],['right'],['upright'],['U0346.bmp'],['female'],[],['female'],[[1]],[[0.00038588]],SM
788,[[5]],[[789]],[[3]],['low holistic'],['right'],['upright'],['U0020.bmp'],['female'],[],['female'],[[1]],[[9.88789834e-05]],SM
789,[[5]],[[790]],[[10]],['low holistic'],['right'],['upright'],['U0159.bmp'],['female'],[],['female'],[[1]],[[0.01759654]],SM
790,[[5]],[[791]],[[11]],['low holistic'],['right'],['inverted'],['U0164.bmp'],['female'],[],['female'],[[1]],[[0.03416314]],SM
791,[[5]],[[792]],[[7]],['high holistic'],['left'],['upright'],['U0107.bmp'],['female'],[],['female'],[[1]],[[0.00020717]],SM
792,[[5]],[[793]],[[9]],['high holistic'],['right'],['upright'],['U0155.bmp'],['female'],[],['female'],[[1]],[[9.91688576e-05]],SM
793,[[5]],[[794]],[[11]],['low holistic'],['fovea'],['upright'],['U0164.bmp'],['female'],[],['female'],[[1]],[[0.09475553]],SM
794,[[5]],[[795]],[[20]],['low holistic'],['right'],['upright'],['U0362.bmp'],['male'],[],['female'],[[0]],[[9.85029619e-05]],SM
795,[[5]],[[796]],[[12]],['low holistic'],['right'],['inverted'],['U0178.bmp'],['female'],[],['female'],[[1]],[[0.02722606]],SM
