,SUBID,TRIAL,MOONEYID,MOONEYCATEGORY,LOC,COND,MOONEY_NAME,MOONEY_GENDER,ECCENTRICITY,RESPONSE,ACCURACY,RT,SUBINIT
0,[[1]],[[1]],[[10]],['high holistic'],['left'],['upright'],['U0159.bmp'],['male'],[[8]],['male'],[[1]],[[0.25507511]],TCB
1,[[1]],[[2]],[[12]],['low holistic'],['right'],['upright'],['U0178.bmp'],['female'],[[6]],['female'],[[1]],[[0.17178984]],TCB
2,[[1]],[[3]],[[8]],['high holistic'],['left'],['inverted'],['U0137.bmp'],['female'],[[8]],['male'],[[0]],[[0.10840546]],TCB
3,[[1]],[[4]],[[19]],['high holistic'],['right'],['upright'],['U0361.bmp'],['female'],[[12]],['female'],[[1]],[[0.12084058]],TCB
4,[[1]],[[5]],[[10]],['low holistic'],['right'],['inverted'],['U0159.bmp'],['female'],[[4]],['female'],[[1]],[[0.00042218]],TCB
5,[[1]],[[6]],[[13]],['high holistic'],['left'],['inverted'],['U0181.bmp'],['female'],[[12]],['male'],[[0]],[[0.31658036]],TCB
6,[[1]],[[7]],[[12]],['high holistic'],['left'],['upright'],['U0178.bmp'],['male'],[[8]],['male'],[[1]],[[0.23096032]],TCB
7,[[1]],[[8]],[[4]],['low holistic'],['left'],['inverted'],['U0061.bmp'],['female'],[[10]],['female'],[[1]],[[0.31914028]],TCB
8,[[1]],[[9]],[[10]],['low holistic'],['left'],['upright'],['U0159.bmp'],['female'],[[2]],['female'],[[1]],[[0.19431371]],TCB
9,[[1]],[[10]],[[17]],['low holistic'],['left'],['inverted'],['U0346.bmp'],['female'],[[2]],['female'],[[1]],[[0.23436165]],TCB
10,[[1]],[[11]],[[16]],['low holistic'],['left'],['upright'],['U0335.bmp'],['female'],[[8]],['female'],[[1]],[[0.13001918]],TCB
11,[[1]],[[12]],[[17]],['high holistic'],['right'],['inverted'],['U0346.bmp'],['male'],[[8]],['male'],[[1]],[[0.36337782]],TCB
12,[[1]],[[13]],[[13]],['high holistic'],['right'],['inverted'],['U0181.bmp'],['female'],[[8]],['female'],[[1]],[[0.34285515]],TCB
13,[[1]],[[14]],[[2]],['high holistic'],['right'],['inverted'],['U0014.bmp'],['male'],[[12]],['male'],[[1]],[[0.28903885]],TCB
14,[[1]],[[15]],[[8]],['low holistic'],['right'],['upright'],['U0137.bmp'],['male'],[[4]],['male'],[[1]],[[0.15758061]],TCB
15,[[1]],[[16]],[[19]],['high holistic'],['left'],['upright'],['U0361.bmp'],['female'],[[8]],['female'],[[1]],[[0.47139356]],TCB
16,[[1]],[[17]],[[18]],['high holistic'],['fovea'],['upright'],['U0359.bmp'],['male'],[[0]],['female'],[[0]],[[0.28470312]],TCB
17,[[1]],[[18]],[[1]],['high holistic'],['left'],['upright'],['U0006.bmp'],['female'],[[12]],['female'],[[1]],[[0.18464347]],TCB
18,[[1]],[[19]],[[9]],['high holistic'],['right'],['inverted'],['U0155.bmp'],['female'],[[12]],['male'],[[0]],[[0.31471115]],TCB
19,[[1]],[[20]],[[14]],['high holistic'],['left'],['upright'],['U0228.bmp'],['male'],[[8]],['male'],[[1]],[[0.41413774]],TCB
20,[[1]],[[21]],[[13]],['low holistic'],['left'],['upright'],['U0181.bmp'],['male'],[[4]],['male'],[[1]],[[0.14057042]],TCB
21,[[1]],[[22]],[[20]],['low holistic'],['left'],['inverted'],['U0362.bmp'],['male'],[[2]],['male'],[[1]],[[0.35128245]],TCB
22,[[1]],[[23]],[[2]],['low holistic'],['left'],['upright'],['U0014.bmp'],['male'],[[8]],['male'],[[1]],[[0.17057197]],TCB
23,[[1]],[[24]],[[5]],['low holistic'],['right'],['upright'],['U0076.bmp'],['male'],[[10]],['male'],[[1]],[[0.45872742]],TCB
24,[[1]],[[25]],[[5]],['low holistic'],['right'],['inverted'],['U0076.bmp'],['male'],[[12]],['male'],[[1]],[[0.15356423]],TCB
25,[[1]],[[26]],[[19]],['low holistic'],['right'],['inverted'],['U0361.bmp'],['female'],[[12]],['female'],[[1]],[[0.56329469]],TCB
26,[[1]],[[27]],[[5]],['low holistic'],['right'],['inverted'],['U0076.bmp'],['male'],[[8]],['male'],[[1]],[[0.22910703]],TCB
27,[[1]],[[28]],[[20]],['low holistic'],['left'],['upright'],['U0362.bmp'],['male'],[[6]],['male'],[[1]],[[0.06810449]],TCB
28,[[1]],[[29]],[[7]],['high holistic'],['right'],['upright'],['U0107.bmp'],['female'],[[8]],['female'],[[1]],[[0.00012339]],TCB
29,[[1]],[[30]],[[3]],['high holistic'],['left'],['upright'],['U0020.bmp'],['male'],[[12]],['male'],[[1]],[[0.19322135]],TCB
30,[[1]],[[31]],[[10]],['high holistic'],['right'],['upright'],['U0159.bmp'],['male'],[[8]],['male'],[[1]],[[0.04151247]],TCB
31,[[1]],[[32]],[[5]],['high holistic'],['fovea'],['inverted'],['U0076.bmp'],['female'],[[0]],['male'],[[0]],[[0.17725828]],TCB
32,[[1]],[[33]],[[6]],['low holistic'],['left'],['upright'],['U0106.bmp'],['male'],[[10]],['male'],[[1]],[[0.09714299]],TCB
33,[[1]],[[34]],[[14]],['low holistic'],['right'],['upright'],['U0228.bmp'],['male'],[[12]],['male'],[[1]],[[0.07060508]],TCB
34,[[1]],[[35]],[[10]],['high holistic'],['left'],['upright'],['U0159.bmp'],['male'],[[2]],['male'],[[1]],[[0.07474499]],TCB
35,[[1]],[[36]],[[7]],['low holistic'],['right'],['upright'],['U0107.bmp'],['female'],[[6]],['female'],[[1]],[[0.08047022]],TCB
36,[[1]],[[37]],[[13]],['high holistic'],['left'],['inverted'],['U0181.bmp'],['female'],[[8]],['female'],[[1]],[[0.14139081]],TCB
37,[[1]],[[38]],[[12]],['high holistic'],['left'],['inverted'],['U0178.bmp'],['male'],[[2]],['male'],[[1]],[[0.18311516]],TCB
38,[[1]],[[39]],[[17]],['high holistic'],['right'],['inverted'],['U0346.bmp'],['male'],[[12]],['male'],[[1]],[[0.04916355]],TCB
39,[[1]],[[40]],[[16]],['high holistic'],['left'],['inverted'],['U0335.bmp'],['female'],[[10]],['male'],[[0]],[[0.11876259]],TCB
40,[[1]],[[41]],[[9]],['high holistic'],['left'],['inverted'],['U0155.bmp'],['female'],[[12]],['male'],[[0]],[[0.37869399]],TCB
41,[[1]],[[42]],[[17]],['high holistic'],['right'],['upright'],['U0346.bmp'],['male'],[[12]],['male'],[[1]],[[0.23608107]],TCB
42,[[1]],[[43]],[[6]],['high holistic'],['left'],['inverted'],['U0106.bmp'],['female'],[[10]],['female'],[[1]],[[0.32172363]],TCB
43,[[1]],[[44]],[[17]],['low holistic'],['right'],['inverted'],['U0346.bmp'],['female'],[[4]],['female'],[[1]],[[0.00554639]],TCB
44,[[1]],[[45]],[[20]],['low holistic'],['left'],['inverted'],['U0362.bmp'],['male'],[[8]],['male'],[[1]],[[0.00045335]],TCB
45,[[1]],[[46]],[[1]],['high holistic'],['right'],['upright'],['U0006.bmp'],['female'],[[4]],['female'],[[1]],[[0.00017537]],TCB
46,[[1]],[[47]],[[18]],['low holistic'],['left'],['upright'],['U0359.bmp'],['male'],[[6]],['male'],[[1]],[[0.00013129]],TCB
47,[[1]],[[48]],[[12]],['high holistic'],['left'],['inverted'],['U0178.bmp'],['male'],[[10]],['female'],[[0]],[[0.3248919]],TCB
48,[[1]],[[49]],[[3]],['high holistic'],['right'],['upright'],['U0020.bmp'],['male'],[[6]],['male'],[[1]],[[0.00028502]],TCB
49,[[1]],[[50]],[[17]],['low holistic'],['left'],['upright'],['U0346.bmp'],['female'],[[4]],['male'],[[0]],[[0.77669263]],TCB
50,[[1]],[[51]],[[2]],['low holistic'],['right'],['inverted'],['U0014.bmp'],['male'],[[4]],['male'],[[1]],[[0.08910689]],TCB
51,[[1]],[[52]],[[19]],['high holistic'],['left'],['inverted'],['U0361.bmp'],['female'],[[12]],['male'],[[0]],[[0.09471313]],TCB
52,[[1]],[[53]],[[10]],['low holistic'],['right'],['inverted'],['U0159.bmp'],['female'],[[12]],['female'],[[1]],[[0.00025727]],TCB
53,[[1]],[[54]],[[13]],['high holistic'],['right'],['inverted'],['U0181.bmp'],['female'],[[4]],['female'],[[1]],[[0.10679624]],TCB
54,[[1]],[[55]],[[15]],['low holistic'],['left'],['inverted'],['U0312.bmp'],['male'],[[6]],['male'],[[1]],[[0.00011892]],TCB
55,[[1]],[[56]],[[3]],['high holistic'],['left'],['inverted'],['U0020.bmp'],['male'],[[4]],['male'],[[1]],[[0.0137068]],TCB
56,[[1]],[[57]],[[5]],['high holistic'],['left'],['upright'],['U0076.bmp'],['female'],[[8]],['female'],[[1]],[[0.04453112]],TCB
57,[[1]],[[58]],[[1]],['low holistic'],['right'],['inverted'],['U0006.bmp'],['female'],[[12]],['female'],[[1]],[[0.05990766]],TCB
58,[[1]],[[59]],[[11]],['high holistic'],['left'],['upright'],['U0164.bmp'],['female'],[[8]],['female'],[[1]],[[0.22702858]],TCB
59,[[1]],[[60]],[[5]],['high holistic'],['right'],['inverted'],['U0076.bmp'],['female'],[[12]],['male'],[[0]],[[0.12805052]],TCB
60,[[1]],[[61]],[[17]],['low holistic'],['right'],['upright'],['U0346.bmp'],['female'],[[6]],['female'],[[1]],[[0.10026922]],TCB
61,[[1]],[[62]],[[1]],['low holistic'],['left'],['inverted'],['U0006.bmp'],['female'],[[8]],['female'],[[1]],[[0.12069457]],TCB
62,[[1]],[[63]],[[3]],['low holistic'],['left'],['inverted'],['U0020.bmp'],['female'],[[12]],['female'],[[1]],[[0.05131861]],TCB
63,[[1]],[[64]],[[6]],['low holistic'],['fovea'],['inverted'],['U0106.bmp'],['male'],[[0]],['male'],[[1]],[[0.04989151]],TCB
64,[[1]],[[65]],[[2]],['high holistic'],['left'],['upright'],['U0014.bmp'],['male'],[[6]],['male'],[[1]],[[0.00045861]],TCB
65,[[1]],[[66]],[[4]],['high holistic'],['fovea'],['upright'],['U0061.bmp'],['female'],[[0]],['female'],[[1]],[[0.03881031]],TCB
66,[[1]],[[67]],[[3]],['low holistic'],['fovea'],['upright'],['U0020.bmp'],['female'],[[0]],['female'],[[1]],[[0.0001026]],TCB
67,[[1]],[[68]],[[10]],['low holistic'],['fovea'],['inverted'],['U0159.bmp'],['female'],[[0]],['female'],[[1]],[[1.48671849]],TCB
68,[[1]],[[69]],[[20]],['high holistic'],['right'],['inverted'],['U0362.bmp'],['female'],[[6]],['female'],[[1]],[[0.23519241]],TCB
69,[[1]],[[70]],[[7]],['low holistic'],['left'],['inverted'],['U0107.bmp'],['female'],[[6]],['male'],[[0]],[[0.28924056]],TCB
70,[[1]],[[71]],[[16]],['high holistic'],['right'],['upright'],['U0335.bmp'],['female'],[[4]],['female'],[[1]],[[0.01389624]],TCB
71,[[1]],[[72]],[[5]],['low holistic'],['left'],['inverted'],['U0076.bmp'],['male'],[[4]],['male'],[[1]],[[0.05467435]],TCB
72,[[1]],[[73]],[[18]],['low holistic'],['right'],['upright'],['U0359.bmp'],['male'],[[10]],['male'],[[1]],[[0.18683662]],TCB
73,[[1]],[[74]],[[11]],['low holistic'],['right'],['inverted'],['U0164.bmp'],['female'],[[8]],['female'],[[1]],[[0.0198985]],TCB
74,[[1]],[[75]],[[4]],['low holistic'],['right'],['upright'],['U0061.bmp'],['female'],[[10]],['female'],[[1]],[[0.00037803]],TCB
75,[[1]],[[76]],[[5]],['low holistic'],['left'],['upright'],['U0076.bmp'],['male'],[[8]],['male'],[[1]],[[0.00057542]],TCB
76,[[1]],[[77]],[[4]],['high holistic'],['left'],['upright'],['U0061.bmp'],['female'],[[8]],['female'],[[1]],[[0.000314]],TCB
77,[[1]],[[78]],[[5]],['low holistic'],['left'],['upright'],['U0076.bmp'],['male'],[[2]],['male'],[[1]],[[0.01181615]],TCB
78,[[1]],[[79]],[[16]],['low holistic'],['left'],['upright'],['U0335.bmp'],['female'],[[6]],['female'],[[1]],[[0.00010082]],TCB
79,[[1]],[[80]],[[17]],['high holistic'],['left'],['upright'],['U0346.bmp'],['male'],[[2]],['male'],[[1]],[[0.07635248]],TCB
80,[[1]],[[81]],[[18]],['high holistic'],['left'],['inverted'],['U0359.bmp'],['male'],[[4]],['male'],[[1]],[[0.12064214]],TCB
81,[[1]],[[82]],[[4]],['high holistic'],['right'],['inverted'],['U0061.bmp'],['female'],[[12]],['male'],[[0]],[[0.00011981]],TCB
82,[[1]],[[83]],[[12]],['high holistic'],['left'],['upright'],['U0178.bmp'],['male'],[[6]],['male'],[[1]],[[0.00010827]],TCB
83,[[1]],[[84]],[[1]],['high holistic'],['left'],['inverted'],['U0006.bmp'],['female'],[[12]],['female'],[[1]],[[0.05908376]],TCB
84,[[1]],[[85]],[[17]],['high holistic'],['right'],['inverted'],['U0346.bmp'],['male'],[[6]],['male'],[[1]],[[0.16275571]],TCB
85,[[1]],[[86]],[[16]],['low holistic'],['left'],['upright'],['U0335.bmp'],['female'],[[4]],['female'],[[1]],[[0.00010876]],TCB
86,[[1]],[[87]],[[5]],['high holistic'],['fovea'],['upright'],['U0076.bmp'],['female'],[[0]],['female'],[[1]],[[0.00010933]],TCB
87,[[1]],[[88]],[[1]],['high holistic'],['left'],['upright'],['U0006.bmp'],['female'],[[10]],['female'],[[1]],[[0.00022695]],TCB
88,[[1]],[[89]],[[14]],['high holistic'],['left'],['inverted'],['U0228.bmp'],['male'],[[10]],['male'],[[1]],[[0.04330662]],TCB
89,[[1]],[[90]],[[13]],['low holistic'],['right'],['inverted'],['U0181.bmp'],['male'],[[12]],['male'],[[1]],[[0.00043708]],TCB
90,[[1]],[[91]],[[9]],['high holistic'],['left'],['upright'],['U0155.bmp'],['female'],[[10]],['male'],[[0]],[[0.00011398]],TCB
91,[[1]],[[92]],[[12]],['low holistic'],['right'],['inverted'],['U0178.bmp'],['female'],[[10]],['male'],[[0]],[[0.00010126]],TCB
92,[[1]],[[93]],[[3]],['high holistic'],['left'],['inverted'],['U0020.bmp'],['male'],[[2]],['male'],[[1]],[[0.06664918]],TCB
93,[[1]],[[94]],[[6]],['high holistic'],['left'],['upright'],['U0106.bmp'],['female'],[[6]],['female'],[[1]],[[0.00019611]],TCB
94,[[1]],[[95]],[[17]],['high holistic'],['left'],['inverted'],['U0346.bmp'],['male'],[[6]],['male'],[[1]],[[0.00013295]],TCB
95,[[1]],[[96]],[[4]],['high holistic'],['left'],['inverted'],['U0061.bmp'],['female'],[[2]],['male'],[[0]],[[0.0001005]],TCB
96,[[1]],[[97]],[[17]],['high holistic'],['right'],['inverted'],['U0346.bmp'],['male'],[[10]],['male'],[[1]],[[0.00046431]],TCB
97,[[1]],[[98]],[[1]],['low holistic'],['right'],['inverted'],['U0006.bmp'],['female'],[[8]],['female'],[[1]],[[0.08670772]],TCB
98,[[1]],[[99]],[[8]],['high holistic'],['right'],['inverted'],['U0137.bmp'],['female'],[[8]],['female'],[[1]],[[0.00010815]],TCB
99,[[1]],[[100]],[[12]],['high holistic'],['right'],['inverted'],['U0178.bmp'],['male'],[[10]],['female'],[[0]],[[0.23691696]],TCB
100,[[1]],[[101]],[[16]],['low holistic'],['left'],['inverted'],['U0335.bmp'],['female'],[[4]],['female'],[[1]],[[0.00023088]],TCB
101,[[1]],[[102]],[[4]],['low holistic'],['right'],['inverted'],['U0061.bmp'],['female'],[[10]],['female'],[[1]],[[0.13929978]],TCB
102,[[1]],[[103]],[[1]],['high holistic'],['right'],['inverted'],['U0006.bmp'],['female'],[[6]],['female'],[[1]],[[0.02210029]],TCB
103,[[1]],[[104]],[[4]],['low holistic'],['left'],['upright'],['U0061.bmp'],['female'],[[10]],['female'],[[1]],[[0.17218955]],TCB
104,[[1]],[[105]],[[9]],['low holistic'],['left'],['upright'],['U0155.bmp'],['male'],[[2]],['male'],[[1]],[[0.19731998]],TCB
105,[[1]],[[106]],[[14]],['high holistic'],['fovea'],['upright'],['U0228.bmp'],['male'],[[0]],['male'],[[1]],[[0.00016031]],TCB
106,[[1]],[[107]],[[11]],['high holistic'],['right'],['inverted'],['U0164.bmp'],['female'],[[12]],['male'],[[0]],[[0.25238973]],TCB
107,[[1]],[[108]],[[11]],['low holistic'],['right'],['upright'],['U0164.bmp'],['female'],[[8]],['female'],[[1]],[[0.18755939]],TCB
108,[[1]],[[109]],[[4]],['low holistic'],['right'],['upright'],['U0061.bmp'],['female'],[[6]],['female'],[[1]],[[0.01249244]],TCB
109,[[1]],[[110]],[[13]],['low holistic'],['left'],['upright'],['U0181.bmp'],['male'],[[8]],['male'],[[1]],[[0.69238991]],TCB
110,[[1]],[[111]],[[18]],['low holistic'],['left'],['upright'],['U0359.bmp'],['male'],[[10]],['male'],[[1]],[[1.19903283]],TCB
111,[[1]],[[112]],[[3]],['high holistic'],['right'],['inverted'],['U0020.bmp'],['male'],[[6]],['male'],[[1]],[[0.15222615]],TCB
112,[[1]],[[113]],[[7]],['low holistic'],['left'],['inverted'],['U0107.bmp'],['female'],[[10]],['female'],[[1]],[[0.17735359]],TCB
113,[[1]],[[114]],[[10]],['low holistic'],['right'],['inverted'],['U0159.bmp'],['female'],[[12]],['female'],[[1]],[[0.08297326]],TCB
114,[[1]],[[115]],[[20]],['low holistic'],['right'],['inverted'],['U0362.bmp'],['male'],[[4]],['female'],[[0]],[[0.04747278]],TCB
115,[[1]],[[116]],[[2]],['high holistic'],['left'],['upright'],['U0014.bmp'],['male'],[[10]],['male'],[[1]],[[0.00022399]],TCB
116,[[1]],[[117]],[[18]],['high holistic'],['right'],['upright'],['U0359.bmp'],['male'],[[12]],['male'],[[1]],[[0.26878973]],TCB
117,[[1]],[[118]],[[9]],['low holistic'],['left'],['inverted'],['U0155.bmp'],['male'],[[2]],['male'],[[1]],[[0.04997777]],TCB
118,[[1]],[[119]],[[13]],['low holistic'],['left'],['upright'],['U0181.bmp'],['male'],[[6]],['male'],[[1]],[[0.00018774]],TCB
119,[[1]],[[120]],[[2]],['high holistic'],['right'],['upright'],['U0014.bmp'],['male'],[[8]],['male'],[[1]],[[0.08928108]],TCB
120,[[1]],[[121]],[[18]],['low holistic'],['right'],['inverted'],['U0359.bmp'],['male'],[[12]],['male'],[[1]],[[0.18538991]],TCB
121,[[1]],[[122]],[[11]],['high holistic'],['fovea'],['inverted'],['U0164.bmp'],['female'],[[0]],['male'],[[0]],[[0.13001489]],TCB
122,[[1]],[[123]],[[18]],['low holistic'],['right'],['upright'],['U0359.bmp'],['male'],[[10]],['male'],[[1]],[[0.11654828]],TCB
123,[[1]],[[124]],[[3]],['high holistic'],['right'],['inverted'],['U0020.bmp'],['male'],[[4]],['male'],[[1]],[[0.02388314]],TCB
124,[[1]],[[125]],[[20]],['high holistic'],['right'],['upright'],['U0362.bmp'],['female'],[[8]],['female'],[[1]],[[0.00011069]],TCB
125,[[1]],[[126]],[[17]],['low holistic'],['left'],['upright'],['U0346.bmp'],['female'],[[12]],['female'],[[1]],[[0.11098323]],TCB
126,[[1]],[[127]],[[9]],['high holistic'],['left'],['upright'],['U0155.bmp'],['female'],[[12]],['male'],[[0]],[[0.01075861]],TCB
127,[[1]],[[128]],[[16]],['low holistic'],['left'],['upright'],['U0335.bmp'],['female'],[[12]],['female'],[[1]],[[0.0001006]],TCB
128,[[1]],[[129]],[[6]],['high holistic'],['right'],['upright'],['U0106.bmp'],['female'],[[6]],['female'],[[1]],[[0.00011408]],TCB
129,[[1]],[[130]],[[7]],['low holistic'],['left'],['inverted'],['U0107.bmp'],['female'],[[6]],['female'],[[1]],[[0.00030195]],TCB
130,[[1]],[[131]],[[14]],['high holistic'],['fovea'],['inverted'],['U0228.bmp'],['male'],[[0]],['male'],[[1]],[[0.09013277]],TCB
131,[[1]],[[132]],[[1]],['low holistic'],['right'],['inverted'],['U0006.bmp'],['female'],[[8]],['female'],[[1]],[[0.0001498]],TCB
132,[[1]],[[133]],[[19]],['low holistic'],['right'],['inverted'],['U0361.bmp'],['female'],[[4]],['female'],[[1]],[[0.00028534]],TCB
133,[[1]],[[134]],[[13]],['high holistic'],['left'],['upright'],['U0181.bmp'],['female'],[[2]],['female'],[[1]],[[0.00010033]],TCB
134,[[1]],[[135]],[[20]],['high holistic'],['left'],['upright'],['U0362.bmp'],['female'],[[10]],['female'],[[1]],[[0.03017106]],TCB
135,[[1]],[[136]],[[9]],['low holistic'],['right'],['inverted'],['U0155.bmp'],['male'],[[4]],['male'],[[1]],[[0.06900571]],TCB
136,[[1]],[[137]],[[12]],['high holistic'],['left'],['upright'],['U0178.bmp'],['male'],[[2]],['male'],[[1]],[[0.00010453]],TCB
137,[[1]],[[138]],[[18]],['low holistic'],['fovea'],['upright'],['U0359.bmp'],['male'],[[0]],['male'],[[1]],[[0.00017619]],TCB
138,[[1]],[[139]],[[11]],['high holistic'],['right'],['upright'],['U0164.bmp'],['female'],[[12]],['female'],[[1]],[[0.13741609]],TCB
139,[[1]],[[140]],[[9]],['high holistic'],['right'],['upright'],['U0155.bmp'],['female'],[[8]],['male'],[[0]],[[0.09178038]],TCB
140,[[1]],[[141]],[[14]],['low holistic'],['left'],['inverted'],['U0228.bmp'],['male'],[[10]],['male'],[[1]],[[0.06422325]],TCB
141,[[1]],[[142]],[[5]],['low holistic'],['left'],['inverted'],['U0076.bmp'],['male'],[[8]],['male'],[[1]],[[0.00010189]],TCB
142,[[1]],[[143]],[[18]],['low holistic'],['right'],['upright'],['U0359.bmp'],['male'],[[10]],['male'],[[1]],[[0.0461033]],TCB
143,[[1]],[[144]],[[20]],['low holistic'],['right'],['upright'],['U0362.bmp'],['male'],[[8]],['male'],[[1]],[[0.00010105]],TCB
144,[[1]],[[145]],[[19]],['low holistic'],['fovea'],['inverted'],['U0361.bmp'],['female'],[[0]],['female'],[[1]],[[0.03684572]],TCB
145,[[1]],[[146]],[[9]],['high holistic'],['right'],['inverted'],['U0155.bmp'],['female'],[[10]],['male'],[[0]],[[0.31587268]],TCB
146,[[1]],[[147]],[[18]],['low holistic'],['left'],['inverted'],['U0359.bmp'],['male'],[[8]],['male'],[[1]],[[0.00010173]],TCB
147,[[1]],[[148]],[[17]],['high holistic'],['right'],['upright'],['U0346.bmp'],['male'],[[8]],['male'],[[1]],[[0.00043242]],TCB
148,[[1]],[[149]],[[12]],['high holistic'],['left'],['inverted'],['U0178.bmp'],['male'],[[2]],['male'],[[1]],[[1.48730582]],TCB
149,[[1]],[[150]],[[10]],['high holistic'],['fovea'],['inverted'],['U0159.bmp'],['male'],[[0]],['male'],[[1]],[[0.00041645]],TCB
150,[[1]],[[151]],[[2]],['high holistic'],['left'],['upright'],['U0014.bmp'],['male'],[[6]],['male'],[[1]],[[0.00013761]],TCB
151,[[1]],[[152]],[[11]],['low holistic'],['right'],['inverted'],['U0164.bmp'],['female'],[[4]],['female'],[[1]],[[1.58628828]],TCB
152,[[1]],[[153]],[[7]],['high holistic'],['right'],['inverted'],['U0107.bmp'],['female'],[[6]],['male'],[[0]],[[0.14592611]],TCB
153,[[1]],[[154]],[[3]],['high holistic'],['right'],['inverted'],['U0020.bmp'],['male'],[[10]],['male'],[[1]],[[0.02124064]],TCB
154,[[1]],[[155]],[[18]],['high holistic'],['left'],['inverted'],['U0359.bmp'],['male'],[[2]],['male'],[[1]],[[0.00010853]],TCB
155,[[1]],[[156]],[[7]],['high holistic'],['right'],['inverted'],['U0107.bmp'],['female'],[[8]],['female'],[[1]],[[0.1173259]],TCB
156,[[1]],[[157]],[[18]],['high holistic'],['right'],['inverted'],['U0359.bmp'],['male'],[[12]],['female'],[[0]],[[0.10318079]],TCB
157,[[1]],[[158]],[[18]],['low holistic'],['fovea'],['inverted'],['U0359.bmp'],['male'],[[0]],['male'],[[1]],[[0.00011108]],TCB
158,[[1]],[[159]],[[15]],['low holistic'],['right'],['upright'],['U0312.bmp'],['male'],[[8]],['male'],[[1]],[[0.19567179]],TCB
159,[[1]],[[160]],[[20]],['low holistic'],['right'],['inverted'],['U0362.bmp'],['male'],[[4]],['male'],[[1]],[[0.10052914]],TCB
160,[[1]],[[161]],[[9]],['high holistic'],['left'],['upright'],['U0155.bmp'],['female'],[[2]],['male'],[[0]],[[0.63838035]],TCB
161,[[1]],[[162]],[[2]],['low holistic'],['left'],['inverted'],['U0014.bmp'],['male'],[[6]],['female'],[[0]],[[0.46306837]],TCB
162,[[1]],[[163]],[[7]],['low holistic'],['left'],['upright'],['U0107.bmp'],['female'],[[4]],['female'],[[1]],[[0.22827927]],TCB
163,[[1]],[[164]],[[4]],['low holistic'],['left'],['inverted'],['U0061.bmp'],['female'],[[4]],['female'],[[1]],[[0.47352681]],TCB
164,[[1]],[[165]],[[20]],['high holistic'],['left'],['inverted'],['U0362.bmp'],['female'],[[8]],['female'],[[1]],[[0.30315866]],TCB
165,[[1]],[[166]],[[16]],['high holistic'],['left'],['upright'],['U0335.bmp'],['female'],[[12]],['female'],[[1]],[[0.13198552]],TCB
166,[[1]],[[167]],[[11]],['high holistic'],['left'],['inverted'],['U0164.bmp'],['female'],[[12]],['male'],[[0]],[[0.10965061]],TCB
167,[[1]],[[168]],[[12]],['high holistic'],['left'],['upright'],['U0178.bmp'],['male'],[[10]],['male'],[[1]],[[0.02673057]],TCB
168,[[1]],[[169]],[[13]],['low holistic'],['right'],['upright'],['U0181.bmp'],['male'],[[6]],['male'],[[1]],[[0.89566477]],TCB
169,[[1]],[[170]],[[19]],['high holistic'],['right'],['upright'],['U0361.bmp'],['female'],[[12]],['female'],[[1]],[[0.0001968]],TCB
170,[[1]],[[171]],[[12]],['low holistic'],['left'],['inverted'],['U0178.bmp'],['female'],[[4]],['female'],[[1]],[[0.00011491]],TCB
171,[[1]],[[172]],[[7]],['low holistic'],['fovea'],['inverted'],['U0107.bmp'],['female'],[[0]],['female'],[[1]],[[0.05254609]],TCB
172,[[1]],[[173]],[[12]],['low holistic'],['left'],['inverted'],['U0178.bmp'],['female'],[[10]],['female'],[[1]],[[0.00019025]],TCB
173,[[1]],[[174]],[[17]],['low holistic'],['left'],['upright'],['U0346.bmp'],['female'],[[6]],['female'],[[1]],[[0.00016679]],TCB
174,[[1]],[[175]],[[7]],['high holistic'],['left'],['upright'],['U0107.bmp'],['female'],[[2]],['female'],[[1]],[[0.09029921]],TCB
175,[[1]],[[176]],[[5]],['high holistic'],['left'],['upright'],['U0076.bmp'],['female'],[[2]],['female'],[[1]],[[1.431149]],TCB
176,[[1]],[[177]],[[10]],['low holistic'],['right'],['inverted'],['U0159.bmp'],['female'],[[8]],['female'],[[1]],[[0.00013005]],TCB
177,[[1]],[[178]],[[15]],['high holistic'],['left'],['upright'],['U0312.bmp'],['male'],[[10]],['male'],[[1]],[[0.06306119]],TCB
178,[[1]],[[179]],[[18]],['high holistic'],['right'],['inverted'],['U0359.bmp'],['male'],[[4]],['male'],[[1]],[[0.00025019]],TCB
179,[[1]],[[180]],[[18]],['high holistic'],['right'],['upright'],['U0359.bmp'],['male'],[[12]],['male'],[[1]],[[0.10744053]],TCB
180,[[1]],[[181]],[[4]],['low holistic'],['right'],['inverted'],['U0061.bmp'],['female'],[[10]],['female'],[[1]],[[0.00041365]],TCB
181,[[1]],[[182]],[[4]],['low holistic'],['right'],['upright'],['U0061.bmp'],['female'],[[8]],['female'],[[1]],[[0.00010053]],TCB
182,[[1]],[[183]],[[8]],['high holistic'],['fovea'],['inverted'],['U0137.bmp'],['female'],[[0]],['male'],[[0]],[[0.11211466]],TCB
183,[[1]],[[184]],[[8]],['low holistic'],['left'],['inverted'],['U0137.bmp'],['male'],[[12]],['male'],[[1]],[[0.19447629]],TCB
184,[[1]],[[185]],[[4]],['low holistic'],['fovea'],['inverted'],['U0061.bmp'],['female'],[[0]],['female'],[[1]],[[0.00011784]],TCB
185,[[1]],[[186]],[[15]],['low holistic'],['right'],['upright'],['U0312.bmp'],['male'],[[10]],['male'],[[1]],[[0.55431926]],TCB
186,[[1]],[[187]],[[6]],['high holistic'],['right'],['upright'],['U0106.bmp'],['female'],[[10]],['female'],[[1]],[[0.16546771]],TCB
187,[[1]],[[188]],[[9]],['low holistic'],['right'],['upright'],['U0155.bmp'],['male'],[[10]],['male'],[[1]],[[0.05339191]],TCB
188,[[1]],[[189]],[[20]],['low holistic'],['right'],['inverted'],['U0362.bmp'],['male'],[[8]],['male'],[[1]],[[0.03556051]],TCB
189,[[1]],[[190]],[[16]],['low holistic'],['left'],['inverted'],['U0335.bmp'],['female'],[[10]],['female'],[[1]],[[0.18639069]],TCB
190,[[1]],[[191]],[[14]],['high holistic'],['left'],['inverted'],['U0228.bmp'],['male'],[[8]],['male'],[[1]],[[0.011191]],TCB
191,[[1]],[[192]],[[13]],['low holistic'],['left'],['inverted'],['U0181.bmp'],['male'],[[12]],['male'],[[1]],[[0.32279958]],TCB
192,[[1]],[[193]],[[15]],['low holistic'],['left'],['upright'],['U0312.bmp'],['male'],[[10]],['male'],[[1]],[[0.12636868]],TCB
193,[[1]],[[194]],[[19]],['high holistic'],['right'],['upright'],['U0361.bmp'],['female'],[[10]],['female'],[[1]],[[0.04867397]],TCB
194,[[1]],[[195]],[[12]],['high holistic'],['left'],['inverted'],['U0178.bmp'],['male'],[[2]],['male'],[[1]],[[0.67050643]],TCB
195,[[1]],[[196]],[[15]],['low holistic'],['left'],['inverted'],['U0312.bmp'],['male'],[[8]],['male'],[[1]],[[0.06659297]],TCB
196,[[1]],[[197]],[[3]],['high holistic'],['right'],['upright'],['U0020.bmp'],['male'],[[6]],['male'],[[1]],[[0.07283988]],TCB
197,[[1]],[[198]],[[16]],['high holistic'],['left'],['upright'],['U0335.bmp'],['female'],[[8]],['female'],[[1]],[[1.19776684]],TCB
198,[[1]],[[199]],[[13]],['low holistic'],['right'],['upright'],['U0181.bmp'],['male'],[[8]],['male'],[[1]],[[0.00010061]],TCB
199,[[1]],[[200]],[[4]],['low holistic'],['right'],['upright'],['U0061.bmp'],['female'],[[8]],['female'],[[1]],[[0.00010146]],TCB
200,[[1]],[[201]],[[19]],['low holistic'],['left'],['upright'],['U0361.bmp'],['female'],[[4]],['female'],[[1]],[[1.02885051]],TCB
201,[[1]],[[202]],[[17]],['high holistic'],['right'],['inverted'],['U0346.bmp'],['male'],[[12]],['male'],[[1]],[[0.14881204]],TCB
202,[[1]],[[203]],[[1]],['low holistic'],['left'],['inverted'],['U0006.bmp'],['female'],[[12]],['female'],[[1]],[[0.20832833]],TCB
203,[[1]],[[204]],[[14]],['low holistic'],['right'],['inverted'],['U0228.bmp'],['male'],[[4]],['male'],[[1]],[[0.19791389]],TCB
204,[[1]],[[205]],[[8]],['high holistic'],['right'],['inverted'],['U0137.bmp'],['female'],[[12]],['male'],[[0]],[[0.06308568]],TCB
205,[[1]],[[206]],[[20]],['high holistic'],['left'],['upright'],['U0362.bmp'],['female'],[[6]],['female'],[[1]],[[0.01178016]],TCB
206,[[1]],[[207]],[[19]],['high holistic'],['left'],['inverted'],['U0361.bmp'],['female'],[[10]],['male'],[[0]],[[0.00010106]],TCB
207,[[1]],[[208]],[[2]],['low holistic'],['left'],['inverted'],['U0014.bmp'],['male'],[[2]],['male'],[[1]],[[0.16375159]],TCB
208,[[1]],[[209]],[[2]],['low holistic'],['left'],['inverted'],['U0014.bmp'],['male'],[[4]],['male'],[[1]],[[0.03708466]],TCB
209,[[1]],[[210]],[[8]],['high holistic'],['right'],['inverted'],['U0137.bmp'],['female'],[[12]],['female'],[[1]],[[0.31560754]],TCB
210,[[1]],[[211]],[[1]],['high holistic'],['right'],['upright'],['U0006.bmp'],['female'],[[10]],['female'],[[1]],[[0.12805129]],TCB
211,[[1]],[[212]],[[12]],['low holistic'],['left'],['inverted'],['U0178.bmp'],['female'],[[6]],['female'],[[1]],[[0.04939454]],TCB
212,[[1]],[[213]],[[15]],['high holistic'],['right'],['upright'],['U0312.bmp'],['male'],[[4]],['male'],[[1]],[[0.00010269]],TCB
213,[[1]],[[214]],[[17]],['high holistic'],['left'],['upright'],['U0346.bmp'],['male'],[[12]],['male'],[[1]],[[0.00067051]],TCB
214,[[1]],[[215]],[[10]],['low holistic'],['left'],['upright'],['U0159.bmp'],['female'],[[10]],['female'],[[1]],[[0.08121422]],TCB
215,[[1]],[[216]],[[2]],['high holistic'],['right'],['inverted'],['U0014.bmp'],['male'],[[10]],['male'],[[1]],[[0.00550021]],TCB
216,[[1]],[[217]],[[1]],['low holistic'],['right'],['inverted'],['U0006.bmp'],['female'],[[6]],['female'],[[1]],[[0.00046109]],TCB
217,[[1]],[[218]],[[15]],['low holistic'],['left'],['inverted'],['U0312.bmp'],['male'],[[12]],['male'],[[1]],[[0.09182818]],TCB
218,[[1]],[[219]],[[14]],['low holistic'],['left'],['inverted'],['U0228.bmp'],['male'],[[12]],['male'],[[1]],[[0.00012188]],TCB
219,[[1]],[[220]],[[9]],['low holistic'],['right'],['upright'],['U0155.bmp'],['male'],[[12]],['male'],[[1]],[[0.12917506]],TCB
220,[[1]],[[221]],[[12]],['high holistic'],['left'],['inverted'],['U0178.bmp'],['male'],[[4]],['male'],[[1]],[[0.04480432]],TCB
221,[[1]],[[222]],[[1]],['low holistic'],['left'],['inverted'],['U0006.bmp'],['female'],[[2]],['female'],[[1]],[[0.00032057]],TCB
222,[[1]],[[223]],[[17]],['high holistic'],['left'],['upright'],['U0346.bmp'],['male'],[[12]],['male'],[[1]],[[0.02660231]],TCB
223,[[1]],[[224]],[[8]],['high holistic'],['left'],['upright'],['U0137.bmp'],['female'],[[12]],['female'],[[1]],[[0.08898227]],TCB
224,[[1]],[[225]],[[17]],['high holistic'],['right'],['inverted'],['U0346.bmp'],['male'],[[8]],['male'],[[1]],[[0.50796706]],TCB
225,[[1]],[[226]],[[19]],['high holistic'],['left'],['inverted'],['U0361.bmp'],['female'],[[6]],['male'],[[0]],[[0.04126839]],TCB
226,[[1]],[[227]],[[11]],['high holistic'],['right'],['inverted'],['U0164.bmp'],['female'],[[12]],['male'],[[0]],[[0.23065844]],TCB
227,[[1]],[[228]],[[1]],['low holistic'],['right'],['upright'],['U0006.bmp'],['female'],[[10]],['female'],[[1]],[[0.00013384]],TCB
228,[[1]],[[229]],[[9]],['high holistic'],['left'],['inverted'],['U0155.bmp'],['female'],[[4]],['male'],[[0]],[[0.00010134]],TCB
229,[[1]],[[230]],[[12]],['low holistic'],['left'],['upright'],['U0178.bmp'],['female'],[[4]],['female'],[[1]],[[0.00017339]],TCB
230,[[1]],[[231]],[[2]],['low holistic'],['right'],['upright'],['U0014.bmp'],['male'],[[6]],['male'],[[1]],[[1.06991857]],TCB
231,[[1]],[[232]],[[1]],['high holistic'],['right'],['upright'],['U0006.bmp'],['female'],[[8]],['female'],[[1]],[[0.00035935]],TCB
232,[[1]],[[233]],[[11]],['high holistic'],['right'],['inverted'],['U0164.bmp'],['female'],[[6]],['male'],[[0]],[[0.00942791]],TCB
233,[[1]],[[234]],[[6]],['low holistic'],['left'],['inverted'],['U0106.bmp'],['male'],[[10]],['male'],[[1]],[[9.95909795e-05]],TCB
234,[[1]],[[235]],[[15]],['high holistic'],['left'],['inverted'],['U0312.bmp'],['male'],[[12]],['male'],[[1]],[[0.43578738]],TCB
235,[[1]],[[236]],[[3]],['high holistic'],['left'],['upright'],['U0020.bmp'],['male'],[[2]],['male'],[[1]],[[0.00842278]],TCB
236,[[1]],[[237]],[[2]],['low holistic'],['left'],['upright'],['U0014.bmp'],['male'],[[10]],['male'],[[1]],[[0.00010107]],TCB
237,[[1]],[[238]],[[19]],['high holistic'],['left'],['upright'],['U0361.bmp'],['female'],[[8]],['female'],[[1]],[[0.13671886]],TCB
238,[[1]],[[239]],[[9]],['low holistic'],['right'],['upright'],['U0155.bmp'],['male'],[[12]],['male'],[[1]],[[1.15517906]],TCB
239,[[1]],[[240]],[[7]],['high holistic'],['left'],['upright'],['U0107.bmp'],['female'],[[4]],['female'],[[1]],[[0.39689857]],TCB
240,[[1]],[[241]],[[3]],['high holistic'],['right'],['upright'],['U0020.bmp'],['male'],[[6]],['male'],[[1]],[[0.1647279]],TCB
241,[[1]],[[242]],[[1]],['high holistic'],['right'],['inverted'],['U0006.bmp'],['female'],[[4]],['female'],[[1]],[[0.19874536]],TCB
242,[[1]],[[243]],[[2]],['high holistic'],['left'],['inverted'],['U0014.bmp'],['male'],[[6]],['male'],[[1]],[[0.11764224]],TCB
243,[[1]],[[244]],[[17]],['low holistic'],['left'],['upright'],['U0346.bmp'],['female'],[[2]],['female'],[[1]],[[0.00024504]],TCB
244,[[1]],[[245]],[[16]],['low holistic'],['right'],['inverted'],['U0335.bmp'],['female'],[[8]],['female'],[[1]],[[0.04991812]],TCB
245,[[1]],[[246]],[[10]],['high holistic'],['left'],['upright'],['U0159.bmp'],['male'],[[10]],['male'],[[1]],[[0.02266081]],TCB
246,[[1]],[[247]],[[13]],['high holistic'],['left'],['upright'],['U0181.bmp'],['female'],[[6]],['female'],[[1]],[[0.15811536]],TCB
247,[[1]],[[248]],[[6]],['high holistic'],['right'],['inverted'],['U0106.bmp'],['female'],[[10]],['female'],[[1]],[[0.26390387]],TCB
248,[[1]],[[249]],[[12]],['low holistic'],['right'],['upright'],['U0178.bmp'],['female'],[[12]],['female'],[[1]],[[9.97260213e-05]],TCB
249,[[1]],[[250]],[[12]],['high holistic'],['left'],['upright'],['U0178.bmp'],['male'],[[10]],['male'],[[1]],[[0.00011295]],TCB
250,[[1]],[[251]],[[19]],['high holistic'],['left'],['inverted'],['U0361.bmp'],['female'],[[6]],['male'],[[0]],[[1.10102595]],TCB
251,[[1]],[[252]],[[9]],['low holistic'],['right'],['upright'],['U0155.bmp'],['male'],[[10]],['male'],[[1]],[[0.00032261]],TCB
252,[[1]],[[253]],[[2]],['low holistic'],['left'],['upright'],['U0014.bmp'],['male'],[[12]],['male'],[[1]],[[0.00046467]],TCB
253,[[1]],[[254]],[[18]],['low holistic'],['left'],['inverted'],['U0359.bmp'],['male'],[[4]],['male'],[[1]],[[1.19161482]],TCB
254,[[1]],[[255]],[[6]],['high holistic'],['fovea'],['upright'],['U0106.bmp'],['female'],[[0]],['female'],[[1]],[[0.18366287]],TCB
255,[[1]],[[256]],[[15]],['high holistic'],['right'],['inverted'],['U0312.bmp'],['male'],[[8]],['male'],[[1]],[[0.04927787]],TCB
256,[[1]],[[257]],[[13]],['high holistic'],['right'],['upright'],['U0181.bmp'],['female'],[[8]],['female'],[[1]],[[0.15870339]],TCB
257,[[1]],[[258]],[[18]],['low holistic'],['right'],['inverted'],['U0359.bmp'],['male'],[[4]],['male'],[[1]],[[0.0001706]],TCB
258,[[1]],[[259]],[[12]],['high holistic'],['left'],['inverted'],['U0178.bmp'],['male'],[[2]],['male'],[[1]],[[0.11294649]],TCB
259,[[1]],[[260]],[[8]],['low holistic'],['right'],['inverted'],['U0137.bmp'],['male'],[[8]],['male'],[[1]],[[0.08326147]],TCB
260,[[1]],[[261]],[[11]],['low holistic'],['left'],['inverted'],['U0164.bmp'],['female'],[[4]],['female'],[[1]],[[0.07968482]],TCB
261,[[1]],[[262]],[[4]],['low holistic'],['right'],['upright'],['U0061.bmp'],['female'],[[8]],['female'],[[1]],[[0.1166527]],TCB
262,[[1]],[[263]],[[5]],['low holistic'],['right'],['inverted'],['U0076.bmp'],['male'],[[4]],['male'],[[1]],[[0.06361413]],TCB
263,[[1]],[[264]],[[18]],['low holistic'],['fovea'],['inverted'],['U0359.bmp'],['male'],[[0]],['male'],[[1]],[[0.00049934]],TCB
264,[[1]],[[265]],[[7]],['high holistic'],['right'],['upright'],['U0107.bmp'],['female'],[[10]],['female'],[[1]],[[0.27807604]],TCB
265,[[1]],[[266]],[[2]],['high holistic'],['left'],['inverted'],['U0014.bmp'],['male'],[[12]],['male'],[[1]],[[0.12297844]],TCB
266,[[1]],[[267]],[[15]],['low holistic'],['right'],['inverted'],['U0312.bmp'],['male'],[[12]],['male'],[[1]],[[0.00034532]],TCB
267,[[1]],[[268]],[[3]],['low holistic'],['left'],['upright'],['U0020.bmp'],['female'],[[8]],['female'],[[1]],[[0.11077851]],TCB
268,[[1]],[[269]],[[14]],['high holistic'],['right'],['inverted'],['U0228.bmp'],['male'],[[4]],['male'],[[1]],[[0.89829357]],TCB
269,[[1]],[[270]],[[9]],['high holistic'],['fovea'],['inverted'],['U0155.bmp'],['female'],[[0]],['male'],[[0]],[[0.09440347]],TCB
270,[[1]],[[271]],[[14]],['high holistic'],['left'],['upright'],['U0228.bmp'],['male'],[[10]],['male'],[[1]],[[0.00279575]],TCB
271,[[1]],[[272]],[[8]],['low holistic'],['right'],['upright'],['U0137.bmp'],['male'],[[6]],['male'],[[1]],[[0.01752192]],TCB
272,[[1]],[[273]],[[18]],['low holistic'],['left'],['upright'],['U0359.bmp'],['male'],[[6]],['male'],[[1]],[[0.90523863]],TCB
273,[[1]],[[274]],[[10]],['high holistic'],['left'],['inverted'],['U0159.bmp'],['male'],[[8]],['male'],[[1]],[[0.49325884]],TCB
274,[[1]],[[275]],[[3]],['high holistic'],['left'],['upright'],['U0020.bmp'],['male'],[[10]],['male'],[[1]],[[0.01619946]],TCB
275,[[1]],[[276]],[[3]],['low holistic'],['left'],['upright'],['U0020.bmp'],['female'],[[12]],['female'],[[1]],[[0.0575407]],TCB
276,[[1]],[[277]],[[9]],['low holistic'],['left'],['inverted'],['U0155.bmp'],['male'],[[2]],['male'],[[1]],[[0.78132756]],TCB
277,[[1]],[[278]],[[1]],['low holistic'],['left'],['inverted'],['U0006.bmp'],['female'],[[6]],['male'],[[0]],[[0.14235517]],TCB
278,[[1]],[[279]],[[1]],['low holistic'],['left'],['upright'],['U0006.bmp'],['female'],[[8]],['female'],[[1]],[[0.00062619]],TCB
279,[[1]],[[280]],[[13]],['low holistic'],['left'],['upright'],['U0181.bmp'],['male'],[[8]],['male'],[[1]],[[0.16885077]],TCB
280,[[1]],[[281]],[[10]],['low holistic'],['fovea'],['upright'],['U0159.bmp'],['female'],[[0]],['female'],[[1]],[[0.08281381]],TCB
281,[[1]],[[282]],[[19]],['high holistic'],['right'],['upright'],['U0361.bmp'],['female'],[[10]],['female'],[[1]],[[0.06337959]],TCB
282,[[1]],[[283]],[[19]],['high holistic'],['right'],['upright'],['U0361.bmp'],['female'],[[4]],['female'],[[1]],[[0.78895484]],TCB
283,[[1]],[[284]],[[16]],['high holistic'],['right'],['upright'],['U0335.bmp'],['female'],[[4]],['female'],[[1]],[[0.07702895]],TCB
284,[[1]],[[285]],[[19]],['high holistic'],['fovea'],['inverted'],['U0361.bmp'],['female'],[[0]],['female'],[[1]],[[0.03377672]],TCB
285,[[1]],[[286]],[[15]],['low holistic'],['left'],['inverted'],['U0312.bmp'],['male'],[[12]],['male'],[[1]],[[0.00022402]],TCB
286,[[1]],[[287]],[[16]],['low holistic'],['left'],['inverted'],['U0335.bmp'],['female'],[[2]],['female'],[[1]],[[0.17713964]],TCB
287,[[1]],[[288]],[[2]],['low holistic'],['fovea'],['upright'],['U0014.bmp'],['male'],[[0]],['male'],[[1]],[[0.00010131]],TCB
288,[[1]],[[289]],[[15]],['low holistic'],['right'],['upright'],['U0312.bmp'],['male'],[[6]],['male'],[[1]],[[0.01766307]],TCB
289,[[1]],[[290]],[[10]],['low holistic'],['left'],['upright'],['U0159.bmp'],['female'],[[12]],['female'],[[1]],[[0.00925151]],TCB
290,[[1]],[[291]],[[8]],['low holistic'],['right'],['upright'],['U0137.bmp'],['male'],[[12]],['male'],[[1]],[[0.00010256]],TCB
291,[[1]],[[292]],[[10]],['high holistic'],['left'],['inverted'],['U0159.bmp'],['male'],[[2]],['female'],[[0]],[[0.15133155]],TCB
292,[[1]],[[293]],[[13]],['high holistic'],['left'],['inverted'],['U0181.bmp'],['female'],[[4]],['male'],[[0]],[[0.01031552]],TCB
293,[[1]],[[294]],[[8]],['high holistic'],['left'],['inverted'],['U0137.bmp'],['female'],[[2]],['female'],[[1]],[[0.11376434]],TCB
294,[[1]],[[295]],[[19]],['low holistic'],['right'],['upright'],['U0361.bmp'],['female'],[[8]],['female'],[[1]],[[0.00019396]],TCB
295,[[1]],[[296]],[[15]],['low holistic'],['left'],['inverted'],['U0312.bmp'],['male'],[[10]],['male'],[[1]],[[0.00010133]],TCB
296,[[1]],[[297]],[[18]],['low holistic'],['right'],['inverted'],['U0359.bmp'],['male'],[[6]],['male'],[[1]],[[0.13228203]],TCB
297,[[1]],[[298]],[[4]],['high holistic'],['right'],['upright'],['U0061.bmp'],['female'],[[12]],['female'],[[1]],[[0.44820135]],TCB
298,[[1]],[[299]],[[16]],['low holistic'],['left'],['inverted'],['U0335.bmp'],['female'],[[12]],['female'],[[1]],[[0.06322557]],TCB
299,[[1]],[[300]],[[10]],['low holistic'],['fovea'],['inverted'],['U0159.bmp'],['female'],[[0]],['female'],[[1]],[[0.03517245]],TCB
300,[[1]],[[301]],[[1]],['low holistic'],['right'],['upright'],['U0006.bmp'],['female'],[[8]],['female'],[[1]],[[0.83591331]],TCB
301,[[1]],[[302]],[[11]],['high holistic'],['left'],['inverted'],['U0164.bmp'],['female'],[[8]],['female'],[[1]],[[0.29731787]],TCB
302,[[1]],[[303]],[[20]],['low holistic'],['left'],['upright'],['U0362.bmp'],['male'],[[12]],['male'],[[1]],[[0.02072914]],TCB
303,[[1]],[[304]],[[6]],['high holistic'],['right'],['upright'],['U0106.bmp'],['female'],[[6]],['female'],[[1]],[[0.03585984]],TCB
304,[[1]],[[305]],[[13]],['high holistic'],['right'],['upright'],['U0181.bmp'],['female'],[[10]],['female'],[[1]],[[0.05820066]],TCB
305,[[1]],[[306]],[[12]],['high holistic'],['right'],['inverted'],['U0178.bmp'],['male'],[[6]],['male'],[[1]],[[0.35933247]],TCB
306,[[1]],[[307]],[[20]],['low holistic'],['left'],['upright'],['U0362.bmp'],['male'],[[12]],['male'],[[1]],[[0.00224116]],TCB
307,[[1]],[[308]],[[4]],['high holistic'],['left'],['upright'],['U0061.bmp'],['female'],[[4]],['female'],[[1]],[[0.68933733]],TCB
308,[[1]],[[309]],[[18]],['high holistic'],['left'],['inverted'],['U0359.bmp'],['male'],[[12]],['male'],[[1]],[[0.14169125]],TCB
309,[[1]],[[310]],[[11]],['high holistic'],['right'],['upright'],['U0164.bmp'],['female'],[[8]],['female'],[[1]],[[0.2806464]],TCB
310,[[1]],[[311]],[[3]],['high holistic'],['left'],['inverted'],['U0020.bmp'],['male'],[[10]],['male'],[[1]],[[0.17338937]],TCB
311,[[1]],[[312]],[[4]],['low holistic'],['right'],['upright'],['U0061.bmp'],['female'],[[12]],['female'],[[1]],[[0.23784753]],TCB
312,[[1]],[[313]],[[1]],['high holistic'],['left'],['inverted'],['U0006.bmp'],['female'],[[4]],['female'],[[1]],[[0.2616752]],TCB
313,[[1]],[[314]],[[18]],['low holistic'],['right'],['inverted'],['U0359.bmp'],['male'],[[10]],['male'],[[1]],[[0.0898156]],TCB
314,[[1]],[[315]],[[19]],['high holistic'],['right'],['upright'],['U0361.bmp'],['female'],[[10]],['female'],[[1]],[[0.20573989]],TCB
315,[[1]],[[316]],[[14]],['high holistic'],['right'],['upright'],['U0228.bmp'],['male'],[[8]],['male'],[[1]],[[0.00803526]],TCB
316,[[1]],[[317]],[[10]],['high holistic'],['right'],['upright'],['U0159.bmp'],['male'],[[10]],['male'],[[1]],[[0.0001351]],TCB
317,[[1]],[[318]],[[2]],['low holistic'],['right'],['inverted'],['U0014.bmp'],['male'],[[10]],['male'],[[1]],[[0.1330439]],TCB
318,[[1]],[[319]],[[20]],['high holistic'],['right'],['upright'],['U0362.bmp'],['female'],[[6]],['female'],[[1]],[[0.0729744]],TCB
319,[[1]],[[320]],[[11]],['low holistic'],['right'],['upright'],['U0164.bmp'],['female'],[[4]],['female'],[[1]],[[0.29421969]],TCB
320,[[1]],[[321]],[[14]],['high holistic'],['left'],['inverted'],['U0228.bmp'],['male'],[[4]],['male'],[[1]],[[0.00016891]],TCB
321,[[1]],[[322]],[[6]],['low holistic'],['left'],['inverted'],['U0106.bmp'],['male'],[[2]],['male'],[[1]],[[0.21000636]],TCB
322,[[1]],[[323]],[[8]],['low holistic'],['left'],['upright'],['U0137.bmp'],['male'],[[12]],['male'],[[1]],[[0.35399038]],TCB
323,[[1]],[[324]],[[18]],['high holistic'],['right'],['upright'],['U0359.bmp'],['male'],[[10]],['male'],[[1]],[[0.0827085]],TCB
324,[[1]],[[325]],[[5]],['low holistic'],['left'],['inverted'],['U0076.bmp'],['male'],[[12]],['male'],[[1]],[[0.28769096]],TCB
325,[[1]],[[326]],[[15]],['high holistic'],['left'],['upright'],['U0312.bmp'],['male'],[[6]],['male'],[[1]],[[0.03561443]],TCB
326,[[1]],[[327]],[[2]],['high holistic'],['right'],['upright'],['U0014.bmp'],['male'],[[8]],['male'],[[1]],[[0.0001017]],TCB
327,[[1]],[[328]],[[10]],['high holistic'],['right'],['inverted'],['U0159.bmp'],['male'],[[12]],['male'],[[1]],[[0.05102456]],TCB
328,[[1]],[[329]],[[3]],['high holistic'],['left'],['inverted'],['U0020.bmp'],['male'],[[8]],['male'],[[1]],[[0.06460336]],TCB
329,[[1]],[[330]],[[10]],['high holistic'],['right'],['upright'],['U0159.bmp'],['male'],[[6]],['male'],[[1]],[[0.03082332]],TCB
330,[[1]],[[331]],[[8]],['low holistic'],['right'],['inverted'],['U0137.bmp'],['male'],[[8]],['male'],[[1]],[[0.19733762]],TCB
331,[[1]],[[332]],[[14]],['low holistic'],['right'],['upright'],['U0228.bmp'],['male'],[[8]],['male'],[[1]],[[0.00021611]],TCB
332,[[1]],[[333]],[[17]],['low holistic'],['left'],['inverted'],['U0346.bmp'],['female'],[[2]],['female'],[[1]],[[0.0002706]],TCB
333,[[1]],[[334]],[[14]],['high holistic'],['right'],['upright'],['U0228.bmp'],['male'],[[12]],['male'],[[1]],[[0.00049434]],TCB
334,[[1]],[[335]],[[10]],['low holistic'],['right'],['upright'],['U0159.bmp'],['female'],[[10]],['female'],[[1]],[[0.14251667]],TCB
335,[[1]],[[336]],[[6]],['high holistic'],['left'],['inverted'],['U0106.bmp'],['female'],[[12]],['male'],[[0]],[[0.00035261]],TCB
336,[[1]],[[337]],[[18]],['low holistic'],['left'],['upright'],['U0359.bmp'],['male'],[[10]],['male'],[[1]],[[0.03938052]],TCB
337,[[1]],[[338]],[[7]],['low holistic'],['right'],['upright'],['U0107.bmp'],['female'],[[6]],['female'],[[1]],[[0.1091042]],TCB
338,[[1]],[[339]],[[5]],['low holistic'],['left'],['inverted'],['U0076.bmp'],['male'],[[12]],['male'],[[1]],[[0.67291335]],TCB
339,[[1]],[[340]],[[10]],['high holistic'],['left'],['upright'],['U0159.bmp'],['male'],[[6]],['male'],[[1]],[[0.00016248]],TCB
340,[[1]],[[341]],[[3]],['low holistic'],['right'],['upright'],['U0020.bmp'],['female'],[[4]],['female'],[[1]],[[0.06942098]],TCB
341,[[1]],[[342]],[[14]],['low holistic'],['right'],['inverted'],['U0228.bmp'],['male'],[[12]],['male'],[[1]],[[0.00015644]],TCB
342,[[1]],[[343]],[[5]],['low holistic'],['left'],['upright'],['U0076.bmp'],['male'],[[2]],['male'],[[1]],[[0.05923415]],TCB
343,[[1]],[[344]],[[2]],['low holistic'],['right'],['upright'],['U0014.bmp'],['male'],[[10]],['male'],[[1]],[[0.00019828]],TCB
344,[[1]],[[345]],[[15]],['high holistic'],['right'],['inverted'],['U0312.bmp'],['male'],[[10]],['female'],[[0]],[[0.15414841]],TCB
345,[[1]],[[346]],[[20]],['high holistic'],['right'],['inverted'],['U0362.bmp'],['female'],[[10]],['female'],[[1]],[[0.11480473]],TCB
346,[[1]],[[347]],[[20]],['low holistic'],['left'],['upright'],['U0362.bmp'],['male'],[[12]],['male'],[[1]],[[0.00018806]],TCB
347,[[1]],[[348]],[[2]],['low holistic'],['right'],['upright'],['U0014.bmp'],['male'],[[8]],['male'],[[1]],[[0.00026802]],TCB
348,[[1]],[[349]],[[16]],['high holistic'],['left'],['upright'],['U0335.bmp'],['female'],[[8]],['male'],[[0]],[[0.15833874]],TCB
349,[[1]],[[350]],[[4]],['high holistic'],['right'],['inverted'],['U0061.bmp'],['female'],[[10]],['male'],[[0]],[[0.00020507]],TCB
350,[[1]],[[351]],[[1]],['high holistic'],['left'],['inverted'],['U0006.bmp'],['female'],[[2]],['female'],[[1]],[[0.1766689]],TCB
351,[[1]],[[352]],[[12]],['low holistic'],['left'],['inverted'],['U0178.bmp'],['female'],[[6]],['female'],[[1]],[[0.3610483]],TCB
352,[[1]],[[353]],[[8]],['high holistic'],['left'],['inverted'],['U0137.bmp'],['female'],[[2]],['female'],[[1]],[[0.10814969]],TCB
353,[[1]],[[354]],[[10]],['high holistic'],['left'],['upright'],['U0159.bmp'],['male'],[[12]],['male'],[[1]],[[0.00011605]],TCB
354,[[1]],[[355]],[[12]],['high holistic'],['left'],['inverted'],['U0178.bmp'],['male'],[[2]],['male'],[[1]],[[0.96705453]],TCB
355,[[1]],[[356]],[[15]],['high holistic'],['left'],['inverted'],['U0312.bmp'],['male'],[[4]],['male'],[[1]],[[0.02346181]],TCB
356,[[1]],[[357]],[[16]],['high holistic'],['right'],['inverted'],['U0335.bmp'],['female'],[[10]],['male'],[[0]],[[0.00015521]],TCB
357,[[1]],[[358]],[[1]],['low holistic'],['left'],['inverted'],['U0006.bmp'],['female'],[[2]],['female'],[[1]],[[0.00017434]],TCB
358,[[1]],[[359]],[[10]],['high holistic'],['left'],['upright'],['U0159.bmp'],['male'],[[12]],['male'],[[1]],[[0.00010209]],TCB
359,[[1]],[[360]],[[10]],['high holistic'],['left'],['upright'],['U0159.bmp'],['male'],[[8]],['male'],[[1]],[[0.00014368]],TCB
360,[[1]],[[361]],[[11]],['low holistic'],['right'],['inverted'],['U0164.bmp'],['female'],[[6]],['female'],[[1]],[[0.22946594]],TCB
361,[[1]],[[362]],[[16]],['low holistic'],['right'],['inverted'],['U0335.bmp'],['female'],[[4]],['female'],[[1]],[[0.00010198]],TCB
362,[[1]],[[363]],[[20]],['high holistic'],['fovea'],['upright'],['U0362.bmp'],['female'],[[0]],['female'],[[1]],[[0.00036208]],TCB
363,[[1]],[[364]],[[1]],['high holistic'],['left'],['upright'],['U0006.bmp'],['female'],[[12]],['female'],[[1]],[[0.00010105]],TCB
364,[[1]],[[365]],[[1]],['high holistic'],['right'],['inverted'],['U0006.bmp'],['female'],[[12]],['female'],[[1]],[[0.1881097]],TCB
365,[[1]],[[366]],[[19]],['high holistic'],['right'],['upright'],['U0361.bmp'],['female'],[[4]],['female'],[[1]],[[0.00010102]],TCB
366,[[1]],[[367]],[[14]],['low holistic'],['fovea'],['upright'],['U0228.bmp'],['male'],[[0]],['male'],[[1]],[[1.24359504]],TCB
367,[[1]],[[368]],[[15]],['low holistic'],['right'],['inverted'],['U0312.bmp'],['male'],[[6]],['male'],[[1]],[[0.13732789]],TCB
368,[[1]],[[369]],[[3]],['high holistic'],['left'],['inverted'],['U0020.bmp'],['male'],[[2]],['male'],[[1]],[[0.11693597]],TCB
369,[[1]],[[370]],[[6]],['high holistic'],['right'],['inverted'],['U0106.bmp'],['female'],[[4]],['female'],[[1]],[[0.08038456]],TCB
370,[[1]],[[371]],[[15]],['low holistic'],['left'],['inverted'],['U0312.bmp'],['male'],[[4]],['male'],[[1]],[[0.00011306]],TCB
371,[[1]],[[372]],[[7]],['high holistic'],['fovea'],['upright'],['U0107.bmp'],['female'],[[0]],['female'],[[1]],[[0.07558096]],TCB
372,[[1]],[[373]],[[1]],['low holistic'],['right'],['upright'],['U0006.bmp'],['female'],[[4]],['female'],[[1]],[[0.08063594]],TCB
373,[[1]],[[374]],[[11]],['high holistic'],['left'],['upright'],['U0164.bmp'],['female'],[[4]],['female'],[[1]],[[0.01399918]],TCB
374,[[1]],[[375]],[[7]],['low holistic'],['right'],['upright'],['U0107.bmp'],['female'],[[8]],['female'],[[1]],[[0.00010062]],TCB
375,[[1]],[[376]],[[6]],['low holistic'],['left'],['inverted'],['U0106.bmp'],['male'],[[4]],['male'],[[1]],[[0.08372951]],TCB
376,[[1]],[[377]],[[1]],['low holistic'],['right'],['upright'],['U0006.bmp'],['female'],[[8]],['female'],[[1]],[[0.00871549]],TCB
377,[[1]],[[378]],[[16]],['high holistic'],['fovea'],['upright'],['U0335.bmp'],['female'],[[0]],['female'],[[1]],[[0.86422974]],TCB
378,[[1]],[[379]],[[19]],['low holistic'],['left'],['inverted'],['U0361.bmp'],['female'],[[2]],['female'],[[1]],[[0.00031382]],TCB
379,[[1]],[[380]],[[11]],['high holistic'],['right'],['upright'],['U0164.bmp'],['female'],[[12]],['male'],[[0]],[[0.13426495]],TCB
380,[[1]],[[381]],[[4]],['low holistic'],['right'],['inverted'],['U0061.bmp'],['female'],[[4]],['female'],[[1]],[[0.00010117]],TCB
381,[[1]],[[382]],[[5]],['high holistic'],['left'],['inverted'],['U0076.bmp'],['female'],[[6]],['male'],[[0]],[[0.00018011]],TCB
382,[[1]],[[383]],[[7]],['low holistic'],['left'],['inverted'],['U0107.bmp'],['female'],[[8]],['female'],[[1]],[[0.00056609]],TCB
383,[[1]],[[384]],[[16]],['high holistic'],['right'],['upright'],['U0335.bmp'],['female'],[[4]],['female'],[[1]],[[9.96230228e-05]],TCB
384,[[1]],[[385]],[[8]],['low holistic'],['left'],['inverted'],['U0137.bmp'],['male'],[[4]],['male'],[[1]],[[0.14440167]],TCB
385,[[1]],[[386]],[[1]],['low holistic'],['right'],['upright'],['U0006.bmp'],['female'],[[8]],['female'],[[1]],[[0.15484253]],TCB
386,[[1]],[[387]],[[14]],['high holistic'],['fovea'],['inverted'],['U0228.bmp'],['male'],[[0]],['male'],[[1]],[[0.02797727]],TCB
387,[[1]],[[388]],[[6]],['low holistic'],['left'],['inverted'],['U0106.bmp'],['male'],[[4]],['male'],[[1]],[[0.12324739]],TCB
388,[[1]],[[389]],[[15]],['low holistic'],['left'],['inverted'],['U0312.bmp'],['male'],[[8]],['male'],[[1]],[[0.00023375]],TCB
389,[[1]],[[390]],[[11]],['low holistic'],['left'],['inverted'],['U0164.bmp'],['female'],[[12]],['female'],[[1]],[[0.00537173]],TCB
390,[[1]],[[391]],[[13]],['low holistic'],['left'],['inverted'],['U0181.bmp'],['male'],[[6]],['male'],[[1]],[[0.33388845]],TCB
391,[[1]],[[392]],[[14]],['high holistic'],['right'],['inverted'],['U0228.bmp'],['male'],[[6]],['male'],[[1]],[[0.15279811]],TCB
392,[[1]],[[393]],[[19]],['high holistic'],['right'],['upright'],['U0361.bmp'],['female'],[[8]],['female'],[[1]],[[0.0004449]],TCB
393,[[1]],[[394]],[[14]],['high holistic'],['left'],['inverted'],['U0228.bmp'],['male'],[[6]],['male'],[[1]],[[0.10623604]],TCB
394,[[1]],[[395]],[[1]],['high holistic'],['left'],['inverted'],['U0006.bmp'],['female'],[[4]],['female'],[[1]],[[0.0234524]],TCB
395,[[1]],[[396]],[[12]],['high holistic'],['left'],['upright'],['U0178.bmp'],['male'],[[12]],['male'],[[1]],[[0.00029398]],TCB
396,[[1]],[[397]],[[17]],['low holistic'],['right'],['inverted'],['U0346.bmp'],['female'],[[4]],['female'],[[1]],[[0.00010781]],TCB
397,[[1]],[[398]],[[13]],['low holistic'],['fovea'],['inverted'],['U0181.bmp'],['male'],[[0]],['male'],[[1]],[[1.18718566]],TCB
398,[[1]],[[399]],[[6]],['high holistic'],['right'],['inverted'],['U0106.bmp'],['female'],[[10]],['female'],[[1]],[[0.20421935]],TCB
399,[[1]],[[400]],[[14]],['low holistic'],['right'],['upright'],['U0228.bmp'],['male'],[[6]],['male'],[[1]],[[0.03744606]],TCB
400,[[1]],[[401]],[[11]],['high holistic'],['left'],['inverted'],['U0164.bmp'],['female'],[[4]],['male'],[[0]],[[0.99789729]],TCB
401,[[1]],[[402]],[[13]],['high holistic'],['left'],['inverted'],['U0181.bmp'],['female'],[[12]],['female'],[[1]],[[0.55531215]],TCB
402,[[1]],[[403]],[[7]],['low holistic'],['left'],['upright'],['U0107.bmp'],['female'],[[10]],['male'],[[0]],[[1.66170147]],TCB
403,[[1]],[[404]],[[11]],['low holistic'],['right'],['upright'],['U0164.bmp'],['female'],[[8]],['female'],[[1]],[[0.00013096]],TCB
404,[[1]],[[405]],[[17]],['high holistic'],['left'],['inverted'],['U0346.bmp'],['male'],[[2]],['female'],[[0]],[[0.09710725]],TCB
405,[[1]],[[406]],[[6]],['high holistic'],['right'],['upright'],['U0106.bmp'],['female'],[[10]],['female'],[[1]],[[0.09329344]],TCB
406,[[1]],[[407]],[[14]],['high holistic'],['left'],['inverted'],['U0228.bmp'],['male'],[[4]],['male'],[[1]],[[0.00010135]],TCB
407,[[1]],[[408]],[[11]],['low holistic'],['right'],['upright'],['U0164.bmp'],['female'],[[4]],['female'],[[1]],[[0.00011604]],TCB
408,[[1]],[[409]],[[9]],['low holistic'],['left'],['upright'],['U0155.bmp'],['male'],[[2]],['male'],[[1]],[[0.96164147]],TCB
409,[[1]],[[410]],[[19]],['high holistic'],['left'],['inverted'],['U0361.bmp'],['female'],[[10]],['male'],[[0]],[[0.1727567]],TCB
410,[[1]],[[411]],[[4]],['high holistic'],['left'],['upright'],['U0061.bmp'],['female'],[[10]],['female'],[[1]],[[0.04438291]],TCB
411,[[1]],[[412]],[[1]],['low holistic'],['right'],['upright'],['U0006.bmp'],['female'],[[12]],['female'],[[1]],[[0.02755456]],TCB
412,[[1]],[[413]],[[11]],['low holistic'],['fovea'],['inverted'],['U0164.bmp'],['female'],[[0]],['female'],[[1]],[[1.16855376]],TCB
413,[[1]],[[414]],[[11]],['high holistic'],['right'],['upright'],['U0164.bmp'],['female'],[[4]],['female'],[[1]],[[0.00052815]],TCB
414,[[1]],[[415]],[[16]],['low holistic'],['right'],['inverted'],['U0335.bmp'],['female'],[[10]],['female'],[[1]],[[0.82695227]],TCB
415,[[1]],[[416]],[[13]],['low holistic'],['left'],['inverted'],['U0181.bmp'],['male'],[[10]],['male'],[[1]],[[0.00020935]],TCB
416,[[1]],[[417]],[[15]],['high holistic'],['fovea'],['upright'],['U0312.bmp'],['male'],[[0]],['male'],[[1]],[[0.02481425]],TCB
417,[[1]],[[418]],[[1]],['low holistic'],['left'],['inverted'],['U0006.bmp'],['female'],[[8]],['female'],[[1]],[[0.07997457]],TCB
418,[[1]],[[419]],[[9]],['high holistic'],['right'],['upright'],['U0155.bmp'],['female'],[[4]],['male'],[[0]],[[0.0190689]],TCB
419,[[1]],[[420]],[[3]],['high holistic'],['left'],['inverted'],['U0020.bmp'],['male'],[[12]],['male'],[[1]],[[0.00047738]],TCB
420,[[1]],[[421]],[[2]],['low holistic'],['left'],['inverted'],['U0014.bmp'],['male'],[[2]],['male'],[[1]],[[0.94527419]],TCB
421,[[1]],[[422]],[[9]],['low holistic'],['left'],['upright'],['U0155.bmp'],['male'],[[4]],['male'],[[1]],[[0.20481514]],TCB
422,[[1]],[[423]],[[20]],['low holistic'],['left'],['inverted'],['U0362.bmp'],['male'],[[6]],['male'],[[1]],[[0.0359]],TCB
423,[[1]],[[424]],[[17]],['high holistic'],['left'],['inverted'],['U0346.bmp'],['male'],[[6]],['male'],[[1]],[[0.00023455]],TCB
424,[[1]],[[425]],[[10]],['high holistic'],['left'],['inverted'],['U0159.bmp'],['male'],[[8]],['male'],[[1]],[[0.98608891]],TCB
425,[[1]],[[426]],[[12]],['low holistic'],['left'],['inverted'],['U0178.bmp'],['female'],[[10]],['female'],[[1]],[[0.10533817]],TCB
426,[[1]],[[427]],[[8]],['high holistic'],['right'],['inverted'],['U0137.bmp'],['female'],[[4]],['female'],[[1]],[[0.03128612]],TCB
427,[[1]],[[428]],[[18]],['low holistic'],['left'],['inverted'],['U0359.bmp'],['male'],[[8]],['male'],[[1]],[[0.06911482]],TCB
428,[[1]],[[429]],[[6]],['high holistic'],['fovea'],['inverted'],['U0106.bmp'],['female'],[[0]],['female'],[[1]],[[0.00018224]],TCB
429,[[1]],[[430]],[[15]],['high holistic'],['right'],['inverted'],['U0312.bmp'],['male'],[[8]],['male'],[[1]],[[0.11402148]],TCB
430,[[1]],[[431]],[[6]],['low holistic'],['left'],['inverted'],['U0106.bmp'],['male'],[[6]],['male'],[[1]],[[0.00053935]],TCB
431,[[1]],[[432]],[[16]],['high holistic'],['right'],['upright'],['U0335.bmp'],['female'],[[6]],['female'],[[1]],[[0.00017681]],TCB
432,[[1]],[[433]],[[16]],['high holistic'],['left'],['inverted'],['U0335.bmp'],['female'],[[8]],['female'],[[1]],[[0.0001465]],TCB
433,[[1]],[[434]],[[7]],['high holistic'],['left'],['upright'],['U0107.bmp'],['female'],[[6]],['female'],[[1]],[[0.07710924]],TCB
434,[[1]],[[435]],[[20]],['high holistic'],['right'],['inverted'],['U0362.bmp'],['female'],[[10]],['male'],[[0]],[[0.03347316]],TCB
435,[[1]],[[436]],[[6]],['high holistic'],['left'],['upright'],['U0106.bmp'],['female'],[[10]],['female'],[[1]],[[0.15959973]],TCB
436,[[1]],[[437]],[[9]],['high holistic'],['left'],['upright'],['U0155.bmp'],['female'],[[4]],['female'],[[1]],[[0.15431058]],TCB
437,[[1]],[[438]],[[8]],['low holistic'],['right'],['inverted'],['U0137.bmp'],['male'],[[6]],['male'],[[1]],[[0.04447341]],TCB
438,[[1]],[[439]],[[16]],['high holistic'],['left'],['inverted'],['U0335.bmp'],['female'],[[10]],['female'],[[1]],[[0.00010175]],TCB
439,[[1]],[[440]],[[10]],['high holistic'],['right'],['inverted'],['U0159.bmp'],['male'],[[8]],['male'],[[1]],[[0.00022381]],TCB
440,[[1]],[[441]],[[12]],['low holistic'],['right'],['upright'],['U0178.bmp'],['female'],[[4]],['female'],[[1]],[[0.00035095]],TCB
441,[[1]],[[442]],[[8]],['low holistic'],['right'],['upright'],['U0137.bmp'],['male'],[[6]],['male'],[[1]],[[0.00024955]],TCB
442,[[1]],[[443]],[[8]],['low holistic'],['left'],['inverted'],['U0137.bmp'],['male'],[[8]],['male'],[[1]],[[0.12811434]],TCB
443,[[1]],[[444]],[[5]],['high holistic'],['right'],['upright'],['U0076.bmp'],['female'],[[4]],['female'],[[1]],[[0.12306979]],TCB
444,[[1]],[[445]],[[6]],['high holistic'],['right'],['upright'],['U0106.bmp'],['female'],[[12]],['female'],[[1]],[[0.00037017]],TCB
445,[[1]],[[446]],[[6]],['high holistic'],['right'],['inverted'],['U0106.bmp'],['female'],[[12]],['female'],[[1]],[[0.02312188]],TCB
446,[[1]],[[447]],[[19]],['high holistic'],['left'],['inverted'],['U0361.bmp'],['female'],[[8]],['male'],[[0]],[[0.00031467]],TCB
447,[[1]],[[448]],[[6]],['low holistic'],['fovea'],['upright'],['U0106.bmp'],['male'],[[0]],['male'],[[1]],[[0.03010517]],TCB
448,[[1]],[[449]],[[12]],['low holistic'],['left'],['upright'],['U0178.bmp'],['female'],[[10]],['female'],[[1]],[[0.02101734]],TCB
449,[[1]],[[450]],[[1]],['high holistic'],['right'],['upright'],['U0006.bmp'],['female'],[[8]],['female'],[[1]],[[0.04260358]],TCB
450,[[1]],[[451]],[[9]],['high holistic'],['right'],['upright'],['U0155.bmp'],['female'],[[4]],['female'],[[1]],[[0.81671638]],TCB
451,[[1]],[[452]],[[4]],['low holistic'],['right'],['upright'],['U0061.bmp'],['female'],[[10]],['female'],[[1]],[[0.86634377]],TCB
452,[[1]],[[453]],[[14]],['high holistic'],['left'],['upright'],['U0228.bmp'],['male'],[[2]],['male'],[[1]],[[1.14243692]],TCB
453,[[1]],[[454]],[[5]],['high holistic'],['left'],['inverted'],['U0076.bmp'],['female'],[[8]],['male'],[[0]],[[0.45699309]],TCB
454,[[1]],[[455]],[[13]],['high holistic'],['right'],['upright'],['U0181.bmp'],['female'],[[4]],['male'],[[0]],[[0.94241926]],TCB
455,[[1]],[[456]],[[9]],['high holistic'],['left'],['upright'],['U0155.bmp'],['female'],[[12]],['female'],[[1]],[[0.27984599]],TCB
456,[[1]],[[457]],[[8]],['low holistic'],['fovea'],['upright'],['U0137.bmp'],['male'],[[0]],['male'],[[1]],[[2.97965718]],TCB
457,[[1]],[[458]],[[19]],['low holistic'],['left'],['upright'],['U0361.bmp'],['female'],[[6]],['female'],[[1]],[[0.00016526]],TCB
458,[[1]],[[459]],[[11]],['low holistic'],['right'],['upright'],['U0164.bmp'],['female'],[[4]],['female'],[[1]],[[0.00014683]],TCB
459,[[1]],[[460]],[[10]],['low holistic'],['left'],['inverted'],['U0159.bmp'],['female'],[[12]],['female'],[[1]],[[0.06202704]],TCB
460,[[1]],[[461]],[[17]],['high holistic'],['left'],['upright'],['U0346.bmp'],['male'],[[12]],['male'],[[1]],[[0.00017113]],TCB
461,[[1]],[[462]],[[15]],['high holistic'],['left'],['upright'],['U0312.bmp'],['male'],[[2]],['male'],[[1]],[[0.00010246]],TCB
462,[[1]],[[463]],[[10]],['high holistic'],['left'],['upright'],['U0159.bmp'],['male'],[[4]],['male'],[[1]],[[0.01771789]],TCB
463,[[1]],[[464]],[[16]],['high holistic'],['left'],['inverted'],['U0335.bmp'],['female'],[[10]],['male'],[[0]],[[0.00010172]],TCB
464,[[1]],[[465]],[[13]],['low holistic'],['right'],['inverted'],['U0181.bmp'],['male'],[[10]],['male'],[[1]],[[0.12895436]],TCB
465,[[1]],[[466]],[[14]],['low holistic'],['right'],['upright'],['U0228.bmp'],['male'],[[12]],['male'],[[1]],[[0.00010965]],TCB
466,[[1]],[[467]],[[2]],['low holistic'],['right'],['inverted'],['U0014.bmp'],['male'],[[6]],['male'],[[1]],[[1.0434897]],TCB
467,[[1]],[[468]],[[3]],['low holistic'],['left'],['inverted'],['U0020.bmp'],['female'],[[6]],['female'],[[1]],[[0.08969441]],TCB
468,[[1]],[[469]],[[4]],['low holistic'],['right'],['inverted'],['U0061.bmp'],['female'],[[10]],['female'],[[1]],[[0.04449541]],TCB
469,[[1]],[[470]],[[9]],['high holistic'],['left'],['upright'],['U0155.bmp'],['female'],[[6]],['female'],[[1]],[[0.00018693]],TCB
470,[[1]],[[471]],[[7]],['low holistic'],['left'],['inverted'],['U0107.bmp'],['female'],[[10]],['female'],[[1]],[[1.09898257]],TCB
471,[[1]],[[472]],[[9]],['high holistic'],['left'],['upright'],['U0155.bmp'],['female'],[[10]],['female'],[[1]],[[0.00011401]],TCB
472,[[1]],[[473]],[[20]],['high holistic'],['right'],['inverted'],['U0362.bmp'],['female'],[[12]],['female'],[[1]],[[0.00023085]],TCB
473,[[1]],[[474]],[[9]],['low holistic'],['left'],['inverted'],['U0155.bmp'],['male'],[[12]],['female'],[[0]],[[0.00014021]],TCB
474,[[1]],[[475]],[[7]],['low holistic'],['right'],['inverted'],['U0107.bmp'],['female'],[[10]],['female'],[[1]],[[0.00010273]],TCB
475,[[1]],[[476]],[[8]],['low holistic'],['left'],['upright'],['U0137.bmp'],['male'],[[10]],['male'],[[1]],[[1.2293588]],TCB
476,[[1]],[[477]],[[20]],['low holistic'],['left'],['upright'],['U0362.bmp'],['male'],[[6]],['male'],[[1]],[[0.00018295]],TCB
477,[[1]],[[478]],[[3]],['low holistic'],['right'],['upright'],['U0020.bmp'],['female'],[[4]],['female'],[[1]],[[1.16324442]],TCB
478,[[1]],[[479]],[[19]],['low holistic'],['left'],['upright'],['U0361.bmp'],['female'],[[2]],['female'],[[1]],[[0.00013652]],TCB
479,[[1]],[[480]],[[16]],['high holistic'],['left'],['inverted'],['U0335.bmp'],['female'],[[2]],['female'],[[1]],[[0.06199245]],TCB
480,[[1]],[[481]],[[6]],['low holistic'],['right'],['upright'],['U0106.bmp'],['male'],[[6]],['male'],[[1]],[[0.11993458]],TCB
481,[[1]],[[482]],[[1]],['low holistic'],['right'],['upright'],['U0006.bmp'],['female'],[[4]],['female'],[[1]],[[0.01843499]],TCB
482,[[1]],[[483]],[[16]],['high holistic'],['left'],['upright'],['U0335.bmp'],['female'],[[6]],['female'],[[1]],[[0.7866692]],TCB
483,[[1]],[[484]],[[14]],['high holistic'],['right'],['upright'],['U0228.bmp'],['male'],[[4]],['male'],[[1]],[[0.00030846]],TCB
484,[[1]],[[485]],[[15]],['low holistic'],['right'],['upright'],['U0312.bmp'],['male'],[[8]],['male'],[[1]],[[0.00010908]],TCB
485,[[1]],[[486]],[[4]],['low holistic'],['right'],['upright'],['U0061.bmp'],['female'],[[12]],['male'],[[0]],[[0.00047995]],TCB
486,[[1]],[[487]],[[2]],['low holistic'],['left'],['inverted'],['U0014.bmp'],['male'],[[10]],['male'],[[1]],[[0.00010192]],TCB
487,[[1]],[[488]],[[7]],['low holistic'],['right'],['upright'],['U0107.bmp'],['female'],[[4]],['female'],[[1]],[[0.00010259]],TCB
488,[[1]],[[489]],[[7]],['low holistic'],['right'],['inverted'],['U0107.bmp'],['female'],[[8]],['female'],[[1]],[[1.46447371]],TCB
489,[[1]],[[490]],[[8]],['low holistic'],['right'],['upright'],['U0137.bmp'],['male'],[[4]],['male'],[[1]],[[0.0001822]],TCB
490,[[1]],[[491]],[[16]],['high holistic'],['left'],['inverted'],['U0335.bmp'],['female'],[[2]],['female'],[[1]],[[0.03014519]],TCB
491,[[1]],[[492]],[[8]],['low holistic'],['right'],['inverted'],['U0137.bmp'],['male'],[[6]],['male'],[[1]],[[0.21237798]],TCB
492,[[1]],[[493]],[[12]],['high holistic'],['right'],['upright'],['U0178.bmp'],['male'],[[6]],['male'],[[1]],[[0.09790072]],TCB
493,[[1]],[[494]],[[4]],['high holistic'],['left'],['upright'],['U0061.bmp'],['female'],[[6]],['female'],[[1]],[[0.02301042]],TCB
494,[[1]],[[495]],[[1]],['low holistic'],['right'],['inverted'],['U0006.bmp'],['female'],[[12]],['female'],[[1]],[[0.03649618]],TCB
495,[[1]],[[496]],[[13]],['low holistic'],['right'],['inverted'],['U0181.bmp'],['male'],[[8]],['female'],[[0]],[[0.56494535]],TCB
496,[[1]],[[497]],[[3]],['low holistic'],['left'],['upright'],['U0020.bmp'],['female'],[[6]],['female'],[[1]],[[0.30907981]],TCB
497,[[1]],[[498]],[[12]],['high holistic'],['right'],['upright'],['U0178.bmp'],['male'],[[10]],['male'],[[1]],[[0.00012174]],TCB
498,[[1]],[[499]],[[19]],['low holistic'],['right'],['inverted'],['U0361.bmp'],['female'],[[6]],['female'],[[1]],[[0.16994283]],TCB
499,[[1]],[[500]],[[18]],['high holistic'],['left'],['upright'],['U0359.bmp'],['male'],[[4]],['male'],[[1]],[[0.00044731]],TCB
500,[[1]],[[501]],[[13]],['low holistic'],['left'],['upright'],['U0181.bmp'],['male'],[[10]],['male'],[[1]],[[0.00011562]],TCB
501,[[1]],[[502]],[[6]],['low holistic'],['right'],['upright'],['U0106.bmp'],['male'],[[8]],['male'],[[1]],[[0.00023591]],TCB
502,[[1]],[[503]],[[4]],['high holistic'],['right'],['upright'],['U0061.bmp'],['female'],[[12]],['male'],[[0]],[[0.25007175]],TCB
503,[[1]],[[504]],[[1]],['low holistic'],['fovea'],['upright'],['U0006.bmp'],['female'],[[0]],['female'],[[1]],[[0.00016824]],TCB
504,[[1]],[[505]],[[10]],['low holistic'],['left'],['inverted'],['U0159.bmp'],['female'],[[12]],['female'],[[1]],[[0.99821505]],TCB
505,[[1]],[[506]],[[20]],['high holistic'],['left'],['inverted'],['U0362.bmp'],['female'],[[12]],['female'],[[1]],[[0.18275298]],TCB
506,[[1]],[[507]],[[17]],['high holistic'],['left'],['upright'],['U0346.bmp'],['male'],[[8]],['male'],[[1]],[[0.000211]],TCB
507,[[1]],[[508]],[[16]],['high holistic'],['left'],['upright'],['U0335.bmp'],['female'],[[12]],['female'],[[1]],[[0.30193432]],TCB
508,[[1]],[[509]],[[15]],['low holistic'],['right'],['upright'],['U0312.bmp'],['male'],[[8]],['male'],[[1]],[[0.41938597]],TCB
509,[[1]],[[510]],[[16]],['low holistic'],['left'],['inverted'],['U0335.bmp'],['female'],[[10]],['female'],[[1]],[[0.1613562]],TCB
510,[[1]],[[511]],[[14]],['high holistic'],['left'],['upright'],['U0228.bmp'],['male'],[[6]],['male'],[[1]],[[0.02750651]],TCB
511,[[1]],[[512]],[[20]],['low holistic'],['right'],['upright'],['U0362.bmp'],['male'],[[6]],['male'],[[1]],[[0.21847805]],TCB
512,[[1]],[[513]],[[20]],['low holistic'],['left'],['upright'],['U0362.bmp'],['male'],[[8]],['male'],[[1]],[[0.00010579]],TCB
513,[[1]],[[514]],[[17]],['low holistic'],['fovea'],['upright'],['U0346.bmp'],['female'],[[0]],['female'],[[1]],[[0.00737853]],TCB
514,[[1]],[[515]],[[1]],['low holistic'],['right'],['upright'],['U0006.bmp'],['female'],[[6]],['male'],[[0]],[[0.54359464]],TCB
515,[[1]],[[516]],[[8]],['low holistic'],['right'],['inverted'],['U0137.bmp'],['male'],[[10]],['male'],[[1]],[[0.08188304]],TCB
516,[[1]],[[517]],[[8]],['high holistic'],['left'],['inverted'],['U0137.bmp'],['female'],[[12]],['female'],[[1]],[[0.60553542]],TCB
517,[[1]],[[518]],[[6]],['low holistic'],['left'],['upright'],['U0106.bmp'],['male'],[[12]],['male'],[[1]],[[0.06794719]],TCB
518,[[1]],[[519]],[[11]],['high holistic'],['left'],['upright'],['U0164.bmp'],['female'],[[10]],['female'],[[1]],[[0.15487001]],TCB
519,[[1]],[[520]],[[12]],['low holistic'],['right'],['upright'],['U0178.bmp'],['female'],[[4]],['female'],[[1]],[[0.16391861]],TCB
520,[[1]],[[521]],[[5]],['high holistic'],['left'],['upright'],['U0076.bmp'],['female'],[[8]],['female'],[[1]],[[0.13255229]],TCB
521,[[1]],[[522]],[[2]],['high holistic'],['left'],['inverted'],['U0014.bmp'],['male'],[[4]],['male'],[[1]],[[0.39155214]],TCB
522,[[1]],[[523]],[[9]],['high holistic'],['right'],['inverted'],['U0155.bmp'],['female'],[[8]],['male'],[[0]],[[0.4868938]],TCB
523,[[1]],[[524]],[[1]],['high holistic'],['left'],['upright'],['U0006.bmp'],['female'],[[6]],['female'],[[1]],[[1.67472711]],TCB
524,[[1]],[[525]],[[9]],['low holistic'],['left'],['inverted'],['U0155.bmp'],['male'],[[8]],['female'],[[0]],[[0.14382649]],TCB
525,[[1]],[[526]],[[19]],['high holistic'],['right'],['upright'],['U0361.bmp'],['female'],[[8]],['female'],[[1]],[[0.02706996]],TCB
526,[[1]],[[527]],[[18]],['high holistic'],['left'],['upright'],['U0359.bmp'],['male'],[[2]],['male'],[[1]],[[0.63179167]],TCB
527,[[1]],[[528]],[[15]],['high holistic'],['right'],['inverted'],['U0312.bmp'],['male'],[[8]],['male'],[[1]],[[0.54351222]],TCB
528,[[1]],[[529]],[[16]],['high holistic'],['right'],['inverted'],['U0335.bmp'],['female'],[[4]],['male'],[[0]],[[0.76123296]],TCB
529,[[1]],[[530]],[[16]],['low holistic'],['fovea'],['upright'],['U0335.bmp'],['female'],[[0]],['female'],[[1]],[[0.25047812]],TCB
530,[[1]],[[531]],[[16]],['high holistic'],['left'],['upright'],['U0335.bmp'],['female'],[[10]],['female'],[[1]],[[0.00012265]],TCB
531,[[1]],[[532]],[[7]],['high holistic'],['left'],['inverted'],['U0107.bmp'],['female'],[[8]],['female'],[[1]],[[0.00017936]],TCB
532,[[1]],[[533]],[[3]],['high holistic'],['right'],['upright'],['U0020.bmp'],['male'],[[12]],['male'],[[1]],[[0.06286668]],TCB
533,[[1]],[[534]],[[2]],['low holistic'],['right'],['upright'],['U0014.bmp'],['male'],[[12]],['male'],[[1]],[[0.00022009]],TCB
534,[[1]],[[535]],[[7]],['low holistic'],['right'],['upright'],['U0107.bmp'],['female'],[[12]],['female'],[[1]],[[0.26105127]],TCB
535,[[1]],[[536]],[[4]],['high holistic'],['right'],['inverted'],['U0061.bmp'],['female'],[[8]],['male'],[[0]],[[0.11380182]],TCB
536,[[1]],[[537]],[[12]],['high holistic'],['left'],['upright'],['U0178.bmp'],['male'],[[6]],['male'],[[1]],[[0.00013819]],TCB
537,[[1]],[[538]],[[3]],['low holistic'],['fovea'],['inverted'],['U0020.bmp'],['female'],[[0]],['female'],[[1]],[[0.00484207]],TCB
538,[[1]],[[539]],[[5]],['high holistic'],['right'],['inverted'],['U0076.bmp'],['female'],[[10]],['male'],[[0]],[[0.26612871]],TCB
539,[[1]],[[540]],[[9]],['high holistic'],['right'],['inverted'],['U0155.bmp'],['female'],[[6]],['male'],[[0]],[[0.05753184]],TCB
540,[[1]],[[541]],[[19]],['low holistic'],['left'],['upright'],['U0361.bmp'],['female'],[[8]],['female'],[[1]],[[0.00046857]],TCB
541,[[1]],[[542]],[[14]],['high holistic'],['right'],['upright'],['U0228.bmp'],['male'],[[12]],['male'],[[1]],[[0.00039906]],TCB
542,[[1]],[[543]],[[19]],['low holistic'],['right'],['upright'],['U0361.bmp'],['female'],[[4]],['female'],[[1]],[[0.06030435]],TCB
543,[[1]],[[544]],[[6]],['high holistic'],['left'],['upright'],['U0106.bmp'],['female'],[[12]],['female'],[[1]],[[0.14505322]],TCB
544,[[1]],[[545]],[[17]],['high holistic'],['right'],['inverted'],['U0346.bmp'],['male'],[[4]],['male'],[[1]],[[0.0598729]],TCB
545,[[1]],[[546]],[[1]],['low holistic'],['right'],['inverted'],['U0006.bmp'],['female'],[[6]],['male'],[[0]],[[0.00035867]],TCB
546,[[1]],[[547]],[[6]],['high holistic'],['right'],['inverted'],['U0106.bmp'],['female'],[[6]],['female'],[[1]],[[0.01008153]],TCB
547,[[1]],[[548]],[[10]],['low holistic'],['left'],['inverted'],['U0159.bmp'],['female'],[[6]],['female'],[[1]],[[0.03191249]],TCB
548,[[1]],[[549]],[[13]],['low holistic'],['left'],['upright'],['U0181.bmp'],['male'],[[2]],['male'],[[1]],[[0.00010954]],TCB
549,[[1]],[[550]],[[6]],['high holistic'],['right'],['upright'],['U0106.bmp'],['female'],[[6]],['female'],[[1]],[[0.00010195]],TCB
550,[[1]],[[551]],[[14]],['high holistic'],['right'],['inverted'],['U0228.bmp'],['male'],[[6]],['male'],[[1]],[[0.03050216]],TCB
551,[[1]],[[552]],[[1]],['low holistic'],['left'],['inverted'],['U0006.bmp'],['female'],[[12]],['female'],[[1]],[[0.11547174]],TCB
552,[[1]],[[553]],[[1]],['low holistic'],['right'],['inverted'],['U0006.bmp'],['female'],[[10]],['female'],[[1]],[[0.82426547]],TCB
553,[[1]],[[554]],[[15]],['low holistic'],['left'],['inverted'],['U0312.bmp'],['male'],[[12]],['male'],[[1]],[[0.18238492]],TCB
554,[[1]],[[555]],[[4]],['high holistic'],['left'],['upright'],['U0061.bmp'],['female'],[[4]],['female'],[[1]],[[0.00011598]],TCB
555,[[1]],[[556]],[[6]],['low holistic'],['fovea'],['upright'],['U0106.bmp'],['male'],[[0]],['male'],[[1]],[[0.03075783]],TCB
556,[[1]],[[557]],[[3]],['high holistic'],['right'],['upright'],['U0020.bmp'],['male'],[[6]],['male'],[[1]],[[0.00017001]],TCB
557,[[1]],[[558]],[[6]],['low holistic'],['left'],['inverted'],['U0106.bmp'],['male'],[[10]],['male'],[[1]],[[0.00034012]],TCB
558,[[1]],[[559]],[[9]],['low holistic'],['left'],['inverted'],['U0155.bmp'],['male'],[[6]],['male'],[[1]],[[0.1807963]],TCB
559,[[1]],[[560]],[[3]],['high holistic'],['right'],['inverted'],['U0020.bmp'],['male'],[[12]],['male'],[[1]],[[0.00030009]],TCB
560,[[1]],[[561]],[[16]],['low holistic'],['right'],['upright'],['U0335.bmp'],['female'],[[10]],['female'],[[1]],[[0.00043166]],TCB
561,[[1]],[[562]],[[5]],['high holistic'],['left'],['upright'],['U0076.bmp'],['female'],[[8]],['female'],[[1]],[[0.9157369]],TCB
562,[[1]],[[563]],[[11]],['high holistic'],['right'],['upright'],['U0164.bmp'],['female'],[[4]],['female'],[[1]],[[0.00010095]],TCB
563,[[1]],[[564]],[[2]],['low holistic'],['left'],['upright'],['U0014.bmp'],['male'],[[2]],['male'],[[1]],[[0.00034791]],TCB
564,[[1]],[[565]],[[14]],['low holistic'],['left'],['upright'],['U0228.bmp'],['male'],[[12]],['male'],[[1]],[[1.23150265]],TCB
565,[[1]],[[566]],[[15]],['low holistic'],['left'],['inverted'],['U0312.bmp'],['male'],[[4]],['male'],[[1]],[[0.00015952]],TCB
566,[[1]],[[567]],[[10]],['high holistic'],['left'],['upright'],['U0159.bmp'],['male'],[[2]],['male'],[[1]],[[0.07605667]],TCB
567,[[1]],[[568]],[[7]],['high holistic'],['left'],['upright'],['U0107.bmp'],['female'],[[4]],['female'],[[1]],[[0.1281407]],TCB
568,[[1]],[[569]],[[13]],['high holistic'],['right'],['upright'],['U0181.bmp'],['female'],[[12]],['female'],[[1]],[[0.00033952]],TCB
569,[[1]],[[570]],[[17]],['low holistic'],['right'],['inverted'],['U0346.bmp'],['female'],[[10]],['female'],[[1]],[[0.15584188]],TCB
570,[[1]],[[571]],[[3]],['high holistic'],['right'],['inverted'],['U0020.bmp'],['male'],[[10]],['male'],[[1]],[[0.12433494]],TCB
571,[[1]],[[572]],[[11]],['low holistic'],['fovea'],['upright'],['U0164.bmp'],['female'],[[0]],['female'],[[1]],[[0.00052021]],TCB
572,[[1]],[[573]],[[1]],['high holistic'],['right'],['upright'],['U0006.bmp'],['female'],[[8]],['female'],[[1]],[[0.00037893]],TCB
573,[[1]],[[574]],[[13]],['high holistic'],['right'],['upright'],['U0181.bmp'],['female'],[[4]],['female'],[[1]],[[0.07781149]],TCB
574,[[1]],[[575]],[[3]],['high holistic'],['right'],['upright'],['U0020.bmp'],['male'],[[10]],['male'],[[1]],[[0.60385822]],TCB
575,[[1]],[[576]],[[10]],['low holistic'],['left'],['inverted'],['U0159.bmp'],['female'],[[12]],['female'],[[1]],[[0.00027123]],TCB
576,[[1]],[[577]],[[20]],['low holistic'],['left'],['inverted'],['U0362.bmp'],['male'],[[4]],['male'],[[1]],[[0.03374914]],TCB
577,[[1]],[[578]],[[18]],['high holistic'],['left'],['inverted'],['U0359.bmp'],['male'],[[4]],['male'],[[1]],[[0.00034019]],TCB
578,[[1]],[[579]],[[5]],['high holistic'],['left'],['upright'],['U0076.bmp'],['female'],[[4]],['female'],[[1]],[[0.03145537]],TCB
579,[[1]],[[580]],[[11]],['high holistic'],['right'],['inverted'],['U0164.bmp'],['female'],[[8]],['male'],[[0]],[[0.15818611]],TCB
580,[[1]],[[581]],[[20]],['low holistic'],['left'],['inverted'],['U0362.bmp'],['male'],[[12]],['male'],[[1]],[[0.00010202]],TCB
581,[[1]],[[582]],[[9]],['low holistic'],['left'],['upright'],['U0155.bmp'],['male'],[[10]],['male'],[[1]],[[0.03982713]],TCB
582,[[1]],[[583]],[[9]],['high holistic'],['left'],['upright'],['U0155.bmp'],['female'],[[12]],['male'],[[0]],[[0.02135183]],TCB
583,[[1]],[[584]],[[16]],['low holistic'],['fovea'],['inverted'],['U0335.bmp'],['female'],[[0]],['female'],[[1]],[[0.1323878]],TCB
584,[[1]],[[585]],[[11]],['low holistic'],['fovea'],['upright'],['U0164.bmp'],['female'],[[0]],['female'],[[1]],[[0.02226741]],TCB
585,[[1]],[[586]],[[12]],['high holistic'],['left'],['upright'],['U0178.bmp'],['male'],[[2]],['male'],[[1]],[[0.00010312]],TCB
586,[[1]],[[587]],[[12]],['low holistic'],['left'],['upright'],['U0178.bmp'],['female'],[[2]],['female'],[[1]],[[0.90970775]],TCB
587,[[1]],[[588]],[[15]],['low holistic'],['left'],['upright'],['U0312.bmp'],['male'],[[6]],['male'],[[1]],[[0.00011106]],TCB
588,[[1]],[[589]],[[1]],['high holistic'],['fovea'],['upright'],['U0006.bmp'],['female'],[[0]],['female'],[[1]],[[0.00014585]],TCB
589,[[1]],[[590]],[[1]],['high holistic'],['left'],['upright'],['U0006.bmp'],['female'],[[12]],['female'],[[1]],[[0.00809252]],TCB
590,[[1]],[[591]],[[17]],['high holistic'],['left'],['inverted'],['U0346.bmp'],['male'],[[10]],['male'],[[1]],[[0.00026724]],TCB
591,[[1]],[[592]],[[5]],['low holistic'],['left'],['inverted'],['U0076.bmp'],['male'],[[2]],['male'],[[1]],[[0.09369737]],TCB
592,[[1]],[[593]],[[1]],['low holistic'],['right'],['inverted'],['U0006.bmp'],['female'],[[6]],['female'],[[1]],[[0.00031157]],TCB
593,[[1]],[[594]],[[15]],['low holistic'],['left'],['upright'],['U0312.bmp'],['male'],[[12]],['male'],[[1]],[[1.02590689]],TCB
594,[[1]],[[595]],[[16]],['high holistic'],['left'],['upright'],['U0335.bmp'],['female'],[[10]],['female'],[[1]],[[0.00064712]],TCB
595,[[1]],[[596]],[[6]],['high holistic'],['left'],['upright'],['U0106.bmp'],['female'],[[8]],['female'],[[1]],[[0.04764075]],TCB
596,[[1]],[[597]],[[15]],['high holistic'],['right'],['inverted'],['U0312.bmp'],['male'],[[6]],['female'],[[0]],[[0.0002091]],TCB
597,[[1]],[[598]],[[12]],['high holistic'],['left'],['inverted'],['U0178.bmp'],['male'],[[2]],['male'],[[1]],[[0.00010181]],TCB
598,[[1]],[[599]],[[12]],['low holistic'],['left'],['inverted'],['U0178.bmp'],['female'],[[4]],['female'],[[1]],[[0.00010208]],TCB
599,[[1]],[[600]],[[19]],['low holistic'],['left'],['inverted'],['U0361.bmp'],['female'],[[2]],['female'],[[1]],[[0.09264055]],TCB
600,[[1]],[[601]],[[12]],['high holistic'],['right'],['inverted'],['U0178.bmp'],['male'],[[10]],['male'],[[1]],[[0.39880209]],TCB
601,[[1]],[[602]],[[4]],['high holistic'],['right'],['upright'],['U0061.bmp'],['female'],[[4]],['male'],[[0]],[[0.51900144]],TCB
602,[[1]],[[603]],[[8]],['high holistic'],['right'],['inverted'],['U0137.bmp'],['female'],[[8]],['female'],[[1]],[[0.09757214]],TCB
603,[[1]],[[604]],[[1]],['high holistic'],['right'],['upright'],['U0006.bmp'],['female'],[[12]],['female'],[[1]],[[0.0845917]],TCB
604,[[1]],[[605]],[[17]],['high holistic'],['right'],['upright'],['U0346.bmp'],['male'],[[4]],['male'],[[1]],[[0.04763127]],TCB
605,[[1]],[[606]],[[4]],['high holistic'],['right'],['inverted'],['U0061.bmp'],['female'],[[12]],['male'],[[0]],[[1.09532456]],TCB
606,[[1]],[[607]],[[1]],['high holistic'],['left'],['inverted'],['U0006.bmp'],['female'],[[4]],['male'],[[0]],[[0.0001424]],TCB
607,[[1]],[[608]],[[2]],['low holistic'],['right'],['upright'],['U0014.bmp'],['male'],[[10]],['male'],[[1]],[[0.00046369]],TCB
608,[[1]],[[609]],[[2]],['low holistic'],['right'],['upright'],['U0014.bmp'],['male'],[[4]],['male'],[[1]],[[1.15431808]],TCB
609,[[1]],[[610]],[[9]],['low holistic'],['fovea'],['upright'],['U0155.bmp'],['male'],[[0]],['male'],[[1]],[[0.00017803]],TCB
610,[[1]],[[611]],[[15]],['high holistic'],['left'],['inverted'],['U0312.bmp'],['male'],[[2]],['male'],[[1]],[[0.00027664]],TCB
611,[[1]],[[612]],[[8]],['low holistic'],['left'],['inverted'],['U0137.bmp'],['male'],[[8]],['female'],[[0]],[[0.03384139]],TCB
612,[[1]],[[613]],[[4]],['high holistic'],['right'],['inverted'],['U0061.bmp'],['female'],[[4]],['male'],[[0]],[[0.00029195]],TCB
613,[[1]],[[614]],[[4]],['high holistic'],['right'],['inverted'],['U0061.bmp'],['female'],[[8]],['male'],[[0]],[[0.99248185]],TCB
614,[[1]],[[615]],[[12]],['high holistic'],['right'],['inverted'],['U0178.bmp'],['male'],[[4]],['male'],[[1]],[[0.0001881]],TCB
615,[[1]],[[616]],[[13]],['high holistic'],['left'],['inverted'],['U0181.bmp'],['female'],[[10]],['female'],[[1]],[[0.05639446]],TCB
616,[[1]],[[617]],[[9]],['low holistic'],['right'],['inverted'],['U0155.bmp'],['male'],[[10]],['male'],[[1]],[[0.00027477]],TCB
617,[[1]],[[618]],[[16]],['low holistic'],['right'],['inverted'],['U0335.bmp'],['female'],[[10]],['female'],[[1]],[[0.0001057]],TCB
618,[[1]],[[619]],[[17]],['low holistic'],['fovea'],['upright'],['U0346.bmp'],['female'],[[0]],['female'],[[1]],[[0.00011581]],TCB
619,[[1]],[[620]],[[16]],['low holistic'],['right'],['inverted'],['U0335.bmp'],['female'],[[10]],['female'],[[1]],[[0.09963039]],TCB
620,[[1]],[[621]],[[7]],['high holistic'],['right'],['upright'],['U0107.bmp'],['female'],[[12]],['female'],[[1]],[[0.67080028]],TCB
621,[[1]],[[622]],[[13]],['high holistic'],['left'],['inverted'],['U0181.bmp'],['female'],[[12]],['female'],[[1]],[[0.06039925]],TCB
622,[[1]],[[623]],[[12]],['high holistic'],['right'],['inverted'],['U0178.bmp'],['male'],[[8]],['female'],[[0]],[[0.34489636]],TCB
623,[[1]],[[624]],[[12]],['high holistic'],['left'],['inverted'],['U0178.bmp'],['male'],[[2]],['male'],[[1]],[[0.13864937]],TCB
624,[[1]],[[625]],[[6]],['low holistic'],['left'],['inverted'],['U0106.bmp'],['male'],[[8]],['male'],[[1]],[[0.11768556]],TCB
625,[[1]],[[626]],[[6]],['low holistic'],['left'],['upright'],['U0106.bmp'],['male'],[[8]],['male'],[[1]],[[0.00027689]],TCB
626,[[1]],[[627]],[[13]],['low holistic'],['fovea'],['inverted'],['U0181.bmp'],['male'],[[0]],['male'],[[1]],[[0.0093535]],TCB
627,[[1]],[[628]],[[7]],['low holistic'],['left'],['inverted'],['U0107.bmp'],['female'],[[6]],['female'],[[1]],[[0.22251484]],TCB
628,[[1]],[[629]],[[13]],['low holistic'],['right'],['inverted'],['U0181.bmp'],['male'],[[8]],['male'],[[1]],[[0.00012112]],TCB
629,[[1]],[[630]],[[13]],['low holistic'],['left'],['upright'],['U0181.bmp'],['male'],[[2]],['male'],[[1]],[[0.06880466]],TCB
630,[[1]],[[631]],[[15]],['low holistic'],['left'],['upright'],['U0312.bmp'],['male'],[[6]],['male'],[[1]],[[0.96163456]],TCB
631,[[1]],[[632]],[[10]],['low holistic'],['left'],['upright'],['U0159.bmp'],['female'],[[8]],['male'],[[0]],[[0.00014911]],TCB
632,[[1]],[[633]],[[3]],['low holistic'],['left'],['upright'],['U0020.bmp'],['female'],[[4]],['female'],[[1]],[[0.00010984]],TCB
633,[[1]],[[634]],[[5]],['high holistic'],['left'],['inverted'],['U0076.bmp'],['female'],[[10]],['male'],[[0]],[[0.00010676]],TCB
634,[[1]],[[635]],[[4]],['low holistic'],['right'],['upright'],['U0061.bmp'],['female'],[[4]],['female'],[[1]],[[0.00023382]],TCB
635,[[1]],[[636]],[[5]],['high holistic'],['right'],['upright'],['U0076.bmp'],['female'],[[10]],['female'],[[1]],[[0.00036261]],TCB
636,[[1]],[[637]],[[16]],['low holistic'],['right'],['inverted'],['U0335.bmp'],['female'],[[6]],['female'],[[1]],[[0.00040873]],TCB
637,[[1]],[[638]],[[14]],['high holistic'],['left'],['upright'],['U0228.bmp'],['male'],[[6]],['male'],[[1]],[[0.00037856]],TCB
638,[[1]],[[639]],[[16]],['high holistic'],['left'],['inverted'],['U0335.bmp'],['female'],[[10]],['male'],[[0]],[[0.00010638]],TCB
639,[[1]],[[640]],[[17]],['low holistic'],['left'],['inverted'],['U0346.bmp'],['female'],[[10]],['female'],[[1]],[[0.04817677]],TCB
640,[[1]],[[641]],[[6]],['high holistic'],['right'],['upright'],['U0106.bmp'],['female'],[[6]],['female'],[[1]],[[0.08705395]],TCB
641,[[1]],[[642]],[[1]],['high holistic'],['fovea'],['upright'],['U0006.bmp'],['female'],[[0]],['female'],[[1]],[[0.43544799]],TCB
642,[[1]],[[643]],[[3]],['low holistic'],['right'],['upright'],['U0020.bmp'],['female'],[[6]],['female'],[[1]],[[0.00019891]],TCB
643,[[1]],[[644]],[[15]],['high holistic'],['fovea'],['inverted'],['U0312.bmp'],['male'],[[0]],['male'],[[1]],[[0.36027999]],TCB
644,[[1]],[[645]],[[14]],['low holistic'],['left'],['inverted'],['U0228.bmp'],['male'],[[4]],['male'],[[1]],[[0.01091264]],TCB
645,[[1]],[[646]],[[2]],['low holistic'],['right'],['inverted'],['U0014.bmp'],['male'],[[12]],['male'],[[1]],[[0.19409877]],TCB
646,[[1]],[[647]],[[3]],['low holistic'],['left'],['upright'],['U0020.bmp'],['female'],[[12]],['female'],[[1]],[[0.0001847]],TCB
647,[[1]],[[648]],[[10]],['low holistic'],['right'],['upright'],['U0159.bmp'],['female'],[[4]],['female'],[[1]],[[0.00046818]],TCB
648,[[1]],[[649]],[[12]],['low holistic'],['left'],['upright'],['U0178.bmp'],['female'],[[12]],['female'],[[1]],[[0.00018589]],TCB
649,[[1]],[[650]],[[19]],['high holistic'],['right'],['upright'],['U0361.bmp'],['female'],[[10]],['female'],[[1]],[[0.00011699]],TCB
650,[[1]],[[651]],[[9]],['high holistic'],['right'],['inverted'],['U0155.bmp'],['female'],[[12]],['male'],[[0]],[[0.0640373]],TCB
651,[[1]],[[652]],[[16]],['low holistic'],['left'],['upright'],['U0335.bmp'],['female'],[[2]],['female'],[[1]],[[0.00010237]],TCB
652,[[1]],[[653]],[[8]],['high holistic'],['right'],['inverted'],['U0137.bmp'],['female'],[[10]],['male'],[[0]],[[0.17419629]],TCB
653,[[1]],[[654]],[[7]],['low holistic'],['left'],['upright'],['U0107.bmp'],['female'],[[10]],['female'],[[1]],[[0.00044506]],TCB
654,[[1]],[[655]],[[4]],['high holistic'],['fovea'],['inverted'],['U0061.bmp'],['female'],[[0]],['male'],[[0]],[[0.03612089]],TCB
655,[[1]],[[656]],[[3]],['low holistic'],['right'],['inverted'],['U0020.bmp'],['female'],[[8]],['female'],[[1]],[[0.20245501]],TCB
656,[[1]],[[657]],[[19]],['low holistic'],['right'],['upright'],['U0361.bmp'],['female'],[[4]],['female'],[[1]],[[0.00010236]],TCB
657,[[1]],[[658]],[[1]],['high holistic'],['right'],['inverted'],['U0006.bmp'],['female'],[[6]],['female'],[[1]],[[0.01751137]],TCB
658,[[1]],[[659]],[[10]],['high holistic'],['left'],['inverted'],['U0159.bmp'],['male'],[[6]],['male'],[[1]],[[0.09021557]],TCB
659,[[1]],[[660]],[[17]],['high holistic'],['left'],['inverted'],['U0346.bmp'],['male'],[[4]],['female'],[[0]],[[0.00023076]],TCB
660,[[1]],[[661]],[[10]],['low holistic'],['left'],['inverted'],['U0159.bmp'],['female'],[[4]],['female'],[[1]],[[0.00010152]],TCB
661,[[1]],[[662]],[[12]],['high holistic'],['right'],['inverted'],['U0178.bmp'],['male'],[[6]],['male'],[[1]],[[0.04471969]],TCB
662,[[1]],[[663]],[[6]],['low holistic'],['left'],['inverted'],['U0106.bmp'],['male'],[[10]],['male'],[[1]],[[0.0673328]],TCB
663,[[1]],[[664]],[[17]],['high holistic'],['right'],['upright'],['U0346.bmp'],['male'],[[10]],['male'],[[1]],[[0.03131713]],TCB
664,[[1]],[[665]],[[9]],['high holistic'],['left'],['inverted'],['U0155.bmp'],['female'],[[6]],['male'],[[0]],[[1.15918425]],TCB
665,[[1]],[[666]],[[9]],['low holistic'],['fovea'],['upright'],['U0155.bmp'],['male'],[[0]],['male'],[[1]],[[0.00037075]],TCB
666,[[1]],[[667]],[[16]],['high holistic'],['right'],['inverted'],['U0335.bmp'],['female'],[[10]],['male'],[[0]],[[0.00010241]],TCB
667,[[1]],[[668]],[[8]],['low holistic'],['right'],['inverted'],['U0137.bmp'],['male'],[[12]],['male'],[[1]],[[0.00010188]],TCB
668,[[1]],[[669]],[[10]],['low holistic'],['left'],['inverted'],['U0159.bmp'],['female'],[[10]],['female'],[[1]],[[0.00024608]],TCB
669,[[1]],[[670]],[[7]],['high holistic'],['fovea'],['upright'],['U0107.bmp'],['female'],[[0]],['female'],[[1]],[[0.05351364]],TCB
670,[[1]],[[671]],[[16]],['low holistic'],['left'],['inverted'],['U0335.bmp'],['female'],[[12]],['female'],[[1]],[[0.00038391]],TCB
671,[[1]],[[672]],[[4]],['high holistic'],['left'],['inverted'],['U0061.bmp'],['female'],[[8]],['male'],[[0]],[[0.05824259]],TCB
672,[[1]],[[673]],[[20]],['low holistic'],['left'],['upright'],['U0362.bmp'],['male'],[[12]],['male'],[[1]],[[0.00010278]],TCB
673,[[1]],[[674]],[[17]],['low holistic'],['right'],['upright'],['U0346.bmp'],['female'],[[12]],['female'],[[1]],[[0.00019055]],TCB
674,[[1]],[[675]],[[18]],['low holistic'],['right'],['upright'],['U0359.bmp'],['male'],[[10]],['male'],[[1]],[[0.00010096]],TCB
675,[[1]],[[676]],[[7]],['low holistic'],['right'],['inverted'],['U0107.bmp'],['female'],[[10]],['male'],[[0]],[[0.98287345]],TCB
676,[[1]],[[677]],[[17]],['low holistic'],['right'],['upright'],['U0346.bmp'],['female'],[[6]],['female'],[[1]],[[0.00010154]],TCB
677,[[1]],[[678]],[[10]],['low holistic'],['right'],['inverted'],['U0159.bmp'],['female'],[[6]],['female'],[[1]],[[0.23126397]],TCB
678,[[1]],[[679]],[[12]],['low holistic'],['right'],['upright'],['U0178.bmp'],['female'],[[12]],['female'],[[1]],[[0.18267035]],TCB
679,[[1]],[[680]],[[14]],['high holistic'],['right'],['inverted'],['U0228.bmp'],['male'],[[8]],['male'],[[1]],[[0.00034484]],TCB
680,[[1]],[[681]],[[14]],['high holistic'],['left'],['upright'],['U0228.bmp'],['male'],[[2]],['male'],[[1]],[[0.04574286]],TCB
681,[[1]],[[682]],[[11]],['low holistic'],['left'],['upright'],['U0164.bmp'],['female'],[[2]],['female'],[[1]],[[0.00024925]],TCB
682,[[1]],[[683]],[[11]],['high holistic'],['fovea'],['upright'],['U0164.bmp'],['female'],[[0]],['female'],[[1]],[[0.0001013]],TCB
683,[[1]],[[684]],[[19]],['low holistic'],['left'],['inverted'],['U0361.bmp'],['female'],[[8]],['female'],[[1]],[[0.19422871]],TCB
684,[[1]],[[685]],[[20]],['high holistic'],['right'],['inverted'],['U0362.bmp'],['female'],[[4]],['male'],[[0]],[[0.08249139]],TCB
685,[[1]],[[686]],[[13]],['low holistic'],['right'],['upright'],['U0181.bmp'],['male'],[[6]],['male'],[[1]],[[0.00054178]],TCB
686,[[1]],[[687]],[[11]],['low holistic'],['left'],['upright'],['U0164.bmp'],['female'],[[6]],['female'],[[1]],[[0.00010729]],TCB
687,[[1]],[[688]],[[11]],['high holistic'],['right'],['inverted'],['U0164.bmp'],['female'],[[4]],['male'],[[0]],[[0.03170785]],TCB
688,[[1]],[[689]],[[8]],['low holistic'],['left'],['upright'],['U0137.bmp'],['male'],[[8]],['male'],[[1]],[[0.02956332]],TCB
689,[[1]],[[690]],[[16]],['low holistic'],['right'],['upright'],['U0335.bmp'],['female'],[[12]],['female'],[[1]],[[0.07624502]],TCB
690,[[1]],[[691]],[[13]],['high holistic'],['left'],['inverted'],['U0181.bmp'],['female'],[[12]],['female'],[[1]],[[0.22393931]],TCB
691,[[1]],[[692]],[[19]],['low holistic'],['left'],['inverted'],['U0361.bmp'],['female'],[[10]],['male'],[[0]],[[0.04808324]],TCB
692,[[1]],[[693]],[[18]],['low holistic'],['left'],['upright'],['U0359.bmp'],['male'],[[6]],['male'],[[1]],[[0.01989608]],TCB
693,[[1]],[[694]],[[17]],['low holistic'],['right'],['inverted'],['U0346.bmp'],['female'],[[4]],['female'],[[1]],[[0.00010113]],TCB
694,[[1]],[[695]],[[17]],['low holistic'],['left'],['inverted'],['U0346.bmp'],['female'],[[4]],['female'],[[1]],[[1.01053605]],TCB
695,[[1]],[[696]],[[19]],['high holistic'],['left'],['inverted'],['U0361.bmp'],['female'],[[2]],['male'],[[0]],[[0.01975491]],TCB
696,[[1]],[[697]],[[2]],['low holistic'],['left'],['upright'],['U0014.bmp'],['male'],[[2]],['male'],[[1]],[[0.00014188]],TCB
697,[[1]],[[698]],[[15]],['high holistic'],['left'],['upright'],['U0312.bmp'],['male'],[[4]],['male'],[[1]],[[0.95290029]],TCB
698,[[1]],[[699]],[[3]],['low holistic'],['left'],['upright'],['U0020.bmp'],['female'],[[8]],['female'],[[1]],[[0.00011454]],TCB
699,[[1]],[[700]],[[18]],['high holistic'],['fovea'],['upright'],['U0359.bmp'],['male'],[[0]],['male'],[[1]],[[1.17903045]],TCB
700,[[1]],[[701]],[[3]],['low holistic'],['left'],['inverted'],['U0020.bmp'],['female'],[[4]],['female'],[[1]],[[0.18658616]],TCB
701,[[1]],[[702]],[[11]],['high holistic'],['left'],['upright'],['U0164.bmp'],['female'],[[4]],['female'],[[1]],[[0.00032051]],TCB
702,[[1]],[[703]],[[14]],['low holistic'],['left'],['upright'],['U0228.bmp'],['male'],[[4]],['male'],[[1]],[[1.20221139]],TCB
703,[[1]],[[704]],[[11]],['low holistic'],['right'],['inverted'],['U0164.bmp'],['female'],[[8]],['female'],[[1]],[[0.10645443]],TCB
704,[[1]],[[705]],[[16]],['high holistic'],['left'],['upright'],['U0335.bmp'],['female'],[[6]],['female'],[[1]],[[0.92627891]],TCB
705,[[1]],[[706]],[[8]],['high holistic'],['right'],['upright'],['U0137.bmp'],['female'],[[12]],['female'],[[1]],[[0.07343843]],TCB
706,[[1]],[[707]],[[5]],['low holistic'],['right'],['inverted'],['U0076.bmp'],['male'],[[12]],['female'],[[0]],[[0.01411753]],TCB
707,[[1]],[[708]],[[6]],['high holistic'],['left'],['upright'],['U0106.bmp'],['female'],[[4]],['female'],[[1]],[[0.00036923]],TCB
708,[[1]],[[709]],[[9]],['low holistic'],['right'],['upright'],['U0155.bmp'],['male'],[[10]],['male'],[[1]],[[0.45948988]],TCB
709,[[1]],[[710]],[[17]],['high holistic'],['fovea'],['inverted'],['U0346.bmp'],['male'],[[0]],['male'],[[1]],[[0.13636338]],TCB
710,[[1]],[[711]],[[10]],['low holistic'],['right'],['inverted'],['U0159.bmp'],['female'],[[12]],['male'],[[0]],[[0.00296049]],TCB
711,[[1]],[[712]],[[13]],['low holistic'],['right'],['upright'],['U0181.bmp'],['male'],[[12]],['male'],[[1]],[[0.06760088]],TCB
712,[[1]],[[713]],[[5]],['high holistic'],['right'],['upright'],['U0076.bmp'],['female'],[[6]],['female'],[[1]],[[1.06420185]],TCB
713,[[1]],[[714]],[[11]],['high holistic'],['fovea'],['inverted'],['U0164.bmp'],['female'],[[0]],['female'],[[1]],[[0.00011154]],TCB
714,[[1]],[[715]],[[15]],['high holistic'],['right'],['inverted'],['U0312.bmp'],['male'],[[6]],['male'],[[1]],[[0.38891979]],TCB
715,[[1]],[[716]],[[7]],['low holistic'],['left'],['upright'],['U0107.bmp'],['female'],[[6]],['female'],[[1]],[[0.07735039]],TCB
716,[[1]],[[717]],[[11]],['low holistic'],['left'],['inverted'],['U0164.bmp'],['female'],[[12]],['female'],[[1]],[[0.21717228]],TCB
717,[[1]],[[718]],[[2]],['high holistic'],['left'],['inverted'],['U0014.bmp'],['male'],[[4]],['male'],[[1]],[[0.00018558]],TCB
718,[[1]],[[719]],[[16]],['high holistic'],['left'],['upright'],['U0335.bmp'],['female'],[[8]],['female'],[[1]],[[9.94690054e-05]],TCB
719,[[1]],[[720]],[[5]],['low holistic'],['right'],['upright'],['U0076.bmp'],['male'],[[10]],['male'],[[1]],[[0.0884783]],TCB
720,[[1]],[[721]],[[15]],['high holistic'],['left'],['inverted'],['U0312.bmp'],['male'],[[10]],['male'],[[1]],[[0.27676259]],TCB
721,[[1]],[[722]],[[19]],['high holistic'],['right'],['inverted'],['U0361.bmp'],['female'],[[4]],['male'],[[0]],[[0.04053357]],TCB
722,[[1]],[[723]],[[13]],['low holistic'],['left'],['upright'],['U0181.bmp'],['male'],[[6]],['male'],[[1]],[[0.79835556]],TCB
723,[[1]],[[724]],[[6]],['low holistic'],['left'],['inverted'],['U0106.bmp'],['male'],[[2]],['male'],[[1]],[[0.00010214]],TCB
724,[[1]],[[725]],[[12]],['low holistic'],['left'],['inverted'],['U0178.bmp'],['female'],[[10]],['male'],[[0]],[[0.00710642]],TCB
725,[[1]],[[726]],[[16]],['high holistic'],['left'],['upright'],['U0335.bmp'],['female'],[[4]],['female'],[[1]],[[0.00018526]],TCB
726,[[1]],[[727]],[[13]],['low holistic'],['left'],['upright'],['U0181.bmp'],['male'],[[12]],['male'],[[1]],[[0.00043301]],TCB
727,[[1]],[[728]],[[1]],['high holistic'],['left'],['inverted'],['U0006.bmp'],['female'],[[8]],['male'],[[0]],[[1.02874527]],TCB
728,[[1]],[[729]],[[20]],['low holistic'],['left'],['upright'],['U0362.bmp'],['male'],[[12]],['male'],[[1]],[[0.00044664]],TCB
729,[[1]],[[730]],[[16]],['low holistic'],['left'],['upright'],['U0335.bmp'],['female'],[[2]],['female'],[[1]],[[0.00010007]],TCB
730,[[1]],[[731]],[[12]],['low holistic'],['left'],['upright'],['U0178.bmp'],['female'],[[2]],['female'],[[1]],[[0.11518886]],TCB
731,[[1]],[[732]],[[16]],['low holistic'],['right'],['upright'],['U0335.bmp'],['female'],[[6]],['female'],[[1]],[[0.87845438]],TCB
732,[[1]],[[733]],[[3]],['high holistic'],['left'],['inverted'],['U0020.bmp'],['male'],[[6]],['male'],[[1]],[[0.00010115]],TCB
733,[[1]],[[734]],[[3]],['high holistic'],['left'],['upright'],['U0020.bmp'],['male'],[[12]],['male'],[[1]],[[0.00010125]],TCB
734,[[1]],[[735]],[[19]],['high holistic'],['right'],['inverted'],['U0361.bmp'],['female'],[[4]],['male'],[[0]],[[0.00010049]],TCB
735,[[1]],[[736]],[[3]],['high holistic'],['left'],['inverted'],['U0020.bmp'],['male'],[[8]],['male'],[[1]],[[0.00024645]],TCB
736,[[1]],[[737]],[[13]],['low holistic'],['right'],['upright'],['U0181.bmp'],['male'],[[4]],['male'],[[1]],[[0.00042564]],TCB
737,[[1]],[[738]],[[6]],['high holistic'],['fovea'],['upright'],['U0106.bmp'],['female'],[[0]],['female'],[[1]],[[0.01755349]],TCB
738,[[1]],[[739]],[[8]],['high holistic'],['right'],['upright'],['U0137.bmp'],['female'],[[6]],['female'],[[1]],[[0.00010093]],TCB
739,[[1]],[[740]],[[12]],['low holistic'],['left'],['inverted'],['U0178.bmp'],['female'],[[2]],['female'],[[1]],[[0.00019329]],TCB
740,[[1]],[[741]],[[1]],['high holistic'],['left'],['inverted'],['U0006.bmp'],['female'],[[12]],['male'],[[0]],[[0.0003329]],TCB
741,[[1]],[[742]],[[14]],['high holistic'],['right'],['inverted'],['U0228.bmp'],['male'],[[8]],['female'],[[0]],[[0.00010138]],TCB
742,[[1]],[[743]],[[19]],['low holistic'],['left'],['upright'],['U0361.bmp'],['female'],[[4]],['female'],[[1]],[[1.20592085]],TCB
743,[[1]],[[744]],[[5]],['low holistic'],['right'],['inverted'],['U0076.bmp'],['male'],[[12]],['male'],[[1]],[[0.05249414]],TCB
744,[[1]],[[745]],[[4]],['high holistic'],['left'],['upright'],['U0061.bmp'],['female'],[[4]],['female'],[[1]],[[0.15540047]],TCB
745,[[1]],[[746]],[[5]],['high holistic'],['right'],['upright'],['U0076.bmp'],['female'],[[12]],['female'],[[1]],[[0.07599939]],TCB
746,[[1]],[[747]],[[6]],['high holistic'],['left'],['inverted'],['U0106.bmp'],['female'],[[6]],['female'],[[1]],[[0.14602437]],TCB
747,[[1]],[[748]],[[9]],['low holistic'],['left'],['upright'],['U0155.bmp'],['male'],[[10]],['male'],[[1]],[[0.00159615]],TCB
748,[[1]],[[749]],[[6]],['high holistic'],['right'],['inverted'],['U0106.bmp'],['female'],[[6]],['female'],[[1]],[[0.00020366]],TCB
749,[[1]],[[750]],[[15]],['low holistic'],['left'],['inverted'],['U0312.bmp'],['male'],[[4]],['male'],[[1]],[[0.00053057]],TCB
750,[[1]],[[751]],[[5]],['low holistic'],['right'],['inverted'],['U0076.bmp'],['male'],[[6]],['male'],[[1]],[[0.05885502]],TCB
751,[[1]],[[752]],[[20]],['low holistic'],['left'],['inverted'],['U0362.bmp'],['male'],[[6]],['male'],[[1]],[[0.00014653]],TCB
752,[[1]],[[753]],[[19]],['low holistic'],['right'],['inverted'],['U0361.bmp'],['female'],[[12]],['male'],[[0]],[[0.02256039]],TCB
753,[[1]],[[754]],[[7]],['high holistic'],['fovea'],['inverted'],['U0107.bmp'],['female'],[[0]],['female'],[[1]],[[0.00025407]],TCB
754,[[1]],[[755]],[[7]],['low holistic'],['right'],['upright'],['U0107.bmp'],['female'],[[10]],['female'],[[1]],[[0.06009714]],TCB
755,[[1]],[[756]],[[11]],['low holistic'],['right'],['inverted'],['U0164.bmp'],['female'],[[6]],['female'],[[1]],[[0.03261896]],TCB
756,[[1]],[[757]],[[18]],['low holistic'],['left'],['upright'],['U0359.bmp'],['male'],[[10]],['male'],[[1]],[[0.00025751]],TCB
757,[[1]],[[758]],[[13]],['low holistic'],['right'],['upright'],['U0181.bmp'],['male'],[[4]],['male'],[[1]],[[0.00025274]],TCB
758,[[1]],[[759]],[[6]],['low holistic'],['left'],['inverted'],['U0106.bmp'],['male'],[[8]],['male'],[[1]],[[0.00010085]],TCB
759,[[1]],[[760]],[[13]],['high holistic'],['right'],['upright'],['U0181.bmp'],['female'],[[8]],['male'],[[0]],[[0.00016226]],TCB
760,[[1]],[[761]],[[16]],['high holistic'],['left'],['upright'],['U0335.bmp'],['female'],[[8]],['female'],[[1]],[[0.00052361]],TCB
761,[[1]],[[762]],[[1]],['low holistic'],['right'],['inverted'],['U0006.bmp'],['female'],[[12]],['female'],[[1]],[[0.00024498]],TCB
762,[[1]],[[763]],[[2]],['low holistic'],['left'],['inverted'],['U0014.bmp'],['male'],[[6]],['male'],[[1]],[[0.0136522]],TCB
763,[[1]],[[764]],[[13]],['high holistic'],['left'],['upright'],['U0181.bmp'],['female'],[[8]],['female'],[[1]],[[0.00019451]],TCB
764,[[1]],[[765]],[[16]],['high holistic'],['right'],['upright'],['U0335.bmp'],['female'],[[4]],['female'],[[1]],[[0.90224295]],TCB
765,[[1]],[[766]],[[7]],['high holistic'],['left'],['upright'],['U0107.bmp'],['female'],[[12]],['male'],[[0]],[[0.16840975]],TCB
766,[[1]],[[767]],[[16]],['high holistic'],['right'],['inverted'],['U0335.bmp'],['female'],[[12]],['female'],[[1]],[[0.11412726]],TCB
767,[[1]],[[768]],[[19]],['high holistic'],['fovea'],['inverted'],['U0361.bmp'],['female'],[[0]],['female'],[[1]],[[0.3792539]],TCB
768,[[1]],[[769]],[[20]],['low holistic'],['fovea'],['inverted'],['U0362.bmp'],['male'],[[0]],['male'],[[1]],[[0.00488763]],TCB
769,[[1]],[[770]],[[5]],['high holistic'],['right'],['upright'],['U0076.bmp'],['female'],[[6]],['female'],[[1]],[[0.00449843]],TCB
770,[[1]],[[771]],[[1]],['low holistic'],['fovea'],['upright'],['U0006.bmp'],['female'],[[0]],['female'],[[1]],[[1.01160496]],TCB
771,[[1]],[[772]],[[6]],['low holistic'],['left'],['upright'],['U0106.bmp'],['male'],[[8]],['male'],[[1]],[[0.00035833]],TCB
772,[[1]],[[773]],[[16]],['high holistic'],['right'],['upright'],['U0335.bmp'],['female'],[[4]],['female'],[[1]],[[0.0001085]],TCB
