,SUBID,TRIAL,MOONEYID,MOONEYCATEGORY,LOC,COND,MOONEY_NAME,MOONEY_GENDER,ECCENTRICITY,RESPONSE,ACCURACY,RT,SUBINIT
0,[[3]],[[1]],[[9]],['low holistic'],['right'],['upright'],['U0155.bmp'],['male'],[[4]],['male'],[[1]],[[2.00316225]],TM
1,[[3]],[[2]],[[15]],['high holistic'],['left'],['upright'],['U0312.bmp'],['male'],[[12]],['male'],[[1]],[[0.25769698]],TM
2,[[3]],[[3]],[[13]],['high holistic'],['left'],['inverted'],['U0181.bmp'],['female'],[[2]],['male'],[[0]],[[0.95923252]],TM
3,[[3]],[[4]],[[13]],['high holistic'],['right'],['upright'],['U0181.bmp'],['female'],[[12]],['male'],[[0]],[[0.36101429]],TM
4,[[3]],[[5]],[[3]],['high holistic'],['left'],['inverted'],['U0020.bmp'],['male'],[[4]],['male'],[[1]],[[0.49121513]],TM
5,[[3]],[[6]],[[8]],['high holistic'],['right'],['inverted'],['U0137.bmp'],['female'],[[10]],['male'],[[0]],[[1.78492189]],TM
6,[[3]],[[7]],[[19]],['low holistic'],['left'],['inverted'],['U0361.bmp'],['female'],[[2]],['male'],[[0]],[[0.25726441]],TM
7,[[3]],[[8]],[[2]],['low holistic'],['right'],['upright'],['U0014.bmp'],['male'],[[4]],['male'],[[1]],[[0.19953287]],TM
8,[[3]],[[9]],[[6]],['low holistic'],['right'],['upright'],['U0106.bmp'],['male'],[[12]],['male'],[[1]],[[0.19105847]],TM
9,[[3]],[[10]],[[20]],['high holistic'],['left'],['inverted'],['U0362.bmp'],['female'],[[4]],['female'],[[1]],[[27.61719994]],TM
10,[[3]],[[11]],[[11]],['high holistic'],['right'],['inverted'],['U0164.bmp'],['female'],[[12]],['male'],[[0]],[[3.59036428]],TM
11,[[3]],[[12]],[[13]],['low holistic'],['left'],['inverted'],['U0181.bmp'],['male'],[[2]],['male'],[[1]],[[0.23882384]],TM
12,[[3]],[[13]],[[8]],['low holistic'],['left'],['inverted'],['U0137.bmp'],['male'],[[10]],['male'],[[1]],[[0.42105282]],TM
13,[[3]],[[14]],[[3]],['high holistic'],['right'],['upright'],['U0020.bmp'],['male'],[[4]],['male'],[[1]],[[0.26076419]],TM
14,[[3]],[[15]],[[13]],['high holistic'],['left'],['upright'],['U0181.bmp'],['female'],[[4]],['female'],[[1]],[[0.27491675]],TM
15,[[3]],[[16]],[[9]],['low holistic'],['left'],['upright'],['U0155.bmp'],['male'],[[8]],['male'],[[1]],[[0.2002607]],TM
16,[[3]],[[17]],[[16]],['low holistic'],['right'],['inverted'],['U0335.bmp'],['female'],[[12]],['female'],[[1]],[[0.88786034]],TM
17,[[3]],[[18]],[[1]],['high holistic'],['right'],['upright'],['U0006.bmp'],['female'],[[6]],['female'],[[1]],[[0.17280537]],TM
18,[[3]],[[19]],[[20]],['high holistic'],['right'],['inverted'],['U0362.bmp'],['female'],[[2]],['female'],[[1]],[[0.49381645]],TM
19,[[3]],[[20]],[[6]],['high holistic'],['fovea'],['upright'],['U0106.bmp'],['female'],[[0]],['female'],[[1]],[[0.07384997]],TM
20,[[3]],[[21]],[[3]],['low holistic'],['left'],['upright'],['U0020.bmp'],['female'],[[12]],['female'],[[1]],[[0.3915061]],TM
21,[[3]],[[22]],[[20]],['high holistic'],['fovea'],['inverted'],['U0362.bmp'],['female'],[[0]],['female'],[[1]],[[0.49609389]],TM
22,[[3]],[[23]],[[11]],['high holistic'],['right'],['upright'],['U0164.bmp'],['female'],[[8]],['female'],[[1]],[[0.10079825]],TM
23,[[3]],[[24]],[[20]],['low holistic'],['left'],['upright'],['U0362.bmp'],['male'],[[2]],['male'],[[1]],[[0.18579221]],TM
24,[[3]],[[25]],[[17]],['high holistic'],['right'],['inverted'],['U0346.bmp'],['male'],[[6]],['male'],[[1]],[[0.48927382]],TM
25,[[3]],[[26]],[[20]],['high holistic'],['left'],['inverted'],['U0362.bmp'],['female'],[[8]],['male'],[[0]],[[0.35352447]],TM
26,[[3]],[[27]],[[14]],['high holistic'],['right'],['upright'],['U0228.bmp'],['male'],[[2]],['male'],[[1]],[[0.18503407]],TM
27,[[3]],[[28]],[[10]],['low holistic'],['left'],['inverted'],['U0159.bmp'],['female'],[[6]],['male'],[[0]],[[0.2561768]],TM
28,[[3]],[[29]],[[5]],['low holistic'],['left'],['inverted'],['U0076.bmp'],['male'],[[12]],['male'],[[1]],[[0.72596949]],TM
29,[[3]],[[30]],[[5]],['high holistic'],['right'],['inverted'],['U0076.bmp'],['female'],[[4]],['female'],[[1]],[[0.39286277]],TM
30,[[3]],[[31]],[[19]],['low holistic'],['fovea'],['upright'],['U0361.bmp'],['female'],[[0]],['female'],[[1]],[[0.12973471]],TM
31,[[3]],[[32]],[[12]],['high holistic'],['left'],['upright'],['U0178.bmp'],['male'],[[10]],['male'],[[1]],[[0.14148185]],TM
32,[[3]],[[33]],[[14]],['high holistic'],['right'],['inverted'],['U0228.bmp'],['male'],[[8]],['male'],[[1]],[[0.40836979]],TM
33,[[3]],[[34]],[[15]],['low holistic'],['right'],['inverted'],['U0312.bmp'],['male'],[[2]],['male'],[[1]],[[0.18283326]],TM
34,[[3]],[[35]],[[14]],['high holistic'],['left'],['upright'],['U0228.bmp'],['male'],[[8]],['male'],[[1]],[[0.03229874]],TM
35,[[3]],[[36]],[[20]],['high holistic'],['left'],['inverted'],['U0362.bmp'],['female'],[[8]],['male'],[[0]],[[0.27746845]],TM
36,[[3]],[[37]],[[6]],['low holistic'],['left'],['inverted'],['U0106.bmp'],['male'],[[10]],['male'],[[1]],[[0.45968798]],TM
37,[[3]],[[38]],[[2]],['high holistic'],['right'],['upright'],['U0014.bmp'],['male'],[[12]],['male'],[[1]],[[0.04962976]],TM
38,[[3]],[[39]],[[13]],['high holistic'],['left'],['inverted'],['U0181.bmp'],['female'],[[6]],['female'],[[1]],[[0.36614987]],TM
39,[[3]],[[40]],[[5]],['high holistic'],['right'],['inverted'],['U0076.bmp'],['female'],[[6]],['male'],[[0]],[[0.18491083]],TM
40,[[3]],[[41]],[[18]],['high holistic'],['right'],['upright'],['U0359.bmp'],['male'],[[4]],['male'],[[1]],[[0.10559076]],TM
41,[[3]],[[42]],[[3]],['high holistic'],['left'],['upright'],['U0020.bmp'],['male'],[[10]],['male'],[[1]],[[0.13214058]],TM
42,[[3]],[[43]],[[19]],['low holistic'],['right'],['upright'],['U0361.bmp'],['female'],[[12]],['female'],[[1]],[[0.10351239]],TM
43,[[3]],[[44]],[[1]],['high holistic'],['left'],['upright'],['U0006.bmp'],['female'],[[6]],['female'],[[1]],[[0.17962706]],TM
44,[[3]],[[45]],[[11]],['low holistic'],['left'],['inverted'],['U0164.bmp'],['female'],[[12]],['female'],[[1]],[[0.67500112]],TM
45,[[3]],[[46]],[[10]],['high holistic'],['right'],['inverted'],['U0159.bmp'],['male'],[[8]],['male'],[[1]],[[0.23437347]],TM
46,[[3]],[[47]],[[18]],['high holistic'],['right'],['upright'],['U0359.bmp'],['male'],[[4]],['male'],[[1]],[[0.34377911]],TM
47,[[3]],[[48]],[[7]],['high holistic'],['right'],['inverted'],['U0107.bmp'],['female'],[[4]],['male'],[[0]],[[0.2807001]],TM
48,[[3]],[[49]],[[18]],['low holistic'],['left'],['upright'],['U0359.bmp'],['male'],[[10]],['female'],[[0]],[[0.3733121]],TM
49,[[3]],[[50]],[[4]],['high holistic'],['left'],['inverted'],['U0061.bmp'],['female'],[[8]],['male'],[[0]],[[0.23106541]],TM
50,[[3]],[[51]],[[5]],['low holistic'],['left'],['inverted'],['U0076.bmp'],['male'],[[10]],['male'],[[1]],[[0.22162667]],TM
51,[[3]],[[52]],[[3]],['low holistic'],['left'],['upright'],['U0020.bmp'],['female'],[[10]],['female'],[[1]],[[0.20477572]],TM
52,[[3]],[[53]],[[10]],['low holistic'],['fovea'],['inverted'],['U0159.bmp'],['female'],[[0]],['female'],[[1]],[[1.03768557]],TM
53,[[3]],[[54]],[[18]],['high holistic'],['right'],['upright'],['U0359.bmp'],['male'],[[6]],['male'],[[1]],[[0.07422714]],TM
54,[[3]],[[55]],[[3]],['low holistic'],['right'],['upright'],['U0020.bmp'],['female'],[[12]],['female'],[[1]],[[0.19142827]],TM
55,[[3]],[[56]],[[20]],['high holistic'],['fovea'],['inverted'],['U0362.bmp'],['female'],[[0]],['male'],[[0]],[[0.16760077]],TM
56,[[3]],[[57]],[[16]],['high holistic'],['right'],['upright'],['U0335.bmp'],['female'],[[8]],['female'],[[1]],[[0.20257425]],TM
57,[[3]],[[58]],[[20]],['high holistic'],['left'],['upright'],['U0362.bmp'],['female'],[[4]],['female'],[[1]],[[0.15286424]],TM
58,[[3]],[[59]],[[1]],['low holistic'],['left'],['upright'],['U0006.bmp'],['female'],[[8]],['female'],[[1]],[[0.04501126]],TM
59,[[3]],[[60]],[[10]],['low holistic'],['right'],['inverted'],['U0159.bmp'],['female'],[[6]],['male'],[[0]],[[0.1453326]],TM
60,[[3]],[[61]],[[5]],['high holistic'],['left'],['upright'],['U0076.bmp'],['female'],[[6]],['female'],[[1]],[[0.18935878]],TM
61,[[3]],[[62]],[[6]],['high holistic'],['right'],['inverted'],['U0106.bmp'],['female'],[[10]],['male'],[[0]],[[0.80533013]],TM
62,[[3]],[[63]],[[17]],['high holistic'],['right'],['upright'],['U0346.bmp'],['male'],[[8]],['male'],[[1]],[[0.0690937]],TM
63,[[3]],[[64]],[[2]],['high holistic'],['right'],['inverted'],['U0014.bmp'],['male'],[[2]],['male'],[[1]],[[0.16950029]],TM
64,[[3]],[[65]],[[1]],['low holistic'],['left'],['upright'],['U0006.bmp'],['female'],[[8]],['female'],[[1]],[[0.00018133]],TM
65,[[3]],[[66]],[[4]],['low holistic'],['fovea'],['inverted'],['U0061.bmp'],['female'],[[0]],['female'],[[1]],[[0.07526928]],TM
66,[[3]],[[67]],[[14]],['low holistic'],['left'],['inverted'],['U0228.bmp'],['male'],[[12]],['male'],[[1]],[[0.29640548]],TM
67,[[3]],[[68]],[[13]],['low holistic'],['right'],['upright'],['U0181.bmp'],['male'],[[12]],['male'],[[1]],[[0.14847263]],TM
68,[[3]],[[69]],[[11]],['high holistic'],['fovea'],['inverted'],['U0164.bmp'],['female'],[[0]],['female'],[[1]],[[0.35782418]],TM
69,[[3]],[[70]],[[15]],['low holistic'],['left'],['inverted'],['U0312.bmp'],['male'],[[10]],['male'],[[1]],[[0.18365518]],TM
70,[[3]],[[71]],[[13]],['low holistic'],['right'],['inverted'],['U0181.bmp'],['male'],[[12]],['male'],[[1]],[[0.00897341]],TM
71,[[3]],[[72]],[[16]],['low holistic'],['left'],['upright'],['U0335.bmp'],['female'],[[12]],['female'],[[1]],[[0.29741975]],TM
72,[[3]],[[73]],[[15]],['high holistic'],['left'],['upright'],['U0312.bmp'],['male'],[[8]],['male'],[[1]],[[0.14182504]],TM
73,[[3]],[[74]],[[2]],['low holistic'],['right'],['inverted'],['U0014.bmp'],['male'],[[2]],['male'],[[1]],[[0.30348725]],TM
74,[[3]],[[75]],[[19]],['high holistic'],['right'],['inverted'],['U0361.bmp'],['female'],[[6]],['male'],[[0]],[[0.00015445]],TM
75,[[3]],[[76]],[[5]],['low holistic'],['left'],['upright'],['U0076.bmp'],['male'],[[10]],['male'],[[1]],[[9.85480146e-05]],TM
76,[[3]],[[77]],[[15]],['low holistic'],['left'],['upright'],['U0312.bmp'],['male'],[[4]],['male'],[[1]],[[0.00010942]],TM
77,[[3]],[[78]],[[18]],['high holistic'],['right'],['upright'],['U0359.bmp'],['male'],[[8]],['male'],[[1]],[[0.00010509]],TM
78,[[3]],[[79]],[[5]],['high holistic'],['right'],['upright'],['U0076.bmp'],['female'],[[6]],['female'],[[1]],[[0.09834602]],TM
79,[[3]],[[80]],[[7]],['low holistic'],['right'],['upright'],['U0107.bmp'],['female'],[[4]],['female'],[[1]],[[0.07139415]],TM
80,[[3]],[[81]],[[6]],['low holistic'],['left'],['upright'],['U0106.bmp'],['male'],[[8]],['male'],[[1]],[[0.29912228]],TM
81,[[3]],[[82]],[[1]],['high holistic'],['right'],['upright'],['U0006.bmp'],['female'],[[6]],['female'],[[1]],[[0.03912446]],TM
82,[[3]],[[83]],[[17]],['low holistic'],['right'],['inverted'],['U0346.bmp'],['female'],[[6]],['male'],[[0]],[[0.3345003]],TM
83,[[3]],[[84]],[[2]],['low holistic'],['right'],['inverted'],['U0014.bmp'],['male'],[[10]],['male'],[[1]],[[0.23214145]],TM
84,[[3]],[[85]],[[6]],['low holistic'],['left'],['inverted'],['U0106.bmp'],['male'],[[12]],['male'],[[1]],[[0.10433917]],TM
85,[[3]],[[86]],[[1]],['low holistic'],['left'],['inverted'],['U0006.bmp'],['female'],[[6]],['female'],[[1]],[[0.09995256]],TM
86,[[3]],[[87]],[[18]],['low holistic'],['right'],['inverted'],['U0359.bmp'],['male'],[[12]],['male'],[[1]],[[0.03915148]],TM
87,[[3]],[[88]],[[4]],['high holistic'],['left'],['inverted'],['U0061.bmp'],['female'],[[8]],['male'],[[0]],[[0.21226289]],TM
88,[[3]],[[89]],[[19]],['high holistic'],['left'],['inverted'],['U0361.bmp'],['female'],[[10]],['male'],[[0]],[[0.27785615]],TM
89,[[3]],[[90]],[[19]],['high holistic'],['right'],['inverted'],['U0361.bmp'],['female'],[[2]],['male'],[[0]],[[0.00019972]],TM
90,[[3]],[[91]],[[20]],['high holistic'],['left'],['upright'],['U0362.bmp'],['female'],[[2]],['female'],[[1]],[[0.25747258]],TM
91,[[3]],[[92]],[[18]],['low holistic'],['left'],['upright'],['U0359.bmp'],['male'],[[6]],['male'],[[1]],[[0.16753125]],TM
92,[[3]],[[93]],[[15]],['high holistic'],['left'],['upright'],['U0312.bmp'],['male'],[[12]],['male'],[[1]],[[9.79489996e-05]],TM
93,[[3]],[[94]],[[9]],['high holistic'],['left'],['inverted'],['U0155.bmp'],['female'],[[6]],['male'],[[0]],[[0.0002989]],TM
94,[[3]],[[95]],[[1]],['high holistic'],['right'],['upright'],['U0006.bmp'],['female'],[[8]],['female'],[[1]],[[0.00861718]],TM
95,[[3]],[[96]],[[12]],['low holistic'],['fovea'],['upright'],['U0178.bmp'],['female'],[[0]],['female'],[[1]],[[0.03344177]],TM
96,[[3]],[[97]],[[17]],['high holistic'],['right'],['inverted'],['U0346.bmp'],['male'],[[2]],['male'],[[1]],[[0.0002414]],TM
97,[[3]],[[98]],[[2]],['low holistic'],['left'],['upright'],['U0014.bmp'],['male'],[[8]],['female'],[[0]],[[0.00019948]],TM
98,[[3]],[[99]],[[2]],['high holistic'],['right'],['upright'],['U0014.bmp'],['male'],[[10]],['male'],[[1]],[[0.12643614]],TM
99,[[3]],[[100]],[[16]],['high holistic'],['right'],['inverted'],['U0335.bmp'],['female'],[[4]],['male'],[[0]],[[0.72290138]],TM
100,[[3]],[[101]],[[13]],['high holistic'],['right'],['upright'],['U0181.bmp'],['female'],[[6]],['female'],[[1]],[[0.22842306]],TM
101,[[3]],[[102]],[[1]],['low holistic'],['right'],['inverted'],['U0006.bmp'],['female'],[[10]],['female'],[[1]],[[0.21205542]],TM
102,[[3]],[[103]],[[8]],['high holistic'],['left'],['inverted'],['U0137.bmp'],['female'],[[6]],['male'],[[0]],[[0.09066261]],TM
103,[[3]],[[104]],[[1]],['high holistic'],['left'],['upright'],['U0006.bmp'],['female'],[[4]],['female'],[[1]],[[0.11977213]],TM
104,[[3]],[[105]],[[4]],['low holistic'],['right'],['inverted'],['U0061.bmp'],['female'],[[8]],['female'],[[1]],[[0.13140932]],TM
105,[[3]],[[106]],[[1]],['high holistic'],['left'],['upright'],['U0006.bmp'],['female'],[[10]],['female'],[[1]],[[0.00012392]],TM
106,[[3]],[[107]],[[17]],['low holistic'],['left'],['inverted'],['U0346.bmp'],['female'],[[6]],['female'],[[1]],[[0.22920056]],TM
107,[[3]],[[108]],[[20]],['high holistic'],['left'],['inverted'],['U0362.bmp'],['female'],[[10]],['female'],[[1]],[[0.5961592]],TM
108,[[3]],[[109]],[[8]],['high holistic'],['left'],['inverted'],['U0137.bmp'],['female'],[[10]],['female'],[[1]],[[0.72495997]],TM
109,[[3]],[[110]],[[14]],['low holistic'],['right'],['inverted'],['U0228.bmp'],['male'],[[8]],['male'],[[1]],[[0.10333946]],TM
110,[[3]],[[111]],[[15]],['low holistic'],['left'],['upright'],['U0312.bmp'],['male'],[[2]],['male'],[[1]],[[9.82009806e-05]],TM
111,[[3]],[[112]],[[19]],['low holistic'],['left'],['inverted'],['U0361.bmp'],['female'],[[8]],['female'],[[1]],[[0.20276808]],TM
112,[[3]],[[113]],[[7]],['high holistic'],['right'],['upright'],['U0107.bmp'],['female'],[[2]],['male'],[[0]],[[0.00010509]],TM
113,[[3]],[[114]],[[15]],['high holistic'],['right'],['upright'],['U0312.bmp'],['male'],[[6]],['male'],[[1]],[[0.05258802]],TM
114,[[3]],[[115]],[[5]],['low holistic'],['right'],['inverted'],['U0076.bmp'],['male'],[[8]],['male'],[[1]],[[0.00021109]],TM
115,[[3]],[[116]],[[8]],['high holistic'],['left'],['upright'],['U0137.bmp'],['female'],[[2]],['female'],[[1]],[[0.2415042]],TM
116,[[3]],[[117]],[[4]],['high holistic'],['left'],['upright'],['U0061.bmp'],['female'],[[6]],['female'],[[1]],[[0.19943754]],TM
117,[[3]],[[118]],[[17]],['high holistic'],['right'],['upright'],['U0346.bmp'],['male'],[[8]],['male'],[[1]],[[0.00019476]],TM
118,[[3]],[[119]],[[9]],['low holistic'],['right'],['inverted'],['U0155.bmp'],['male'],[[10]],['male'],[[1]],[[0.2716263]],TM
119,[[3]],[[120]],[[17]],['high holistic'],['left'],['upright'],['U0346.bmp'],['male'],[[12]],['female'],[[0]],[[0.00021228]],TM
120,[[3]],[[121]],[[8]],['high holistic'],['right'],['upright'],['U0137.bmp'],['female'],[[4]],['female'],[[1]],[[0.09388237]],TM
121,[[3]],[[122]],[[20]],['high holistic'],['left'],['inverted'],['U0362.bmp'],['female'],[[4]],['female'],[[1]],[[0.33712985]],TM
122,[[3]],[[123]],[[8]],['high holistic'],['left'],['inverted'],['U0137.bmp'],['female'],[[6]],['female'],[[1]],[[0.21917971]],TM
123,[[3]],[[124]],[[2]],['high holistic'],['right'],['inverted'],['U0014.bmp'],['male'],[[12]],['male'],[[1]],[[0.13150103]],TM
124,[[3]],[[125]],[[11]],['high holistic'],['left'],['inverted'],['U0164.bmp'],['female'],[[4]],['male'],[[0]],[[0.1501365]],TM
125,[[3]],[[126]],[[17]],['high holistic'],['left'],['upright'],['U0346.bmp'],['male'],[[4]],['male'],[[1]],[[9.81319754e-05]],TM
126,[[3]],[[127]],[[15]],['low holistic'],['left'],['inverted'],['U0312.bmp'],['male'],[[10]],['male'],[[1]],[[0.11191444]],TM
127,[[3]],[[128]],[[5]],['high holistic'],['right'],['upright'],['U0076.bmp'],['female'],[[10]],['female'],[[1]],[[0.15408757]],TM
128,[[3]],[[129]],[[20]],['high holistic'],['right'],['upright'],['U0362.bmp'],['female'],[[6]],['female'],[[1]],[[0.38909783]],TM
129,[[3]],[[130]],[[17]],['low holistic'],['right'],['upright'],['U0346.bmp'],['female'],[[12]],['male'],[[0]],[[0.04514223]],TM
130,[[3]],[[131]],[[6]],['high holistic'],['left'],['upright'],['U0106.bmp'],['female'],[[12]],['female'],[[1]],[[2.68576072]],TM
131,[[3]],[[132]],[[11]],['low holistic'],['right'],['inverted'],['U0164.bmp'],['female'],[[6]],['female'],[[1]],[[0.18622652]],TM
132,[[3]],[[133]],[[13]],['high holistic'],['left'],['inverted'],['U0181.bmp'],['female'],[[12]],['female'],[[1]],[[0.25882611]],TM
133,[[3]],[[134]],[[5]],['low holistic'],['left'],['upright'],['U0076.bmp'],['male'],[[10]],['female'],[[0]],[[0.12886557]],TM
134,[[3]],[[135]],[[13]],['high holistic'],['left'],['inverted'],['U0181.bmp'],['female'],[[8]],['male'],[[0]],[[0.0776084]],TM
135,[[3]],[[136]],[[17]],['high holistic'],['left'],['inverted'],['U0346.bmp'],['male'],[[2]],['male'],[[1]],[[0.00019276]],TM
136,[[3]],[[137]],[[10]],['high holistic'],['right'],['upright'],['U0159.bmp'],['male'],[[2]],['male'],[[1]],[[0.02427316]],TM
137,[[3]],[[138]],[[12]],['low holistic'],['left'],['inverted'],['U0178.bmp'],['female'],[[10]],['male'],[[0]],[[0.16079526]],TM
138,[[3]],[[139]],[[14]],['high holistic'],['left'],['inverted'],['U0228.bmp'],['male'],[[12]],['female'],[[0]],[[0.20847414]],TM
139,[[3]],[[140]],[[7]],['high holistic'],['left'],['inverted'],['U0107.bmp'],['female'],[[10]],['male'],[[0]],[[0.62495493]],TM
140,[[3]],[[141]],[[19]],['low holistic'],['right'],['upright'],['U0361.bmp'],['female'],[[12]],['female'],[[1]],[[0.13649605]],TM
141,[[3]],[[142]],[[18]],['low holistic'],['left'],['upright'],['U0359.bmp'],['male'],[[12]],['male'],[[1]],[[0.30789949]],TM
142,[[3]],[[143]],[[13]],['high holistic'],['left'],['inverted'],['U0181.bmp'],['female'],[[8]],['female'],[[1]],[[0.22935596]],TM
143,[[3]],[[144]],[[2]],['high holistic'],['right'],['inverted'],['U0014.bmp'],['male'],[[6]],['male'],[[1]],[[0.52536541]],TM
144,[[3]],[[145]],[[13]],['high holistic'],['right'],['upright'],['U0181.bmp'],['female'],[[6]],['female'],[[1]],[[0.1347038]],TM
145,[[3]],[[146]],[[3]],['high holistic'],['right'],['upright'],['U0020.bmp'],['male'],[[10]],['male'],[[1]],[[0.10625313]],TM
146,[[3]],[[147]],[[9]],['high holistic'],['right'],['inverted'],['U0155.bmp'],['female'],[[6]],['male'],[[0]],[[1.46221627]],TM
147,[[3]],[[148]],[[15]],['low holistic'],['right'],['upright'],['U0312.bmp'],['male'],[[4]],['male'],[[1]],[[0.13979489]],TM
148,[[3]],[[149]],[[4]],['low holistic'],['left'],['upright'],['U0061.bmp'],['female'],[[6]],['male'],[[0]],[[0.53418943]],TM
149,[[3]],[[150]],[[17]],['low holistic'],['right'],['upright'],['U0346.bmp'],['female'],[[8]],['female'],[[1]],[[0.63172379]],TM
150,[[3]],[[151]],[[17]],['low holistic'],['right'],['upright'],['U0346.bmp'],['female'],[[8]],['female'],[[1]],[[0.12668392]],TM
151,[[3]],[[152]],[[13]],['high holistic'],['fovea'],['upright'],['U0181.bmp'],['female'],[[0]],['female'],[[1]],[[0.22783996]],TM
152,[[3]],[[153]],[[19]],['low holistic'],['right'],['upright'],['U0361.bmp'],['female'],[[6]],['female'],[[1]],[[0.01605613]],TM
153,[[3]],[[154]],[[18]],['high holistic'],['left'],['upright'],['U0359.bmp'],['male'],[[10]],['male'],[[1]],[[0.27281324]],TM
154,[[3]],[[155]],[[18]],['high holistic'],['left'],['inverted'],['U0359.bmp'],['male'],[[6]],['male'],[[1]],[[0.17439835]],TM
155,[[3]],[[156]],[[2]],['low holistic'],['left'],['inverted'],['U0014.bmp'],['male'],[[6]],['female'],[[0]],[[0.44589112]],TM
156,[[3]],[[157]],[[20]],['low holistic'],['right'],['upright'],['U0362.bmp'],['male'],[[6]],['male'],[[1]],[[0.0291681]],TM
157,[[3]],[[158]],[[10]],['low holistic'],['right'],['inverted'],['U0159.bmp'],['female'],[[12]],['female'],[[1]],[[0.07459949]],TM
158,[[3]],[[159]],[[6]],['high holistic'],['right'],['upright'],['U0106.bmp'],['female'],[[6]],['female'],[[1]],[[0.22440103]],TM
159,[[3]],[[160]],[[9]],['low holistic'],['left'],['inverted'],['U0155.bmp'],['male'],[[4]],['male'],[[1]],[[0.23103227]],TM
160,[[3]],[[161]],[[16]],['low holistic'],['right'],['inverted'],['U0335.bmp'],['female'],[[4]],['female'],[[1]],[[0.19111235]],TM
161,[[3]],[[162]],[[3]],['low holistic'],['right'],['inverted'],['U0020.bmp'],['female'],[[10]],['female'],[[1]],[[0.24002099]],TM
162,[[3]],[[163]],[[12]],['high holistic'],['left'],['upright'],['U0178.bmp'],['male'],[[8]],['male'],[[1]],[[0.15559632]],TM
163,[[3]],[[164]],[[19]],['high holistic'],['left'],['inverted'],['U0361.bmp'],['female'],[[2]],['male'],[[0]],[[0.17238803]],TM
164,[[3]],[[165]],[[12]],['low holistic'],['fovea'],['inverted'],['U0178.bmp'],['female'],[[0]],['female'],[[1]],[[0.03094123]],TM
165,[[3]],[[166]],[[10]],['high holistic'],['right'],['inverted'],['U0159.bmp'],['male'],[[8]],['male'],[[1]],[[0.0001093]],TM
166,[[3]],[[167]],[[8]],['high holistic'],['fovea'],['inverted'],['U0137.bmp'],['female'],[[0]],['female'],[[1]],[[0.82354298]],TM
167,[[3]],[[168]],[[10]],['high holistic'],['left'],['upright'],['U0159.bmp'],['male'],[[2]],['male'],[[1]],[[9.8501012e-05]],TM
168,[[3]],[[169]],[[16]],['high holistic'],['left'],['upright'],['U0335.bmp'],['female'],[[10]],['female'],[[1]],[[0.08579368]],TM
169,[[3]],[[170]],[[19]],['high holistic'],['right'],['inverted'],['U0361.bmp'],['female'],[[10]],['male'],[[0]],[[0.02588889]],TM
170,[[3]],[[171]],[[11]],['low holistic'],['left'],['inverted'],['U0164.bmp'],['female'],[[12]],['female'],[[1]],[[2.37633579]],TM
171,[[3]],[[172]],[[7]],['low holistic'],['left'],['upright'],['U0107.bmp'],['female'],[[10]],['female'],[[1]],[[0.33088547]],TM
172,[[3]],[[173]],[[11]],['high holistic'],['left'],['upright'],['U0164.bmp'],['female'],[[10]],['female'],[[1]],[[0.01134695]],TM
173,[[3]],[[174]],[[19]],['low holistic'],['right'],['inverted'],['U0361.bmp'],['female'],[[4]],['male'],[[0]],[[0.02158875]],TM
174,[[3]],[[175]],[[16]],['low holistic'],['right'],['upright'],['U0335.bmp'],['female'],[[4]],['female'],[[1]],[[0.08319492]],TM
175,[[3]],[[176]],[[16]],['low holistic'],['fovea'],['upright'],['U0335.bmp'],['female'],[[0]],['female'],[[1]],[[2.67256132]],TM
176,[[3]],[[177]],[[17]],['high holistic'],['left'],['inverted'],['U0346.bmp'],['male'],[[12]],['male'],[[1]],[[0.27048391]],TM
177,[[3]],[[178]],[[17]],['high holistic'],['right'],['upright'],['U0346.bmp'],['male'],[[12]],['male'],[[1]],[[0.51363221]],TM
178,[[3]],[[179]],[[11]],['low holistic'],['right'],['upright'],['U0164.bmp'],['female'],[[10]],['female'],[[1]],[[0.06130283]],TM
179,[[3]],[[180]],[[7]],['high holistic'],['right'],['upright'],['U0107.bmp'],['female'],[[12]],['male'],[[0]],[[0.11626561]],TM
180,[[3]],[[181]],[[1]],['low holistic'],['right'],['inverted'],['U0006.bmp'],['female'],[[10]],['female'],[[1]],[[0.04762102]],TM
181,[[3]],[[182]],[[2]],['low holistic'],['right'],['upright'],['U0014.bmp'],['male'],[[2]],['male'],[[1]],[[0.18163829]],TM
182,[[3]],[[183]],[[4]],['low holistic'],['right'],['inverted'],['U0061.bmp'],['female'],[[4]],['female'],[[1]],[[0.00014916]],TM
183,[[3]],[[184]],[[18]],['low holistic'],['right'],['inverted'],['U0359.bmp'],['male'],[[4]],['male'],[[1]],[[0.00016896]],TM
184,[[3]],[[185]],[[10]],['high holistic'],['left'],['inverted'],['U0159.bmp'],['male'],[[8]],['male'],[[1]],[[0.07019246]],TM
185,[[3]],[[186]],[[7]],['high holistic'],['left'],['upright'],['U0107.bmp'],['female'],[[4]],['male'],[[0]],[[0.00027662]],TM
186,[[3]],[[187]],[[14]],['low holistic'],['left'],['inverted'],['U0228.bmp'],['male'],[[4]],['male'],[[1]],[[9.90839908e-05]],TM
187,[[3]],[[188]],[[14]],['high holistic'],['left'],['upright'],['U0228.bmp'],['male'],[[6]],['male'],[[1]],[[0.04347661]],TM
188,[[3]],[[189]],[[1]],['low holistic'],['left'],['upright'],['U0006.bmp'],['female'],[[6]],['female'],[[1]],[[1.55335628]],TM
189,[[3]],[[190]],[[20]],['high holistic'],['right'],['inverted'],['U0362.bmp'],['female'],[[2]],['male'],[[0]],[[0.26633201]],TM
190,[[3]],[[191]],[[4]],['high holistic'],['right'],['inverted'],['U0061.bmp'],['female'],[[8]],['male'],[[0]],[[0.14294548]],TM
191,[[3]],[[192]],[[5]],['low holistic'],['right'],['upright'],['U0076.bmp'],['male'],[[6]],['male'],[[1]],[[0.00010772]],TM
192,[[3]],[[193]],[[4]],['high holistic'],['right'],['upright'],['U0061.bmp'],['female'],[[2]],['female'],[[1]],[[0.00010546]],TM
193,[[3]],[[194]],[[19]],['low holistic'],['right'],['inverted'],['U0361.bmp'],['female'],[[12]],['male'],[[0]],[[0.18684766]],TM
194,[[3]],[[195]],[[4]],['low holistic'],['left'],['inverted'],['U0061.bmp'],['female'],[[2]],['male'],[[0]],[[0.32033599]],TM
195,[[3]],[[196]],[[12]],['high holistic'],['left'],['upright'],['U0178.bmp'],['male'],[[8]],['male'],[[1]],[[0.41454288]],TM
196,[[3]],[[197]],[[11]],['low holistic'],['left'],['inverted'],['U0164.bmp'],['female'],[[10]],['female'],[[1]],[[0.72540206]],TM
197,[[3]],[[198]],[[18]],['high holistic'],['right'],['inverted'],['U0359.bmp'],['male'],[[10]],['male'],[[1]],[[0.08885482]],TM
198,[[3]],[[199]],[[19]],['high holistic'],['right'],['upright'],['U0361.bmp'],['female'],[[8]],['male'],[[0]],[[0.00010554]],TM
199,[[3]],[[200]],[[19]],['low holistic'],['right'],['upright'],['U0361.bmp'],['female'],[[6]],['female'],[[1]],[[9.88279935e-05]],TM
200,[[3]],[[201]],[[2]],['low holistic'],['left'],['inverted'],['U0014.bmp'],['male'],[[8]],['male'],[[1]],[[0.50959681]],TM
201,[[3]],[[202]],[[17]],['high holistic'],['left'],['inverted'],['U0346.bmp'],['male'],[[2]],['male'],[[1]],[[0.33763667]],TM
202,[[3]],[[203]],[[1]],['high holistic'],['left'],['upright'],['U0006.bmp'],['female'],[[4]],['female'],[[1]],[[9.72969865e-05]],TM
203,[[3]],[[204]],[[19]],['low holistic'],['left'],['inverted'],['U0361.bmp'],['female'],[[6]],['female'],[[1]],[[0.45073566]],TM
204,[[3]],[[205]],[[18]],['high holistic'],['left'],['inverted'],['U0359.bmp'],['male'],[[8]],['male'],[[1]],[[0.70502607]],TM
205,[[3]],[[206]],[[4]],['high holistic'],['left'],['inverted'],['U0061.bmp'],['female'],[[2]],['male'],[[0]],[[0.21334671]],TM
206,[[3]],[[207]],[[9]],['high holistic'],['right'],['inverted'],['U0155.bmp'],['female'],[[12]],['male'],[[0]],[[0.14098593]],TM
207,[[3]],[[208]],[[2]],['low holistic'],['right'],['inverted'],['U0014.bmp'],['male'],[[10]],['male'],[[1]],[[0.12782869]],TM
208,[[3]],[[209]],[[2]],['low holistic'],['left'],['inverted'],['U0014.bmp'],['male'],[[8]],['male'],[[1]],[[0.19276535]],TM
209,[[3]],[[210]],[[11]],['high holistic'],['fovea'],['inverted'],['U0164.bmp'],['female'],[[0]],['male'],[[0]],[[0.35555778]],TM
210,[[3]],[[211]],[[15]],['low holistic'],['right'],['inverted'],['U0312.bmp'],['male'],[[2]],['male'],[[1]],[[0.18005697]],TM
211,[[3]],[[212]],[[5]],['high holistic'],['fovea'],['inverted'],['U0076.bmp'],['female'],[[0]],['male'],[[0]],[[0.00026016]],TM
212,[[3]],[[213]],[[11]],['high holistic'],['left'],['inverted'],['U0164.bmp'],['female'],[[12]],['male'],[[0]],[[0.27710696]],TM
213,[[3]],[[214]],[[14]],['low holistic'],['left'],['inverted'],['U0228.bmp'],['male'],[[12]],['male'],[[1]],[[0.04120033]],TM
214,[[3]],[[215]],[[19]],['high holistic'],['left'],['inverted'],['U0361.bmp'],['female'],[[4]],['male'],[[0]],[[0.00012443]],TM
215,[[3]],[[216]],[[18]],['high holistic'],['right'],['inverted'],['U0359.bmp'],['male'],[[4]],['male'],[[1]],[[0.18295604]],TM
216,[[3]],[[217]],[[13]],['high holistic'],['left'],['inverted'],['U0181.bmp'],['female'],[[12]],['female'],[[1]],[[0.26310878]],TM
217,[[3]],[[218]],[[17]],['high holistic'],['right'],['upright'],['U0346.bmp'],['male'],[[2]],['male'],[[1]],[[0.00010506]],TM
218,[[3]],[[219]],[[10]],['low holistic'],['left'],['inverted'],['U0159.bmp'],['female'],[[10]],['female'],[[1]],[[0.11050457]],TM
219,[[3]],[[220]],[[7]],['low holistic'],['left'],['inverted'],['U0107.bmp'],['female'],[[4]],['female'],[[1]],[[0.04097619]],TM
220,[[3]],[[221]],[[5]],['low holistic'],['left'],['upright'],['U0076.bmp'],['male'],[[8]],['male'],[[1]],[[0.00011145]],TM
221,[[3]],[[222]],[[15]],['low holistic'],['right'],['upright'],['U0312.bmp'],['male'],[[8]],['male'],[[1]],[[0.03979482]],TM
222,[[3]],[[223]],[[14]],['low holistic'],['left'],['upright'],['U0228.bmp'],['male'],[[2]],['female'],[[0]],[[0.00010328]],TM
223,[[3]],[[224]],[[1]],['high holistic'],['right'],['upright'],['U0006.bmp'],['female'],[[8]],['female'],[[1]],[[0.09400314]],TM
224,[[3]],[[225]],[[14]],['low holistic'],['right'],['upright'],['U0228.bmp'],['male'],[[8]],['male'],[[1]],[[0.26734563]],TM
225,[[3]],[[226]],[[18]],['low holistic'],['left'],['upright'],['U0359.bmp'],['male'],[[6]],['male'],[[1]],[[0.04774827]],TM
226,[[3]],[[227]],[[19]],['low holistic'],['right'],['inverted'],['U0361.bmp'],['female'],[[10]],['male'],[[0]],[[0.00010403]],TM
227,[[3]],[[228]],[[16]],['low holistic'],['left'],['inverted'],['U0335.bmp'],['female'],[[2]],['female'],[[1]],[[0.40495181]],TM
228,[[3]],[[229]],[[5]],['high holistic'],['left'],['inverted'],['U0076.bmp'],['female'],[[6]],['male'],[[0]],[[0.18219423]],TM
229,[[3]],[[230]],[[20]],['high holistic'],['right'],['inverted'],['U0362.bmp'],['female'],[[12]],['male'],[[0]],[[0.43803706]],TM
230,[[3]],[[231]],[[7]],['low holistic'],['right'],['inverted'],['U0107.bmp'],['female'],[[8]],['female'],[[1]],[[0.14043375]],TM
231,[[3]],[[232]],[[11]],['high holistic'],['left'],['upright'],['U0164.bmp'],['female'],[[8]],['female'],[[1]],[[0.09491344]],TM
232,[[3]],[[233]],[[20]],['high holistic'],['left'],['inverted'],['U0362.bmp'],['female'],[[10]],['female'],[[1]],[[0.29160707]],TM
233,[[3]],[[234]],[[5]],['high holistic'],['left'],['inverted'],['U0076.bmp'],['female'],[[2]],['male'],[[0]],[[0.26348375]],TM
234,[[3]],[[235]],[[7]],['low holistic'],['right'],['inverted'],['U0107.bmp'],['female'],[[6]],['male'],[[0]],[[0.03651361]],TM
235,[[3]],[[236]],[[2]],['low holistic'],['left'],['inverted'],['U0014.bmp'],['male'],[[8]],['male'],[[1]],[[0.27479751]],TM
236,[[3]],[[237]],[[17]],['high holistic'],['left'],['upright'],['U0346.bmp'],['male'],[[2]],['male'],[[1]],[[0.06450046]],TM
237,[[3]],[[238]],[[11]],['high holistic'],['left'],['upright'],['U0164.bmp'],['female'],[[4]],['female'],[[1]],[[0.03089924]],TM
238,[[3]],[[239]],[[5]],['low holistic'],['right'],['inverted'],['U0076.bmp'],['male'],[[2]],['male'],[[1]],[[0.58806348]],TM
239,[[3]],[[240]],[[20]],['high holistic'],['right'],['inverted'],['U0362.bmp'],['female'],[[2]],['female'],[[1]],[[0.70976268]],TM
240,[[3]],[[241]],[[4]],['low holistic'],['right'],['upright'],['U0061.bmp'],['female'],[[10]],['female'],[[1]],[[0.39253462]],TM
241,[[3]],[[242]],[[16]],['low holistic'],['right'],['upright'],['U0335.bmp'],['female'],[[12]],['female'],[[1]],[[0.21548089]],TM
242,[[3]],[[243]],[[18]],['low holistic'],['right'],['inverted'],['U0359.bmp'],['male'],[[4]],['male'],[[1]],[[0.09530723]],TM
243,[[3]],[[244]],[[9]],['high holistic'],['left'],['upright'],['U0155.bmp'],['female'],[[12]],['male'],[[0]],[[0.14797023]],TM
244,[[3]],[[245]],[[17]],['high holistic'],['right'],['upright'],['U0346.bmp'],['male'],[[4]],['female'],[[0]],[[0.05363]],TM
245,[[3]],[[246]],[[11]],['low holistic'],['right'],['inverted'],['U0164.bmp'],['female'],[[12]],['female'],[[1]],[[0.26911144]],TM
246,[[3]],[[247]],[[6]],['low holistic'],['left'],['upright'],['U0106.bmp'],['male'],[[12]],['male'],[[1]],[[0.2025117]],TM
247,[[3]],[[248]],[[18]],['low holistic'],['right'],['upright'],['U0359.bmp'],['male'],[[2]],['male'],[[1]],[[0.105499]],TM
248,[[3]],[[249]],[[5]],['low holistic'],['right'],['inverted'],['U0076.bmp'],['male'],[[2]],['male'],[[1]],[[0.00020155]],TM
249,[[3]],[[250]],[[19]],['low holistic'],['left'],['inverted'],['U0361.bmp'],['female'],[[4]],['female'],[[1]],[[0.2690448]],TM
250,[[3]],[[251]],[[2]],['low holistic'],['left'],['inverted'],['U0014.bmp'],['male'],[[8]],['male'],[[1]],[[0.55387865]],TM
251,[[3]],[[252]],[[19]],['low holistic'],['right'],['upright'],['U0361.bmp'],['female'],[[8]],['female'],[[1]],[[0.01987378]],TM
252,[[3]],[[253]],[[12]],['low holistic'],['left'],['upright'],['U0178.bmp'],['female'],[[12]],['female'],[[1]],[[0.14721958]],TM
253,[[3]],[[254]],[[7]],['high holistic'],['right'],['inverted'],['U0107.bmp'],['female'],[[2]],['male'],[[0]],[[0.00011061]],TM
254,[[3]],[[255]],[[11]],['high holistic'],['left'],['inverted'],['U0164.bmp'],['female'],[[8]],['female'],[[1]],[[0.28617386]],TM
255,[[3]],[[256]],[[19]],['low holistic'],['right'],['upright'],['U0361.bmp'],['female'],[[8]],['male'],[[0]],[[0.00988745]],TM
256,[[3]],[[257]],[[19]],['high holistic'],['fovea'],['inverted'],['U0361.bmp'],['female'],[[0]],['male'],[[0]],[[0.03301929]],TM
257,[[3]],[[258]],[[13]],['high holistic'],['right'],['inverted'],['U0181.bmp'],['female'],[[2]],['female'],[[1]],[[0.1373956]],TM
258,[[3]],[[259]],[[2]],['high holistic'],['left'],['upright'],['U0014.bmp'],['male'],[[10]],['male'],[[1]],[[0.05091146]],TM
259,[[3]],[[260]],[[19]],['high holistic'],['left'],['upright'],['U0361.bmp'],['female'],[[10]],['male'],[[0]],[[0.04882198]],TM
260,[[3]],[[261]],[[7]],['high holistic'],['left'],['upright'],['U0107.bmp'],['female'],[[2]],['female'],[[1]],[[0.33810881]],TM
261,[[3]],[[262]],[[7]],['high holistic'],['fovea'],['upright'],['U0107.bmp'],['female'],[[0]],['female'],[[1]],[[0.24262378]],TM
262,[[3]],[[263]],[[9]],['high holistic'],['right'],['upright'],['U0155.bmp'],['female'],[[4]],['female'],[[1]],[[0.45735384]],TM
263,[[3]],[[264]],[[9]],['low holistic'],['left'],['upright'],['U0155.bmp'],['male'],[[4]],['male'],[[1]],[[0.10308874]],TM
264,[[3]],[[265]],[[18]],['high holistic'],['left'],['inverted'],['U0359.bmp'],['male'],[[2]],['male'],[[1]],[[0.81069489]],TM
265,[[3]],[[266]],[[7]],['high holistic'],['left'],['inverted'],['U0107.bmp'],['female'],[[2]],['male'],[[0]],[[0.5155036]],TM
266,[[3]],[[267]],[[11]],['high holistic'],['fovea'],['upright'],['U0164.bmp'],['female'],[[0]],['female'],[[1]],[[0.09501363]],TM
267,[[3]],[[268]],[[3]],['high holistic'],['left'],['inverted'],['U0020.bmp'],['male'],[[10]],['male'],[[1]],[[0.51538438]],TM
268,[[3]],[[269]],[[19]],['low holistic'],['left'],['inverted'],['U0361.bmp'],['female'],[[12]],['female'],[[1]],[[0.11061234]],TM
269,[[3]],[[270]],[[15]],['high holistic'],['right'],['upright'],['U0312.bmp'],['male'],[[10]],['male'],[[1]],[[0.13033588]],TM
270,[[3]],[[271]],[[18]],['high holistic'],['left'],['inverted'],['U0359.bmp'],['male'],[[6]],['female'],[[0]],[[0.14758454]],TM
271,[[3]],[[272]],[[20]],['high holistic'],['left'],['upright'],['U0362.bmp'],['female'],[[6]],['female'],[[1]],[[0.18353502]],TM
272,[[3]],[[273]],[[3]],['low holistic'],['left'],['upright'],['U0020.bmp'],['female'],[[12]],['female'],[[1]],[[0.87847406]],TM
273,[[3]],[[274]],[[18]],['high holistic'],['right'],['inverted'],['U0359.bmp'],['male'],[[12]],['female'],[[0]],[[1.23566971]],TM
274,[[3]],[[275]],[[19]],['low holistic'],['right'],['inverted'],['U0361.bmp'],['female'],[[8]],['female'],[[1]],[[0.18741982]],TM
275,[[3]],[[276]],[[6]],['high holistic'],['right'],['upright'],['U0106.bmp'],['female'],[[8]],['female'],[[1]],[[0.60285734]],TM
276,[[3]],[[277]],[[12]],['low holistic'],['fovea'],['upright'],['U0178.bmp'],['female'],[[0]],['female'],[[1]],[[9.91919951e-05]],TM
277,[[3]],[[278]],[[10]],['low holistic'],['left'],['upright'],['U0159.bmp'],['female'],[[6]],['female'],[[1]],[[9.85930092e-05]],TM
278,[[3]],[[279]],[[19]],['high holistic'],['right'],['inverted'],['U0361.bmp'],['female'],[[12]],['male'],[[0]],[[0.11523108]],TM
279,[[3]],[[280]],[[1]],['low holistic'],['right'],['inverted'],['U0006.bmp'],['female'],[[6]],['female'],[[1]],[[0.10313679]],TM
280,[[3]],[[281]],[[17]],['high holistic'],['right'],['inverted'],['U0346.bmp'],['male'],[[6]],['male'],[[1]],[[0.80202162]],TM
281,[[3]],[[282]],[[1]],['low holistic'],['left'],['inverted'],['U0006.bmp'],['female'],[[6]],['female'],[[1]],[[0.00011204]],TM
282,[[3]],[[283]],[[11]],['high holistic'],['fovea'],['upright'],['U0164.bmp'],['female'],[[0]],['female'],[[1]],[[0.11357273]],TM
283,[[3]],[[284]],[[4]],['low holistic'],['right'],['upright'],['U0061.bmp'],['female'],[[12]],['female'],[[1]],[[0.09438162]],TM
284,[[3]],[[285]],[[7]],['low holistic'],['left'],['inverted'],['U0107.bmp'],['female'],[[2]],['female'],[[1]],[[0.00026124]],TM
285,[[3]],[[286]],[[9]],['high holistic'],['left'],['upright'],['U0155.bmp'],['female'],[[12]],['female'],[[1]],[[9.91760171e-05]],TM
286,[[3]],[[287]],[[17]],['high holistic'],['right'],['inverted'],['U0346.bmp'],['male'],[[6]],['male'],[[1]],[[0.31425441]],TM
287,[[3]],[[288]],[[17]],['low holistic'],['left'],['inverted'],['U0346.bmp'],['female'],[[8]],['female'],[[1]],[[0.24573289]],TM
288,[[3]],[[289]],[[4]],['high holistic'],['left'],['upright'],['U0061.bmp'],['female'],[[8]],['female'],[[1]],[[9.79879987e-05]],TM
289,[[3]],[[290]],[[1]],['high holistic'],['left'],['upright'],['U0006.bmp'],['female'],[[2]],['female'],[[1]],[[9.77849995e-05]],TM
290,[[3]],[[291]],[[1]],['high holistic'],['right'],['inverted'],['U0006.bmp'],['female'],[[2]],['female'],[[1]],[[0.01974147]],TM
291,[[3]],[[292]],[[7]],['high holistic'],['left'],['upright'],['U0107.bmp'],['female'],[[4]],['female'],[[1]],[[0.31403077]],TM
292,[[3]],[[293]],[[8]],['low holistic'],['right'],['upright'],['U0137.bmp'],['male'],[[4]],['male'],[[1]],[[0.07031124]],TM
293,[[3]],[[294]],[[17]],['low holistic'],['left'],['inverted'],['U0346.bmp'],['female'],[[2]],['female'],[[1]],[[0.09107515]],TM
294,[[3]],[[295]],[[20]],['high holistic'],['left'],['upright'],['U0362.bmp'],['female'],[[12]],['male'],[[0]],[[0.20704979]],TM
295,[[3]],[[296]],[[16]],['low holistic'],['right'],['inverted'],['U0335.bmp'],['female'],[[10]],['male'],[[0]],[[0.3285692]],TM
296,[[3]],[[297]],[[13]],['low holistic'],['left'],['upright'],['U0181.bmp'],['male'],[[8]],['male'],[[1]],[[0.00231337]],TM
297,[[3]],[[298]],[[16]],['low holistic'],['fovea'],['upright'],['U0335.bmp'],['female'],[[0]],['female'],[[1]],[[0.01952221]],TM
298,[[3]],[[299]],[[10]],['high holistic'],['left'],['inverted'],['U0159.bmp'],['male'],[[12]],['male'],[[1]],[[0.22541308]],TM
299,[[3]],[[300]],[[11]],['high holistic'],['left'],['inverted'],['U0164.bmp'],['female'],[[4]],['male'],[[0]],[[0.27237841]],TM
300,[[3]],[[301]],[[6]],['low holistic'],['right'],['inverted'],['U0106.bmp'],['male'],[[6]],['male'],[[1]],[[0.20706713]],TM
301,[[3]],[[302]],[[10]],['low holistic'],['right'],['inverted'],['U0159.bmp'],['female'],[[4]],['female'],[[1]],[[0.04670898]],TM
302,[[3]],[[303]],[[18]],['low holistic'],['right'],['inverted'],['U0359.bmp'],['male'],[[4]],['male'],[[1]],[[0.17039558]],TM
303,[[3]],[[304]],[[5]],['low holistic'],['right'],['upright'],['U0076.bmp'],['male'],[[2]],['male'],[[1]],[[0.05259529]],TM
304,[[3]],[[305]],[[11]],['high holistic'],['right'],['upright'],['U0164.bmp'],['female'],[[2]],['female'],[[1]],[[0.00010774]],TM
305,[[3]],[[306]],[[12]],['low holistic'],['left'],['upright'],['U0178.bmp'],['female'],[[6]],['female'],[[1]],[[0.00010486]],TM
306,[[3]],[[307]],[[7]],['low holistic'],['fovea'],['inverted'],['U0107.bmp'],['female'],[[0]],['female'],[[1]],[[1.62734029]],TM
307,[[3]],[[308]],[[3]],['high holistic'],['left'],['inverted'],['U0020.bmp'],['male'],[[12]],['female'],[[0]],[[0.08975039]],TM
308,[[3]],[[309]],[[8]],['high holistic'],['left'],['upright'],['U0137.bmp'],['female'],[[10]],['female'],[[1]],[[0.1248578]],TM
309,[[3]],[[310]],[[5]],['low holistic'],['fovea'],['upright'],['U0076.bmp'],['male'],[[0]],['male'],[[1]],[[0.00018514]],TM
310,[[3]],[[311]],[[12]],['high holistic'],['right'],['inverted'],['U0178.bmp'],['male'],[[8]],['male'],[[1]],[[0.14458854]],TM
311,[[3]],[[312]],[[6]],['low holistic'],['fovea'],['upright'],['U0106.bmp'],['male'],[[0]],['male'],[[1]],[[0.01940216]],TM
312,[[3]],[[313]],[[4]],['high holistic'],['left'],['inverted'],['U0061.bmp'],['female'],[[12]],['female'],[[1]],[[0.20215298]],TM
313,[[3]],[[314]],[[10]],['low holistic'],['right'],['inverted'],['U0159.bmp'],['female'],[[8]],['female'],[[1]],[[0.30752251]],TM
314,[[3]],[[315]],[[5]],['low holistic'],['right'],['inverted'],['U0076.bmp'],['male'],[[10]],['male'],[[1]],[[0.09428821]],TM
315,[[3]],[[316]],[[11]],['high holistic'],['left'],['inverted'],['U0164.bmp'],['female'],[[2]],['female'],[[1]],[[0.17878079]],TM
316,[[3]],[[317]],[[2]],['low holistic'],['left'],['upright'],['U0014.bmp'],['male'],[[2]],['male'],[[1]],[[0.04229024]],TM
317,[[3]],[[318]],[[10]],['low holistic'],['left'],['upright'],['U0159.bmp'],['female'],[[12]],['male'],[[0]],[[0.14612621]],TM
318,[[3]],[[319]],[[20]],['high holistic'],['fovea'],['inverted'],['U0362.bmp'],['female'],[[0]],['male'],[[0]],[[0.22839875]],TM
319,[[3]],[[320]],[[15]],['low holistic'],['right'],['inverted'],['U0312.bmp'],['male'],[[10]],['male'],[[1]],[[0.22576896]],TM
320,[[3]],[[321]],[[11]],['high holistic'],['left'],['inverted'],['U0164.bmp'],['female'],[[2]],['male'],[[0]],[[0.21006072]],TM
321,[[3]],[[322]],[[3]],['high holistic'],['fovea'],['upright'],['U0020.bmp'],['male'],[[0]],['male'],[[1]],[[0.13757994]],TM
322,[[3]],[[323]],[[8]],['low holistic'],['right'],['inverted'],['U0137.bmp'],['male'],[[10]],['male'],[[1]],[[0.09111267]],TM
323,[[3]],[[324]],[[2]],['high holistic'],['left'],['upright'],['U0014.bmp'],['male'],[[8]],['male'],[[1]],[[0.10162367]],TM
324,[[3]],[[325]],[[14]],['low holistic'],['right'],['upright'],['U0228.bmp'],['male'],[[10]],['male'],[[1]],[[9.83520004e-05]],TM
325,[[3]],[[326]],[[11]],['high holistic'],['right'],['inverted'],['U0164.bmp'],['female'],[[10]],['male'],[[0]],[[0.10065396]],TM
326,[[3]],[[327]],[[4]],['high holistic'],['right'],['inverted'],['U0061.bmp'],['female'],[[6]],['male'],[[0]],[[0.1279109]],TM
327,[[3]],[[328]],[[9]],['high holistic'],['left'],['inverted'],['U0155.bmp'],['female'],[[10]],['male'],[[0]],[[0.41834184]],TM
328,[[3]],[[329]],[[15]],['low holistic'],['right'],['upright'],['U0312.bmp'],['male'],[[10]],['male'],[[1]],[[0.00012876]],TM
329,[[3]],[[330]],[[9]],['low holistic'],['fovea'],['upright'],['U0155.bmp'],['male'],[[0]],['male'],[[1]],[[9.93710128e-05]],TM
330,[[3]],[[331]],[[17]],['low holistic'],['right'],['inverted'],['U0346.bmp'],['female'],[[2]],['male'],[[0]],[[0.00012934]],TM
331,[[3]],[[332]],[[19]],['low holistic'],['right'],['upright'],['U0361.bmp'],['female'],[[2]],['female'],[[1]],[[9.89519758e-05]],TM
332,[[3]],[[333]],[[11]],['high holistic'],['right'],['inverted'],['U0164.bmp'],['female'],[[4]],['female'],[[1]],[[0.14569125]],TM
333,[[3]],[[334]],[[9]],['low holistic'],['right'],['upright'],['U0155.bmp'],['male'],[[6]],['male'],[[1]],[[9.7466982e-05]],TM
334,[[3]],[[335]],[[4]],['low holistic'],['right'],['upright'],['U0061.bmp'],['female'],[[2]],['female'],[[1]],[[9.91869892e-05]],TM
335,[[3]],[[336]],[[12]],['low holistic'],['right'],['upright'],['U0178.bmp'],['female'],[[8]],['female'],[[1]],[[9.86990053e-05]],TM
336,[[3]],[[337]],[[9]],['high holistic'],['fovea'],['upright'],['U0155.bmp'],['female'],[[0]],['female'],[[1]],[[0.51712363]],TM
337,[[3]],[[338]],[[2]],['high holistic'],['left'],['inverted'],['U0014.bmp'],['male'],[[6]],['male'],[[1]],[[0.47343329]],TM
338,[[3]],[[339]],[[8]],['high holistic'],['left'],['upright'],['U0137.bmp'],['female'],[[4]],['female'],[[1]],[[0.02908814]],TM
339,[[3]],[[340]],[[6]],['low holistic'],['right'],['inverted'],['U0106.bmp'],['male'],[[8]],['female'],[[0]],[[0.04384506]],TM
340,[[3]],[[341]],[[8]],['high holistic'],['right'],['inverted'],['U0137.bmp'],['female'],[[6]],['female'],[[1]],[[0.21884917]],TM
341,[[3]],[[342]],[[11]],['high holistic'],['fovea'],['inverted'],['U0164.bmp'],['female'],[[0]],['male'],[[0]],[[0.40082021]],TM
342,[[3]],[[343]],[[16]],['high holistic'],['fovea'],['inverted'],['U0335.bmp'],['female'],[[0]],['female'],[[1]],[[0.72108542]],TM
343,[[3]],[[344]],[[8]],['low holistic'],['left'],['upright'],['U0137.bmp'],['male'],[[6]],['female'],[[0]],[[0.10960287]],TM
344,[[3]],[[345]],[[20]],['high holistic'],['left'],['inverted'],['U0362.bmp'],['female'],[[10]],['female'],[[1]],[[0.24041859]],TM
345,[[3]],[[346]],[[7]],['low holistic'],['right'],['inverted'],['U0107.bmp'],['female'],[[2]],['female'],[[1]],[[0.11075981]],TM
346,[[3]],[[347]],[[7]],['high holistic'],['left'],['upright'],['U0107.bmp'],['female'],[[10]],['female'],[[1]],[[0.28934276]],TM
347,[[3]],[[348]],[[16]],['low holistic'],['right'],['inverted'],['U0335.bmp'],['female'],[[8]],['female'],[[1]],[[0.10325278]],TM
348,[[3]],[[349]],[[2]],['low holistic'],['left'],['inverted'],['U0014.bmp'],['male'],[[2]],['male'],[[1]],[[0.10594861]],TM
349,[[3]],[[350]],[[5]],['high holistic'],['right'],['upright'],['U0076.bmp'],['female'],[[4]],['female'],[[1]],[[0.10977819]],TM
350,[[3]],[[351]],[[6]],['low holistic'],['right'],['inverted'],['U0106.bmp'],['male'],[[10]],['male'],[[1]],[[0.40962278]],TM
351,[[3]],[[352]],[[20]],['high holistic'],['left'],['upright'],['U0362.bmp'],['female'],[[6]],['female'],[[1]],[[0.24028409]],TM
352,[[3]],[[353]],[[10]],['high holistic'],['left'],['upright'],['U0159.bmp'],['male'],[[6]],['male'],[[1]],[[0.00015498]],TM
353,[[3]],[[354]],[[13]],['high holistic'],['right'],['upright'],['U0181.bmp'],['female'],[[4]],['female'],[[1]],[[0.05546831]],TM
354,[[3]],[[355]],[[20]],['low holistic'],['left'],['inverted'],['U0362.bmp'],['male'],[[10]],['male'],[[1]],[[0.1028003]],TM
355,[[3]],[[356]],[[14]],['high holistic'],['right'],['inverted'],['U0228.bmp'],['male'],[[8]],['male'],[[1]],[[0.08868001]],TM
356,[[3]],[[357]],[[14]],['low holistic'],['right'],['upright'],['U0228.bmp'],['male'],[[2]],['male'],[[1]],[[0.00013385]],TM
357,[[3]],[[358]],[[10]],['high holistic'],['left'],['inverted'],['U0159.bmp'],['male'],[[12]],['female'],[[0]],[[0.10124581]],TM
358,[[3]],[[359]],[[13]],['high holistic'],['right'],['upright'],['U0181.bmp'],['female'],[[10]],['male'],[[0]],[[0.06615925]],TM
359,[[3]],[[360]],[[2]],['high holistic'],['left'],['upright'],['U0014.bmp'],['male'],[[2]],['male'],[[1]],[[1.55888581]],TM
360,[[3]],[[361]],[[18]],['low holistic'],['left'],['upright'],['U0359.bmp'],['male'],[[10]],['male'],[[1]],[[0.12046278]],TM
361,[[3]],[[362]],[[8]],['low holistic'],['left'],['upright'],['U0137.bmp'],['male'],[[6]],['male'],[[1]],[[0.15709553]],TM
362,[[3]],[[363]],[[20]],['low holistic'],['left'],['inverted'],['U0362.bmp'],['male'],[[12]],['male'],[[1]],[[0.20631522]],TM
363,[[3]],[[364]],[[13]],['low holistic'],['right'],['inverted'],['U0181.bmp'],['male'],[[10]],['male'],[[1]],[[0.01250753]],TM
364,[[3]],[[365]],[[7]],['low holistic'],['left'],['inverted'],['U0107.bmp'],['female'],[[2]],['male'],[[0]],[[0.00010638]],TM
365,[[3]],[[366]],[[6]],['high holistic'],['right'],['inverted'],['U0106.bmp'],['female'],[[4]],['male'],[[0]],[[0.29211151]],TM
366,[[3]],[[367]],[[18]],['low holistic'],['left'],['inverted'],['U0359.bmp'],['male'],[[12]],['male'],[[1]],[[0.36903132]],TM
367,[[3]],[[368]],[[12]],['high holistic'],['right'],['upright'],['U0178.bmp'],['male'],[[10]],['male'],[[1]],[[0.00158705]],TM
368,[[3]],[[369]],[[4]],['low holistic'],['right'],['upright'],['U0061.bmp'],['female'],[[4]],['female'],[[1]],[[0.00011028]],TM
369,[[3]],[[370]],[[1]],['low holistic'],['right'],['inverted'],['U0006.bmp'],['female'],[[10]],['female'],[[1]],[[0.01921369]],TM
370,[[3]],[[371]],[[20]],['low holistic'],['right'],['upright'],['U0362.bmp'],['male'],[[6]],['male'],[[1]],[[0.00046443]],TM
371,[[3]],[[372]],[[11]],['low holistic'],['right'],['inverted'],['U0164.bmp'],['female'],[[4]],['female'],[[1]],[[0.05921383]],TM
372,[[3]],[[373]],[[18]],['low holistic'],['left'],['upright'],['U0359.bmp'],['male'],[[4]],['male'],[[1]],[[0.15138333]],TM
373,[[3]],[[374]],[[20]],['high holistic'],['left'],['upright'],['U0362.bmp'],['female'],[[2]],['female'],[[1]],[[0.00038489]],TM
374,[[3]],[[375]],[[3]],['high holistic'],['right'],['inverted'],['U0020.bmp'],['male'],[[4]],['male'],[[1]],[[0.90625139]],TM
375,[[3]],[[376]],[[4]],['low holistic'],['left'],['inverted'],['U0061.bmp'],['female'],[[10]],['female'],[[1]],[[0.40384455]],TM
376,[[3]],[[377]],[[3]],['low holistic'],['right'],['upright'],['U0020.bmp'],['female'],[[10]],['female'],[[1]],[[0.18095268]],TM
377,[[3]],[[378]],[[6]],['low holistic'],['left'],['upright'],['U0106.bmp'],['male'],[[4]],['male'],[[1]],[[0.07707712]],TM
378,[[3]],[[379]],[[4]],['low holistic'],['left'],['inverted'],['U0061.bmp'],['female'],[[2]],['female'],[[1]],[[0.00047179]],TM
379,[[3]],[[380]],[[5]],['high holistic'],['right'],['upright'],['U0076.bmp'],['female'],[[10]],['female'],[[1]],[[0.17831722]],TM
380,[[3]],[[381]],[[6]],['high holistic'],['right'],['inverted'],['U0106.bmp'],['female'],[[4]],['female'],[[1]],[[0.47515735]],TM
381,[[3]],[[382]],[[10]],['high holistic'],['right'],['upright'],['U0159.bmp'],['male'],[[6]],['male'],[[1]],[[0.00797948]],TM
382,[[3]],[[383]],[[15]],['high holistic'],['right'],['inverted'],['U0312.bmp'],['male'],[[6]],['female'],[[0]],[[0.50443283]],TM
383,[[3]],[[384]],[[6]],['high holistic'],['right'],['inverted'],['U0106.bmp'],['female'],[[10]],['male'],[[0]],[[0.1885308]],TM
384,[[3]],[[385]],[[7]],['high holistic'],['right'],['inverted'],['U0107.bmp'],['female'],[[8]],['female'],[[1]],[[0.00010495]],TM
385,[[3]],[[386]],[[8]],['high holistic'],['left'],['upright'],['U0137.bmp'],['female'],[[6]],['female'],[[1]],[[0.22035384]],TM
386,[[3]],[[387]],[[13]],['low holistic'],['left'],['upright'],['U0181.bmp'],['male'],[[12]],['male'],[[1]],[[0.00016424]],TM
387,[[3]],[[388]],[[2]],['low holistic'],['left'],['upright'],['U0014.bmp'],['male'],[[6]],['male'],[[1]],[[0.07513979]],TM
388,[[3]],[[389]],[[16]],['high holistic'],['right'],['upright'],['U0335.bmp'],['female'],[[4]],['female'],[[1]],[[0.16933532]],TM
389,[[3]],[[390]],[[11]],['high holistic'],['left'],['upright'],['U0164.bmp'],['female'],[[6]],['female'],[[1]],[[0.04292469]],TM
390,[[3]],[[391]],[[15]],['low holistic'],['right'],['upright'],['U0312.bmp'],['male'],[[6]],['male'],[[1]],[[0.24669629]],TM
391,[[3]],[[392]],[[10]],['high holistic'],['right'],['inverted'],['U0159.bmp'],['male'],[[4]],['male'],[[1]],[[9.79409961e-05]],TM
392,[[3]],[[393]],[[20]],['low holistic'],['left'],['upright'],['U0362.bmp'],['male'],[[6]],['male'],[[1]],[[0.00043487]],TM
393,[[3]],[[394]],[[19]],['low holistic'],['left'],['inverted'],['U0361.bmp'],['female'],[[4]],['female'],[[1]],[[0.24541379]],TM
394,[[3]],[[395]],[[11]],['low holistic'],['fovea'],['upright'],['U0164.bmp'],['female'],[[0]],['female'],[[1]],[[9.96319868e-05]],TM
395,[[3]],[[396]],[[11]],['low holistic'],['right'],['inverted'],['U0164.bmp'],['female'],[[10]],['female'],[[1]],[[0.0001131]],TM
396,[[3]],[[397]],[[16]],['high holistic'],['right'],['inverted'],['U0335.bmp'],['female'],[[10]],['male'],[[0]],[[0.13893921]],TM
397,[[3]],[[398]],[[6]],['low holistic'],['right'],['inverted'],['U0106.bmp'],['male'],[[2]],['male'],[[1]],[[0.07681617]],TM
398,[[3]],[[399]],[[19]],['low holistic'],['left'],['inverted'],['U0361.bmp'],['female'],[[2]],['female'],[[1]],[[0.00925717]],TM
399,[[3]],[[400]],[[2]],['low holistic'],['right'],['inverted'],['U0014.bmp'],['male'],[[6]],['male'],[[1]],[[0.09654412]],TM
400,[[3]],[[401]],[[12]],['low holistic'],['left'],['inverted'],['U0178.bmp'],['female'],[[12]],['female'],[[1]],[[0.00018406]],TM
401,[[3]],[[402]],[[6]],['high holistic'],['fovea'],['inverted'],['U0106.bmp'],['female'],[[0]],['female'],[[1]],[[0.08395222]],TM
402,[[3]],[[403]],[[14]],['low holistic'],['left'],['upright'],['U0228.bmp'],['male'],[[12]],['male'],[[1]],[[0.00016119]],TM
403,[[3]],[[404]],[[8]],['low holistic'],['right'],['upright'],['U0137.bmp'],['male'],[[12]],['male'],[[1]],[[9.8872988e-05]],TM
404,[[3]],[[405]],[[9]],['high holistic'],['right'],['upright'],['U0155.bmp'],['female'],[[10]],['male'],[[0]],[[1.83350809]],TM
405,[[3]],[[406]],[[1]],['high holistic'],['right'],['inverted'],['U0006.bmp'],['female'],[[4]],['female'],[[1]],[[0.28184507]],TM
406,[[3]],[[407]],[[11]],['low holistic'],['fovea'],['inverted'],['U0164.bmp'],['female'],[[0]],['female'],[[1]],[[0.46831642]],TM
407,[[3]],[[408]],[[15]],['low holistic'],['left'],['inverted'],['U0312.bmp'],['male'],[[6]],['male'],[[1]],[[0.46700196]],TM
408,[[3]],[[409]],[[11]],['high holistic'],['left'],['inverted'],['U0164.bmp'],['female'],[[8]],['male'],[[0]],[[0.48038684]],TM
409,[[3]],[[410]],[[3]],['low holistic'],['right'],['inverted'],['U0020.bmp'],['female'],[[6]],['female'],[[1]],[[0.03604659]],TM
410,[[3]],[[411]],[[19]],['high holistic'],['right'],['upright'],['U0361.bmp'],['female'],[[12]],['female'],[[1]],[[0.09851454]],TM
411,[[3]],[[412]],[[16]],['high holistic'],['left'],['upright'],['U0335.bmp'],['female'],[[10]],['female'],[[1]],[[0.00029954]],TM
412,[[3]],[[413]],[[6]],['high holistic'],['left'],['upright'],['U0106.bmp'],['female'],[[4]],['female'],[[1]],[[0.04610538]],TM
413,[[3]],[[414]],[[6]],['low holistic'],['left'],['upright'],['U0106.bmp'],['male'],[[6]],['male'],[[1]],[[0.12518276]],TM
414,[[3]],[[415]],[[4]],['low holistic'],['left'],['upright'],['U0061.bmp'],['female'],[[6]],['female'],[[1]],[[9.92590212e-05]],TM
415,[[3]],[[416]],[[18]],['high holistic'],['right'],['upright'],['U0359.bmp'],['male'],[[10]],['male'],[[1]],[[0.68814899]],TM
416,[[3]],[[417]],[[2]],['high holistic'],['right'],['upright'],['U0014.bmp'],['male'],[[4]],['male'],[[1]],[[0.1393565]],TM
417,[[3]],[[418]],[[19]],['high holistic'],['right'],['upright'],['U0361.bmp'],['female'],[[6]],['female'],[[1]],[[0.09407621]],TM
418,[[3]],[[419]],[[12]],['low holistic'],['right'],['inverted'],['U0178.bmp'],['female'],[[12]],['female'],[[1]],[[0.88170137]],TM
419,[[3]],[[420]],[[17]],['high holistic'],['left'],['inverted'],['U0346.bmp'],['male'],[[4]],['female'],[[0]],[[0.18335795]],TM
420,[[3]],[[421]],[[17]],['high holistic'],['left'],['upright'],['U0346.bmp'],['male'],[[2]],['male'],[[1]],[[0.00781446]],TM
421,[[3]],[[422]],[[16]],['high holistic'],['right'],['inverted'],['U0335.bmp'],['female'],[[6]],['female'],[[1]],[[0.79219412]],TM
422,[[3]],[[423]],[[20]],['high holistic'],['fovea'],['upright'],['U0362.bmp'],['female'],[[0]],['female'],[[1]],[[0.16086351]],TM
423,[[3]],[[424]],[[16]],['high holistic'],['left'],['inverted'],['U0335.bmp'],['female'],[[2]],['male'],[[0]],[[0.70540743]],TM
424,[[3]],[[425]],[[11]],['high holistic'],['right'],['upright'],['U0164.bmp'],['female'],[[4]],['female'],[[1]],[[0.0209236]],TM
425,[[3]],[[426]],[[4]],['high holistic'],['left'],['inverted'],['U0061.bmp'],['female'],[[4]],['male'],[[0]],[[0.01377029]],TM
426,[[3]],[[427]],[[5]],['low holistic'],['right'],['inverted'],['U0076.bmp'],['male'],[[4]],['female'],[[0]],[[0.32445806]],TM
427,[[3]],[[428]],[[5]],['low holistic'],['right'],['upright'],['U0076.bmp'],['male'],[[10]],['male'],[[1]],[[0.1028825]],TM
428,[[3]],[[429]],[[20]],['low holistic'],['right'],['inverted'],['U0362.bmp'],['male'],[[8]],['male'],[[1]],[[0.09615107]],TM
429,[[3]],[[430]],[[18]],['low holistic'],['left'],['inverted'],['U0359.bmp'],['male'],[[8]],['male'],[[1]],[[0.1515571]],TM
430,[[3]],[[431]],[[17]],['low holistic'],['right'],['inverted'],['U0346.bmp'],['female'],[[6]],['male'],[[0]],[[0.24043686]],TM
431,[[3]],[[432]],[[11]],['low holistic'],['left'],['inverted'],['U0164.bmp'],['female'],[[12]],['female'],[[1]],[[0.15009468]],TM
432,[[3]],[[433]],[[1]],['low holistic'],['left'],['upright'],['U0006.bmp'],['female'],[[2]],['female'],[[1]],[[0.00010003]],TM
433,[[3]],[[434]],[[2]],['high holistic'],['left'],['upright'],['U0014.bmp'],['male'],[[2]],['male'],[[1]],[[0.32836755]],TM
434,[[3]],[[435]],[[1]],['high holistic'],['right'],['inverted'],['U0006.bmp'],['female'],[[12]],['female'],[[1]],[[0.21178105]],TM
435,[[3]],[[436]],[[10]],['high holistic'],['right'],['inverted'],['U0159.bmp'],['male'],[[6]],['female'],[[0]],[[0.47473597]],TM
436,[[3]],[[437]],[[4]],['high holistic'],['left'],['inverted'],['U0061.bmp'],['female'],[[10]],['male'],[[0]],[[0.23264972]],TM
437,[[3]],[[438]],[[16]],['low holistic'],['right'],['upright'],['U0335.bmp'],['female'],[[8]],['female'],[[1]],[[0.07936583]],TM
438,[[3]],[[439]],[[1]],['high holistic'],['right'],['upright'],['U0006.bmp'],['female'],[[4]],['female'],[[1]],[[0.08522288]],TM
439,[[3]],[[440]],[[7]],['low holistic'],['left'],['inverted'],['U0107.bmp'],['female'],[[4]],['female'],[[1]],[[0.00033871]],TM
440,[[3]],[[441]],[[17]],['low holistic'],['right'],['inverted'],['U0346.bmp'],['female'],[[6]],['female'],[[1]],[[0.27256535]],TM
441,[[3]],[[442]],[[5]],['low holistic'],['right'],['inverted'],['U0076.bmp'],['male'],[[2]],['male'],[[1]],[[0.14036753]],TM
442,[[3]],[[443]],[[5]],['low holistic'],['fovea'],['upright'],['U0076.bmp'],['male'],[[0]],['male'],[[1]],[[0.10353509]],TM
443,[[3]],[[444]],[[20]],['high holistic'],['left'],['inverted'],['U0362.bmp'],['female'],[[12]],['female'],[[1]],[[2.18780283]],TM
444,[[3]],[[445]],[[16]],['low holistic'],['fovea'],['upright'],['U0335.bmp'],['female'],[[0]],['female'],[[1]],[[9.89619875e-05]],TM
445,[[3]],[[446]],[[10]],['high holistic'],['left'],['upright'],['U0159.bmp'],['male'],[[4]],['female'],[[0]],[[9.94100119e-05]],TM
446,[[3]],[[447]],[[7]],['high holistic'],['left'],['upright'],['U0107.bmp'],['female'],[[12]],['female'],[[1]],[[0.25300622]],TM
447,[[3]],[[448]],[[17]],['low holistic'],['left'],['inverted'],['U0346.bmp'],['female'],[[10]],['male'],[[0]],[[0.05832969]],TM
448,[[3]],[[449]],[[10]],['low holistic'],['fovea'],['upright'],['U0159.bmp'],['female'],[[0]],['female'],[[1]],[[0.15088257]],TM
449,[[3]],[[450]],[[19]],['low holistic'],['left'],['inverted'],['U0361.bmp'],['female'],[[6]],['female'],[[1]],[[0.00926219]],TM
450,[[3]],[[451]],[[19]],['high holistic'],['right'],['inverted'],['U0361.bmp'],['female'],[[12]],['male'],[[0]],[[0.31931483]],TM
451,[[3]],[[452]],[[20]],['high holistic'],['right'],['upright'],['U0362.bmp'],['female'],[[8]],['female'],[[1]],[[0.05897226]],TM
452,[[3]],[[453]],[[18]],['high holistic'],['right'],['inverted'],['U0359.bmp'],['male'],[[6]],['male'],[[1]],[[0.39118282]],TM
453,[[3]],[[454]],[[4]],['low holistic'],['right'],['upright'],['U0061.bmp'],['female'],[[2]],['female'],[[1]],[[0.00967556]],TM
454,[[3]],[[455]],[[8]],['low holistic'],['right'],['inverted'],['U0137.bmp'],['male'],[[12]],['male'],[[1]],[[0.37659433]],TM
455,[[3]],[[456]],[[20]],['low holistic'],['right'],['upright'],['U0362.bmp'],['male'],[[10]],['male'],[[1]],[[0.06520347]],TM
456,[[3]],[[457]],[[20]],['high holistic'],['right'],['upright'],['U0362.bmp'],['female'],[[6]],['female'],[[1]],[[0.04392048]],TM
457,[[3]],[[458]],[[5]],['high holistic'],['left'],['upright'],['U0076.bmp'],['female'],[[8]],['female'],[[1]],[[0.17302257]],TM
458,[[3]],[[459]],[[5]],['high holistic'],['left'],['inverted'],['U0076.bmp'],['female'],[[10]],['male'],[[0]],[[0.35730746]],TM
459,[[3]],[[460]],[[13]],['low holistic'],['left'],['inverted'],['U0181.bmp'],['male'],[[12]],['male'],[[1]],[[0.25386771]],TM
460,[[3]],[[461]],[[4]],['high holistic'],['right'],['inverted'],['U0061.bmp'],['female'],[[12]],['male'],[[0]],[[0.24353713]],TM
461,[[3]],[[462]],[[8]],['high holistic'],['left'],['inverted'],['U0137.bmp'],['female'],[[2]],['female'],[[1]],[[0.37155515]],TM
462,[[3]],[[463]],[[12]],['low holistic'],['right'],['upright'],['U0178.bmp'],['female'],[[12]],['female'],[[1]],[[0.04331991]],TM
463,[[3]],[[464]],[[4]],['high holistic'],['left'],['inverted'],['U0061.bmp'],['female'],[[6]],['male'],[[0]],[[0.32149718]],TM
464,[[3]],[[465]],[[17]],['high holistic'],['left'],['upright'],['U0346.bmp'],['male'],[[8]],['male'],[[1]],[[0.26735452]],TM
465,[[3]],[[466]],[[6]],['low holistic'],['right'],['upright'],['U0106.bmp'],['male'],[[12]],['male'],[[1]],[[0.26448468]],TM
466,[[3]],[[467]],[[19]],['low holistic'],['left'],['inverted'],['U0361.bmp'],['female'],[[10]],['male'],[[0]],[[0.2943351]],TM
467,[[3]],[[468]],[[18]],['high holistic'],['right'],['inverted'],['U0359.bmp'],['male'],[[8]],['female'],[[0]],[[1.43617684]],TM
468,[[3]],[[469]],[[17]],['high holistic'],['left'],['upright'],['U0346.bmp'],['male'],[[12]],['female'],[[0]],[[0.40175461]],TM
469,[[3]],[[470]],[[7]],['high holistic'],['left'],['upright'],['U0107.bmp'],['female'],[[8]],['female'],[[1]],[[1.06574188]],TM
470,[[3]],[[471]],[[6]],['low holistic'],['right'],['upright'],['U0106.bmp'],['male'],[[10]],['male'],[[1]],[[0.1512874]],TM
471,[[3]],[[472]],[[1]],['high holistic'],['left'],['inverted'],['U0006.bmp'],['female'],[[10]],['female'],[[1]],[[0.84754202]],TM
472,[[3]],[[473]],[[11]],['low holistic'],['left'],['upright'],['U0164.bmp'],['female'],[[4]],['female'],[[1]],[[0.06132947]],TM
473,[[3]],[[474]],[[3]],['high holistic'],['right'],['inverted'],['U0020.bmp'],['male'],[[8]],['female'],[[0]],[[0.38803851]],TM
474,[[3]],[[475]],[[19]],['low holistic'],['right'],['upright'],['U0361.bmp'],['female'],[[4]],['female'],[[1]],[[0.00012174]],TM
475,[[3]],[[476]],[[7]],['low holistic'],['right'],['upright'],['U0107.bmp'],['female'],[[4]],['female'],[[1]],[[9.95730225e-05]],TM
476,[[3]],[[477]],[[2]],['low holistic'],['right'],['inverted'],['U0014.bmp'],['male'],[[2]],['male'],[[1]],[[0.27376702]],TM
477,[[3]],[[478]],[[19]],['high holistic'],['left'],['inverted'],['U0361.bmp'],['female'],[[6]],['male'],[[0]],[[0.23200332]],TM
478,[[3]],[[479]],[[13]],['low holistic'],['left'],['upright'],['U0181.bmp'],['male'],[[6]],['male'],[[1]],[[0.02120278]],TM
479,[[3]],[[480]],[[3]],['high holistic'],['right'],['upright'],['U0020.bmp'],['male'],[[10]],['male'],[[1]],[[0.25153491]],TM
480,[[3]],[[481]],[[6]],['high holistic'],['right'],['upright'],['U0106.bmp'],['female'],[[4]],['female'],[[1]],[[0.15449273]],TM
481,[[3]],[[482]],[[12]],['low holistic'],['left'],['upright'],['U0178.bmp'],['female'],[[8]],['male'],[[0]],[[0.00018587]],TM
482,[[3]],[[483]],[[20]],['low holistic'],['left'],['upright'],['U0362.bmp'],['male'],[[8]],['male'],[[1]],[[0.10885769]],TM
483,[[3]],[[484]],[[18]],['high holistic'],['right'],['upright'],['U0359.bmp'],['male'],[[12]],['male'],[[1]],[[0.27932709]],TM
484,[[3]],[[485]],[[16]],['low holistic'],['left'],['inverted'],['U0335.bmp'],['female'],[[4]],['male'],[[0]],[[0.50818155]],TM
485,[[3]],[[486]],[[2]],['high holistic'],['right'],['inverted'],['U0014.bmp'],['male'],[[2]],['male'],[[1]],[[0.19812943]],TM
486,[[3]],[[487]],[[5]],['low holistic'],['right'],['inverted'],['U0076.bmp'],['male'],[[4]],['male'],[[1]],[[1.05522131]],TM
487,[[3]],[[488]],[[6]],['low holistic'],['right'],['upright'],['U0106.bmp'],['male'],[[6]],['male'],[[1]],[[0.21220218]],TM
488,[[3]],[[489]],[[12]],['low holistic'],['right'],['upright'],['U0178.bmp'],['female'],[[4]],['female'],[[1]],[[0.00010994]],TM
489,[[3]],[[490]],[[18]],['high holistic'],['right'],['inverted'],['U0359.bmp'],['male'],[[12]],['female'],[[0]],[[0.26699322]],TM
490,[[3]],[[491]],[[6]],['high holistic'],['right'],['upright'],['U0106.bmp'],['female'],[[12]],['male'],[[0]],[[0.16742552]],TM
491,[[3]],[[492]],[[3]],['high holistic'],['left'],['upright'],['U0020.bmp'],['male'],[[12]],['male'],[[1]],[[0.25649796]],TM
492,[[3]],[[493]],[[6]],['high holistic'],['left'],['upright'],['U0106.bmp'],['female'],[[12]],['female'],[[1]],[[0.19879125]],TM
493,[[3]],[[494]],[[8]],['low holistic'],['fovea'],['inverted'],['U0137.bmp'],['male'],[[0]],['male'],[[1]],[[0.59149146]],TM
494,[[3]],[[495]],[[4]],['low holistic'],['left'],['inverted'],['U0061.bmp'],['female'],[[4]],['male'],[[0]],[[0.30948607]],TM
495,[[3]],[[496]],[[5]],['low holistic'],['left'],['inverted'],['U0076.bmp'],['male'],[[6]],['male'],[[1]],[[0.21911155]],TM
496,[[3]],[[497]],[[3]],['low holistic'],['right'],['upright'],['U0020.bmp'],['female'],[[4]],['female'],[[1]],[[0.13801399]],TM
497,[[3]],[[498]],[[1]],['high holistic'],['fovea'],['inverted'],['U0006.bmp'],['female'],[[0]],['female'],[[1]],[[0.42098304]],TM
498,[[3]],[[499]],[[2]],['high holistic'],['fovea'],['upright'],['U0014.bmp'],['male'],[[0]],['male'],[[1]],[[0.2999505]],TM
499,[[3]],[[500]],[[6]],['low holistic'],['right'],['upright'],['U0106.bmp'],['male'],[[4]],['male'],[[1]],[[0.12747097]],TM
500,[[3]],[[501]],[[6]],['high holistic'],['fovea'],['upright'],['U0106.bmp'],['female'],[[0]],['female'],[[1]],[[0.05102613]],TM
501,[[3]],[[502]],[[1]],['high holistic'],['left'],['upright'],['U0006.bmp'],['female'],[[4]],['female'],[[1]],[[0.10478736]],TM
502,[[3]],[[503]],[[13]],['high holistic'],['right'],['inverted'],['U0181.bmp'],['female'],[[4]],['female'],[[1]],[[0.30886016]],TM
503,[[3]],[[504]],[[8]],['low holistic'],['right'],['upright'],['U0137.bmp'],['male'],[[2]],['male'],[[1]],[[0.13469392]],TM
504,[[3]],[[505]],[[9]],['low holistic'],['fovea'],['inverted'],['U0155.bmp'],['male'],[[0]],['female'],[[0]],[[0.31474623]],TM
505,[[3]],[[506]],[[7]],['high holistic'],['right'],['upright'],['U0107.bmp'],['female'],[[4]],['female'],[[1]],[[0.11035578]],TM
506,[[3]],[[507]],[[4]],['high holistic'],['left'],['upright'],['U0061.bmp'],['female'],[[2]],['female'],[[1]],[[0.00021195]],TM
507,[[3]],[[508]],[[19]],['low holistic'],['right'],['inverted'],['U0361.bmp'],['female'],[[12]],['female'],[[1]],[[0.0253519]],TM
508,[[3]],[[509]],[[1]],['low holistic'],['left'],['upright'],['U0006.bmp'],['female'],[[12]],['female'],[[1]],[[0.000104]],TM
509,[[3]],[[510]],[[4]],['high holistic'],['right'],['inverted'],['U0061.bmp'],['female'],[[10]],['female'],[[1]],[[2.3342547]],TM
510,[[3]],[[511]],[[3]],['high holistic'],['right'],['inverted'],['U0020.bmp'],['male'],[[12]],['male'],[[1]],[[0.52949043]],TM
511,[[3]],[[512]],[[4]],['low holistic'],['left'],['inverted'],['U0061.bmp'],['female'],[[2]],['female'],[[1]],[[0.07509047]],TM
512,[[3]],[[513]],[[16]],['high holistic'],['fovea'],['inverted'],['U0335.bmp'],['female'],[[0]],['male'],[[0]],[[0.16971932]],TM
513,[[3]],[[514]],[[2]],['high holistic'],['left'],['inverted'],['U0014.bmp'],['male'],[[4]],['male'],[[1]],[[0.16990379]],TM
514,[[3]],[[515]],[[7]],['low holistic'],['left'],['inverted'],['U0107.bmp'],['female'],[[12]],['female'],[[1]],[[0.06568381]],TM
515,[[3]],[[516]],[[5]],['low holistic'],['right'],['inverted'],['U0076.bmp'],['male'],[[6]],['male'],[[1]],[[0.30371983]],TM
516,[[3]],[[517]],[[17]],['low holistic'],['right'],['inverted'],['U0346.bmp'],['female'],[[12]],['female'],[[1]],[[0.0185377]],TM
517,[[3]],[[518]],[[2]],['high holistic'],['right'],['upright'],['U0014.bmp'],['male'],[[6]],['male'],[[1]],[[0.1073308]],TM
518,[[3]],[[519]],[[19]],['high holistic'],['left'],['inverted'],['U0361.bmp'],['female'],[[6]],['male'],[[0]],[[0.85366742]],TM
519,[[3]],[[520]],[[11]],['high holistic'],['right'],['upright'],['U0164.bmp'],['female'],[[6]],['female'],[[1]],[[0.0828791]],TM
520,[[3]],[[521]],[[1]],['high holistic'],['right'],['upright'],['U0006.bmp'],['female'],[[8]],['female'],[[1]],[[0.52303019]],TM
521,[[3]],[[522]],[[17]],['high holistic'],['left'],['upright'],['U0346.bmp'],['male'],[[6]],['male'],[[1]],[[0.00015565]],TM
522,[[3]],[[523]],[[10]],['low holistic'],['right'],['inverted'],['U0159.bmp'],['female'],[[4]],['female'],[[1]],[[0.11007581]],TM
523,[[3]],[[524]],[[11]],['low holistic'],['left'],['upright'],['U0164.bmp'],['female'],[[4]],['female'],[[1]],[[0.02511985]],TM
524,[[3]],[[525]],[[15]],['low holistic'],['right'],['inverted'],['U0312.bmp'],['male'],[[2]],['male'],[[1]],[[0.04113795]],TM
525,[[3]],[[526]],[[2]],['low holistic'],['left'],['upright'],['U0014.bmp'],['male'],[[12]],['female'],[[0]],[[9.95660084e-05]],TM
526,[[3]],[[527]],[[1]],['high holistic'],['right'],['inverted'],['U0006.bmp'],['female'],[[8]],['female'],[[1]],[[0.25343856]],TM
527,[[3]],[[528]],[[7]],['low holistic'],['right'],['upright'],['U0107.bmp'],['female'],[[6]],['female'],[[1]],[[9.84450162e-05]],TM
528,[[3]],[[529]],[[20]],['low holistic'],['right'],['upright'],['U0362.bmp'],['male'],[[8]],['male'],[[1]],[[0.13237035]],TM
529,[[3]],[[530]],[[19]],['high holistic'],['right'],['inverted'],['U0361.bmp'],['female'],[[2]],['male'],[[0]],[[0.56511202]],TM
530,[[3]],[[531]],[[2]],['low holistic'],['left'],['inverted'],['U0014.bmp'],['male'],[[12]],['male'],[[1]],[[0.00010696]],TM
531,[[3]],[[532]],[[5]],['high holistic'],['left'],['inverted'],['U0076.bmp'],['female'],[[8]],['female'],[[1]],[[0.36789584]],TM
532,[[3]],[[533]],[[4]],['low holistic'],['right'],['upright'],['U0061.bmp'],['female'],[[10]],['female'],[[1]],[[0.26382699]],TM
533,[[3]],[[534]],[[19]],['low holistic'],['left'],['upright'],['U0361.bmp'],['female'],[[2]],['female'],[[1]],[[9.86980158e-05]],TM
534,[[3]],[[535]],[[3]],['low holistic'],['left'],['upright'],['U0020.bmp'],['female'],[[6]],['female'],[[1]],[[9.73959977e-05]],TM
535,[[3]],[[536]],[[2]],['high holistic'],['right'],['upright'],['U0014.bmp'],['male'],[[12]],['male'],[[1]],[[0.00011919]],TM
536,[[3]],[[537]],[[2]],['high holistic'],['right'],['inverted'],['U0014.bmp'],['male'],[[12]],['male'],[[1]],[[0.07441932]],TM
537,[[3]],[[538]],[[9]],['low holistic'],['right'],['upright'],['U0155.bmp'],['male'],[[10]],['male'],[[1]],[[0.04873817]],TM
538,[[3]],[[539]],[[5]],['low holistic'],['left'],['inverted'],['U0076.bmp'],['male'],[[10]],['male'],[[1]],[[0.04587049]],TM
539,[[3]],[[540]],[[11]],['high holistic'],['left'],['upright'],['U0164.bmp'],['female'],[[4]],['female'],[[1]],[[0.14064881]],TM
540,[[3]],[[541]],[[10]],['high holistic'],['right'],['inverted'],['U0159.bmp'],['male'],[[2]],['male'],[[1]],[[0.34222767]],TM
541,[[3]],[[542]],[[2]],['low holistic'],['right'],['upright'],['U0014.bmp'],['male'],[[6]],['male'],[[1]],[[0.12040912]],TM
542,[[3]],[[543]],[[20]],['low holistic'],['right'],['upright'],['U0362.bmp'],['male'],[[12]],['male'],[[1]],[[0.05853879]],TM
543,[[3]],[[544]],[[19]],['low holistic'],['fovea'],['inverted'],['U0361.bmp'],['female'],[[0]],['female'],[[1]],[[0.04084903]],TM
544,[[3]],[[545]],[[1]],['low holistic'],['left'],['upright'],['U0006.bmp'],['female'],[[2]],['female'],[[1]],[[0.00020427]],TM
545,[[3]],[[546]],[[4]],['high holistic'],['left'],['upright'],['U0061.bmp'],['female'],[[8]],['female'],[[1]],[[0.11809584]],TM
546,[[3]],[[547]],[[14]],['high holistic'],['right'],['upright'],['U0228.bmp'],['male'],[[6]],['male'],[[1]],[[0.0648037]],TM
547,[[3]],[[548]],[[2]],['high holistic'],['right'],['inverted'],['U0014.bmp'],['male'],[[2]],['male'],[[1]],[[0.18182575]],TM
548,[[3]],[[549]],[[13]],['low holistic'],['right'],['upright'],['U0181.bmp'],['male'],[[8]],['male'],[[1]],[[0.1592044]],TM
549,[[3]],[[550]],[[8]],['low holistic'],['right'],['upright'],['U0137.bmp'],['male'],[[12]],['male'],[[1]],[[0.03117021]],TM
550,[[3]],[[551]],[[9]],['high holistic'],['left'],['upright'],['U0155.bmp'],['female'],[[4]],['male'],[[0]],[[0.17334804]],TM
551,[[3]],[[552]],[[10]],['low holistic'],['left'],['upright'],['U0159.bmp'],['female'],[[10]],['female'],[[1]],[[0.00026423]],TM
552,[[3]],[[553]],[[11]],['low holistic'],['right'],['inverted'],['U0164.bmp'],['female'],[[4]],['female'],[[1]],[[0.02172127]],TM
553,[[3]],[[554]],[[20]],['high holistic'],['left'],['inverted'],['U0362.bmp'],['female'],[[12]],['female'],[[1]],[[0.0600854]],TM
554,[[3]],[[555]],[[3]],['high holistic'],['left'],['upright'],['U0020.bmp'],['male'],[[2]],['female'],[[0]],[[0.00010887]],TM
555,[[3]],[[556]],[[16]],['low holistic'],['left'],['inverted'],['U0335.bmp'],['female'],[[6]],['female'],[[1]],[[0.09865162]],TM
556,[[3]],[[557]],[[7]],['high holistic'],['left'],['inverted'],['U0107.bmp'],['female'],[[10]],['male'],[[0]],[[0.34106421]],TM
557,[[3]],[[558]],[[10]],['high holistic'],['left'],['upright'],['U0159.bmp'],['male'],[[12]],['male'],[[1]],[[0.38472447]],TM
558,[[3]],[[559]],[[11]],['high holistic'],['left'],['inverted'],['U0164.bmp'],['female'],[[4]],['male'],[[0]],[[0.56848559]],TM
559,[[3]],[[560]],[[18]],['low holistic'],['left'],['upright'],['U0359.bmp'],['male'],[[2]],['male'],[[1]],[[0.1686393]],TM
560,[[3]],[[561]],[[16]],['low holistic'],['left'],['inverted'],['U0335.bmp'],['female'],[[4]],['female'],[[1]],[[0.10531272]],TM
561,[[3]],[[562]],[[16]],['low holistic'],['fovea'],['inverted'],['U0335.bmp'],['female'],[[0]],['female'],[[1]],[[0.01315015]],TM
562,[[3]],[[563]],[[18]],['low holistic'],['right'],['inverted'],['U0359.bmp'],['male'],[[4]],['male'],[[1]],[[0.08370132]],TM
563,[[3]],[[564]],[[17]],['high holistic'],['right'],['inverted'],['U0346.bmp'],['male'],[[8]],['male'],[[1]],[[0.31266238]],TM
564,[[3]],[[565]],[[8]],['high holistic'],['fovea'],['upright'],['U0137.bmp'],['female'],[[0]],['female'],[[1]],[[0.02736441]],TM
565,[[3]],[[566]],[[5]],['high holistic'],['fovea'],['inverted'],['U0076.bmp'],['female'],[[0]],['male'],[[0]],[[0.20302595]],TM
566,[[3]],[[567]],[[13]],['low holistic'],['left'],['inverted'],['U0181.bmp'],['male'],[[2]],['male'],[[1]],[[0.58518419]],TM
567,[[3]],[[568]],[[19]],['high holistic'],['right'],['inverted'],['U0361.bmp'],['female'],[[8]],['female'],[[1]],[[0.25943281]],TM
568,[[3]],[[569]],[[9]],['high holistic'],['left'],['upright'],['U0155.bmp'],['female'],[[12]],['female'],[[1]],[[0.07191263]],TM
569,[[3]],[[570]],[[13]],['low holistic'],['right'],['inverted'],['U0181.bmp'],['male'],[[12]],['female'],[[0]],[[0.0207144]],TM
570,[[3]],[[571]],[[20]],['low holistic'],['right'],['upright'],['U0362.bmp'],['male'],[[6]],['male'],[[1]],[[0.09871114]],TM
571,[[3]],[[572]],[[14]],['high holistic'],['left'],['inverted'],['U0228.bmp'],['male'],[[4]],['male'],[[1]],[[0.38446016]],TM
572,[[3]],[[573]],[[3]],['high holistic'],['right'],['inverted'],['U0020.bmp'],['male'],[[6]],['female'],[[0]],[[0.04770982]],TM
573,[[3]],[[574]],[[9]],['low holistic'],['right'],['upright'],['U0155.bmp'],['male'],[[8]],['female'],[[0]],[[0.06087934]],TM
574,[[3]],[[575]],[[17]],['high holistic'],['right'],['upright'],['U0346.bmp'],['male'],[[6]],['male'],[[1]],[[0.08401547]],TM
575,[[3]],[[576]],[[2]],['low holistic'],['left'],['upright'],['U0014.bmp'],['male'],[[10]],['male'],[[1]],[[0.23859337]],TM
576,[[3]],[[577]],[[13]],['low holistic'],['right'],['inverted'],['U0181.bmp'],['male'],[[12]],['male'],[[1]],[[0.19008589]],TM
577,[[3]],[[578]],[[19]],['low holistic'],['left'],['upright'],['U0361.bmp'],['female'],[[8]],['female'],[[1]],[[0.05981462]],TM
578,[[3]],[[579]],[[1]],['high holistic'],['right'],['inverted'],['U0006.bmp'],['female'],[[4]],['female'],[[1]],[[0.21767969]],TM
579,[[3]],[[580]],[[5]],['high holistic'],['right'],['upright'],['U0076.bmp'],['female'],[[6]],['female'],[[1]],[[0.16901217]],TM
580,[[3]],[[581]],[[17]],['high holistic'],['right'],['upright'],['U0346.bmp'],['male'],[[10]],['male'],[[1]],[[0.22594763]],TM
581,[[3]],[[582]],[[13]],['low holistic'],['right'],['upright'],['U0181.bmp'],['male'],[[2]],['male'],[[1]],[[0.17743316]],TM
582,[[3]],[[583]],[[1]],['low holistic'],['left'],['upright'],['U0006.bmp'],['female'],[[2]],['female'],[[1]],[[0.00011307]],TM
583,[[3]],[[584]],[[1]],['high holistic'],['left'],['inverted'],['U0006.bmp'],['female'],[[2]],['male'],[[0]],[[0.24760324]],TM
584,[[3]],[[585]],[[4]],['high holistic'],['right'],['inverted'],['U0061.bmp'],['female'],[[2]],['female'],[[1]],[[0.25418497]],TM
585,[[3]],[[586]],[[1]],['high holistic'],['right'],['upright'],['U0006.bmp'],['female'],[[12]],['female'],[[1]],[[0.00010686]],TM
586,[[3]],[[587]],[[4]],['low holistic'],['right'],['inverted'],['U0061.bmp'],['female'],[[6]],['female'],[[1]],[[0.05749237]],TM
587,[[3]],[[588]],[[20]],['low holistic'],['right'],['inverted'],['U0362.bmp'],['male'],[[2]],['female'],[[0]],[[9.80469922e-05]],TM
588,[[3]],[[589]],[[10]],['low holistic'],['left'],['inverted'],['U0159.bmp'],['female'],[[6]],['female'],[[1]],[[9.88359971e-05]],TM
589,[[3]],[[590]],[[9]],['high holistic'],['right'],['inverted'],['U0155.bmp'],['female'],[[10]],['male'],[[0]],[[0.6627777]],TM
590,[[3]],[[591]],[[13]],['high holistic'],['right'],['upright'],['U0181.bmp'],['female'],[[4]],['female'],[[1]],[[0.25829243]],TM
591,[[3]],[[592]],[[10]],['high holistic'],['left'],['upright'],['U0159.bmp'],['male'],[[10]],['male'],[[1]],[[0.14413224]],TM
592,[[3]],[[593]],[[3]],['low holistic'],['right'],['upright'],['U0020.bmp'],['female'],[[12]],['female'],[[1]],[[0.05816601]],TM
593,[[3]],[[594]],[[11]],['high holistic'],['left'],['inverted'],['U0164.bmp'],['female'],[[2]],['male'],[[0]],[[0.19073868]],TM
594,[[3]],[[595]],[[9]],['high holistic'],['fovea'],['upright'],['U0155.bmp'],['female'],[[0]],['female'],[[1]],[[0.09549879]],TM
595,[[3]],[[596]],[[20]],['low holistic'],['right'],['upright'],['U0362.bmp'],['male'],[[10]],['male'],[[1]],[[0.00010791]],TM
596,[[3]],[[597]],[[4]],['low holistic'],['fovea'],['upright'],['U0061.bmp'],['female'],[[0]],['female'],[[1]],[[1.42611404]],TM
597,[[3]],[[598]],[[18]],['low holistic'],['right'],['upright'],['U0359.bmp'],['male'],[[4]],['male'],[[1]],[[0.12942752]],TM
598,[[3]],[[599]],[[15]],['low holistic'],['left'],['upright'],['U0312.bmp'],['male'],[[6]],['male'],[[1]],[[0.18799573]],TM
599,[[3]],[[600]],[[12]],['high holistic'],['right'],['inverted'],['U0178.bmp'],['male'],[[12]],['male'],[[1]],[[0.00032341]],TM
600,[[3]],[[601]],[[16]],['low holistic'],['left'],['inverted'],['U0335.bmp'],['female'],[[2]],['male'],[[0]],[[0.05111253]],TM
601,[[3]],[[602]],[[17]],['low holistic'],['left'],['upright'],['U0346.bmp'],['female'],[[4]],['female'],[[1]],[[0.312594]],TM
602,[[3]],[[603]],[[13]],['low holistic'],['right'],['upright'],['U0181.bmp'],['male'],[[12]],['male'],[[1]],[[0.1791115]],TM
603,[[3]],[[604]],[[11]],['low holistic'],['left'],['inverted'],['U0164.bmp'],['female'],[[12]],['female'],[[1]],[[0.37960385]],TM
604,[[3]],[[605]],[[12]],['low holistic'],['fovea'],['upright'],['U0178.bmp'],['female'],[[0]],['female'],[[1]],[[0.00415512]],TM
605,[[3]],[[606]],[[7]],['low holistic'],['left'],['inverted'],['U0107.bmp'],['female'],[[10]],['female'],[[1]],[[0.00017243]],TM
606,[[3]],[[607]],[[18]],['low holistic'],['left'],['inverted'],['U0359.bmp'],['male'],[[8]],['male'],[[1]],[[1.84399465]],TM
607,[[3]],[[608]],[[5]],['low holistic'],['right'],['inverted'],['U0076.bmp'],['male'],[[12]],['male'],[[1]],[[0.03446738]],TM
608,[[3]],[[609]],[[12]],['high holistic'],['left'],['upright'],['U0178.bmp'],['male'],[[10]],['male'],[[1]],[[0.06535226]],TM
609,[[3]],[[610]],[[6]],['high holistic'],['left'],['inverted'],['U0106.bmp'],['female'],[[8]],['male'],[[0]],[[9.94330039e-05]],TM
610,[[3]],[[611]],[[6]],['low holistic'],['right'],['upright'],['U0106.bmp'],['male'],[[2]],['male'],[[1]],[[0.10163006]],TM
611,[[3]],[[612]],[[2]],['low holistic'],['right'],['upright'],['U0014.bmp'],['male'],[[4]],['male'],[[1]],[[0.00044806]],TM
612,[[3]],[[613]],[[5]],['high holistic'],['right'],['inverted'],['U0076.bmp'],['female'],[[6]],['female'],[[1]],[[0.44829519]],TM
613,[[3]],[[614]],[[20]],['high holistic'],['left'],['upright'],['U0362.bmp'],['female'],[[4]],['female'],[[1]],[[0.10163725]],TM
614,[[3]],[[615]],[[2]],['low holistic'],['left'],['inverted'],['U0014.bmp'],['male'],[[4]],['male'],[[1]],[[0.13660568]],TM
615,[[3]],[[616]],[[2]],['low holistic'],['right'],['upright'],['U0014.bmp'],['male'],[[2]],['male'],[[1]],[[0.00017389]],TM
616,[[3]],[[617]],[[19]],['high holistic'],['left'],['upright'],['U0361.bmp'],['female'],[[12]],['female'],[[1]],[[0.1872751]],TM
617,[[3]],[[618]],[[15]],['high holistic'],['left'],['upright'],['U0312.bmp'],['male'],[[10]],['male'],[[1]],[[0.15560765]],TM
618,[[3]],[[619]],[[5]],['low holistic'],['left'],['upright'],['U0076.bmp'],['male'],[[2]],['female'],[[0]],[[0.29061684]],TM
619,[[3]],[[620]],[[2]],['low holistic'],['left'],['upright'],['U0014.bmp'],['male'],[[8]],['male'],[[1]],[[0.10407155]],TM
620,[[3]],[[621]],[[17]],['low holistic'],['right'],['upright'],['U0346.bmp'],['female'],[[2]],['female'],[[1]],[[0.00020758]],TM
621,[[3]],[[622]],[[5]],['high holistic'],['right'],['inverted'],['U0076.bmp'],['female'],[[6]],['female'],[[1]],[[0.33208023]],TM
622,[[3]],[[623]],[[2]],['high holistic'],['left'],['inverted'],['U0014.bmp'],['male'],[[6]],['male'],[[1]],[[0.52540493]],TM
623,[[3]],[[624]],[[4]],['low holistic'],['right'],['inverted'],['U0061.bmp'],['female'],[[2]],['female'],[[1]],[[0.0001496]],TM
624,[[3]],[[625]],[[15]],['high holistic'],['right'],['upright'],['U0312.bmp'],['male'],[[12]],['male'],[[1]],[[0.04713036]],TM
625,[[3]],[[626]],[[12]],['high holistic'],['left'],['inverted'],['U0178.bmp'],['male'],[[6]],['male'],[[1]],[[0.34846408]],TM
626,[[3]],[[627]],[[15]],['low holistic'],['left'],['inverted'],['U0312.bmp'],['male'],[[12]],['male'],[[1]],[[0.71165302]],TM
627,[[3]],[[628]],[[13]],['low holistic'],['left'],['upright'],['U0181.bmp'],['male'],[[2]],['male'],[[1]],[[0.00020258]],TM
628,[[3]],[[629]],[[19]],['high holistic'],['fovea'],['upright'],['U0361.bmp'],['female'],[[0]],['female'],[[1]],[[1.78657351]],TM
629,[[3]],[[630]],[[1]],['high holistic'],['left'],['inverted'],['U0006.bmp'],['female'],[[12]],['female'],[[1]],[[0.31395166]],TM
630,[[3]],[[631]],[[15]],['high holistic'],['left'],['upright'],['U0312.bmp'],['male'],[[6]],['male'],[[1]],[[0.10961901]],TM
631,[[3]],[[632]],[[2]],['high holistic'],['right'],['inverted'],['U0014.bmp'],['male'],[[8]],['male'],[[1]],[[0.5757793]],TM
632,[[3]],[[633]],[[4]],['low holistic'],['left'],['upright'],['U0061.bmp'],['female'],[[8]],['female'],[[1]],[[0.08977475]],TM
633,[[3]],[[634]],[[16]],['low holistic'],['left'],['upright'],['U0335.bmp'],['female'],[[4]],['female'],[[1]],[[0.15852924]],TM
634,[[3]],[[635]],[[20]],['low holistic'],['left'],['upright'],['U0362.bmp'],['male'],[[4]],['male'],[[1]],[[0.03044441]],TM
635,[[3]],[[636]],[[10]],['high holistic'],['left'],['upright'],['U0159.bmp'],['male'],[[12]],['male'],[[1]],[[0.34059565]],TM
636,[[3]],[[637]],[[13]],['high holistic'],['left'],['inverted'],['U0181.bmp'],['female'],[[4]],['male'],[[0]],[[0.42669589]],TM
637,[[3]],[[638]],[[18]],['low holistic'],['left'],['inverted'],['U0359.bmp'],['male'],[[2]],['male'],[[1]],[[0.23697307]],TM
638,[[3]],[[639]],[[4]],['high holistic'],['fovea'],['upright'],['U0061.bmp'],['female'],[[0]],['female'],[[1]],[[0.34661977]],TM
639,[[3]],[[640]],[[13]],['high holistic'],['left'],['inverted'],['U0181.bmp'],['female'],[[12]],['female'],[[1]],[[0.44308397]],TM
640,[[3]],[[641]],[[19]],['high holistic'],['left'],['upright'],['U0361.bmp'],['female'],[[8]],['female'],[[1]],[[0.24109028]],TM
641,[[3]],[[642]],[[4]],['high holistic'],['right'],['upright'],['U0061.bmp'],['female'],[[12]],['female'],[[1]],[[0.17552065]],TM
642,[[3]],[[643]],[[3]],['high holistic'],['left'],['upright'],['U0020.bmp'],['male'],[[2]],['female'],[[0]],[[9.69280081e-05]],TM
643,[[3]],[[644]],[[4]],['low holistic'],['left'],['inverted'],['U0061.bmp'],['female'],[[4]],['female'],[[1]],[[0.00011344]],TM
644,[[3]],[[645]],[[12]],['low holistic'],['left'],['upright'],['U0178.bmp'],['female'],[[4]],['female'],[[1]],[[0.00010574]],TM
645,[[3]],[[646]],[[19]],['high holistic'],['right'],['upright'],['U0361.bmp'],['female'],[[4]],['female'],[[1]],[[0.03924922]],TM
646,[[3]],[[647]],[[4]],['high holistic'],['left'],['upright'],['U0061.bmp'],['female'],[[10]],['female'],[[1]],[[0.10948544]],TM
647,[[3]],[[648]],[[4]],['high holistic'],['left'],['inverted'],['U0061.bmp'],['female'],[[2]],['female'],[[1]],[[0.31348801]],TM
648,[[3]],[[649]],[[18]],['low holistic'],['left'],['upright'],['U0359.bmp'],['male'],[[2]],['male'],[[1]],[[0.06882906]],TM
649,[[3]],[[650]],[[3]],['low holistic'],['right'],['inverted'],['U0020.bmp'],['female'],[[8]],['female'],[[1]],[[0.08840254]],TM
650,[[3]],[[651]],[[11]],['low holistic'],['right'],['upright'],['U0164.bmp'],['female'],[[6]],['female'],[[1]],[[1.32571999]],TM
651,[[3]],[[652]],[[9]],['high holistic'],['left'],['upright'],['U0155.bmp'],['female'],[[8]],['male'],[[0]],[[0.11071951]],TM
652,[[3]],[[653]],[[4]],['low holistic'],['left'],['upright'],['U0061.bmp'],['female'],[[4]],['female'],[[1]],[[9.87779931e-05]],TM
653,[[3]],[[654]],[[8]],['high holistic'],['right'],['upright'],['U0137.bmp'],['female'],[[12]],['female'],[[1]],[[0.12969751]],TM
654,[[3]],[[655]],[[6]],['high holistic'],['left'],['inverted'],['U0106.bmp'],['female'],[[10]],['female'],[[1]],[[0.25059854]],TM
655,[[3]],[[656]],[[6]],['high holistic'],['right'],['inverted'],['U0106.bmp'],['female'],[[6]],['female'],[[1]],[[0.00860238]],TM
656,[[3]],[[657]],[[4]],['high holistic'],['right'],['upright'],['U0061.bmp'],['female'],[[8]],['male'],[[0]],[[0.169215]],TM
657,[[3]],[[658]],[[9]],['high holistic'],['right'],['upright'],['U0155.bmp'],['female'],[[10]],['male'],[[0]],[[0.09740439]],TM
658,[[3]],[[659]],[[16]],['low holistic'],['right'],['inverted'],['U0335.bmp'],['female'],[[2]],['male'],[[0]],[[0.15683837]],TM
659,[[3]],[[660]],[[14]],['low holistic'],['left'],['upright'],['U0228.bmp'],['male'],[[12]],['male'],[[1]],[[0.05543788]],TM
660,[[3]],[[661]],[[5]],['low holistic'],['left'],['upright'],['U0076.bmp'],['male'],[[2]],['male'],[[1]],[[0.09067649]],TM
661,[[3]],[[662]],[[2]],['low holistic'],['left'],['inverted'],['U0014.bmp'],['male'],[[4]],['male'],[[1]],[[0.19143529]],TM
662,[[3]],[[663]],[[9]],['high holistic'],['left'],['inverted'],['U0155.bmp'],['female'],[[10]],['female'],[[1]],[[0.2074987]],TM
663,[[3]],[[664]],[[18]],['high holistic'],['left'],['upright'],['U0359.bmp'],['male'],[[8]],['male'],[[1]],[[0.16685843]],TM
664,[[3]],[[665]],[[2]],['low holistic'],['left'],['upright'],['U0014.bmp'],['male'],[[4]],['male'],[[1]],[[0.13505402]],TM
665,[[3]],[[666]],[[2]],['high holistic'],['right'],['inverted'],['U0014.bmp'],['male'],[[12]],['female'],[[0]],[[0.10514023]],TM
666,[[3]],[[667]],[[9]],['low holistic'],['left'],['upright'],['U0155.bmp'],['male'],[[10]],['male'],[[1]],[[0.38003714]],TM
667,[[3]],[[668]],[[4]],['high holistic'],['left'],['upright'],['U0061.bmp'],['female'],[[10]],['female'],[[1]],[[0.00011894]],TM
668,[[3]],[[669]],[[13]],['high holistic'],['fovea'],['inverted'],['U0181.bmp'],['female'],[[0]],['male'],[[0]],[[0.09181351]],TM
669,[[3]],[[670]],[[4]],['high holistic'],['fovea'],['inverted'],['U0061.bmp'],['female'],[[0]],['male'],[[0]],[[0.18540768]],TM
670,[[3]],[[671]],[[15]],['low holistic'],['left'],['inverted'],['U0312.bmp'],['male'],[[4]],['male'],[[1]],[[0.01658031]],TM
671,[[3]],[[672]],[[20]],['high holistic'],['right'],['inverted'],['U0362.bmp'],['female'],[[12]],['male'],[[0]],[[0.27900356]],TM
672,[[3]],[[673]],[[1]],['low holistic'],['left'],['upright'],['U0006.bmp'],['female'],[[4]],['female'],[[1]],[[0.00034623]],TM
673,[[3]],[[674]],[[15]],['low holistic'],['right'],['upright'],['U0312.bmp'],['male'],[[10]],['male'],[[1]],[[0.14018607]],TM
674,[[3]],[[675]],[[2]],['low holistic'],['left'],['upright'],['U0014.bmp'],['male'],[[8]],['male'],[[1]],[[0.18205268]],TM
675,[[3]],[[676]],[[9]],['high holistic'],['right'],['inverted'],['U0155.bmp'],['female'],[[4]],['female'],[[1]],[[0.49397158]],TM
676,[[3]],[[677]],[[18]],['low holistic'],['right'],['inverted'],['U0359.bmp'],['male'],[[12]],['male'],[[1]],[[0.12918042]],TM
677,[[3]],[[678]],[[19]],['high holistic'],['left'],['upright'],['U0361.bmp'],['female'],[[4]],['female'],[[1]],[[0.04439431]],TM
678,[[3]],[[679]],[[17]],['low holistic'],['left'],['upright'],['U0346.bmp'],['female'],[[6]],['female'],[[1]],[[0.00023219]],TM
679,[[3]],[[680]],[[16]],['high holistic'],['right'],['upright'],['U0335.bmp'],['female'],[[2]],['female'],[[1]],[[0.06668785]],TM
680,[[3]],[[681]],[[7]],['high holistic'],['left'],['upright'],['U0107.bmp'],['female'],[[8]],['male'],[[0]],[[0.10181192]],TM
681,[[3]],[[682]],[[19]],['high holistic'],['right'],['inverted'],['U0361.bmp'],['female'],[[12]],['female'],[[1]],[[0.21732846]],TM
682,[[3]],[[683]],[[4]],['high holistic'],['right'],['upright'],['U0061.bmp'],['female'],[[10]],['female'],[[1]],[[0.28011278]],TM
683,[[3]],[[684]],[[1]],['high holistic'],['right'],['inverted'],['U0006.bmp'],['female'],[[4]],['female'],[[1]],[[0.34931358]],TM
684,[[3]],[[685]],[[19]],['low holistic'],['right'],['upright'],['U0361.bmp'],['female'],[[10]],['female'],[[1]],[[0.0159838]],TM
685,[[3]],[[686]],[[11]],['high holistic'],['fovea'],['upright'],['U0164.bmp'],['female'],[[0]],['female'],[[1]],[[0.11096451]],TM
686,[[3]],[[687]],[[20]],['high holistic'],['right'],['inverted'],['U0362.bmp'],['female'],[[12]],['female'],[[1]],[[0.34454013]],TM
687,[[3]],[[688]],[[8]],['low holistic'],['right'],['upright'],['U0137.bmp'],['male'],[[10]],['male'],[[1]],[[0.08431219]],TM
688,[[3]],[[689]],[[17]],['high holistic'],['right'],['inverted'],['U0346.bmp'],['male'],[[10]],['male'],[[1]],[[0.23227089]],TM
689,[[3]],[[690]],[[2]],['high holistic'],['left'],['upright'],['U0014.bmp'],['male'],[[10]],['male'],[[1]],[[0.08579733]],TM
690,[[3]],[[691]],[[7]],['low holistic'],['fovea'],['upright'],['U0107.bmp'],['female'],[[0]],['female'],[[1]],[[0.03331765]],TM
691,[[3]],[[692]],[[14]],['high holistic'],['left'],['inverted'],['U0228.bmp'],['male'],[[10]],['male'],[[1]],[[0.53708216]],TM
692,[[3]],[[693]],[[20]],['low holistic'],['left'],['inverted'],['U0362.bmp'],['male'],[[6]],['male'],[[1]],[[0.24206882]],TM
693,[[3]],[[694]],[[5]],['low holistic'],['right'],['upright'],['U0076.bmp'],['male'],[[6]],['male'],[[1]],[[0.16897555]],TM
694,[[3]],[[695]],[[19]],['low holistic'],['right'],['inverted'],['U0361.bmp'],['female'],[[2]],['female'],[[1]],[[0.47285165]],TM
695,[[3]],[[696]],[[2]],['low holistic'],['right'],['upright'],['U0014.bmp'],['male'],[[6]],['male'],[[1]],[[0.18145593]],TM
696,[[3]],[[697]],[[7]],['high holistic'],['left'],['upright'],['U0107.bmp'],['female'],[[2]],['female'],[[1]],[[0.32652131]],TM
697,[[3]],[[698]],[[1]],['low holistic'],['right'],['upright'],['U0006.bmp'],['female'],[[8]],['female'],[[1]],[[0.15284844]],TM
698,[[3]],[[699]],[[18]],['low holistic'],['right'],['inverted'],['U0359.bmp'],['male'],[[8]],['male'],[[1]],[[0.26705629]],TM
699,[[3]],[[700]],[[5]],['high holistic'],['left'],['upright'],['U0076.bmp'],['female'],[[2]],['female'],[[1]],[[0.22456422]],TM
700,[[3]],[[701]],[[4]],['low holistic'],['left'],['upright'],['U0061.bmp'],['female'],[[8]],['female'],[[1]],[[0.12596559]],TM
701,[[3]],[[702]],[[9]],['low holistic'],['right'],['inverted'],['U0155.bmp'],['male'],[[8]],['male'],[[1]],[[0.0231578]],TM
702,[[3]],[[703]],[[19]],['low holistic'],['left'],['inverted'],['U0361.bmp'],['female'],[[6]],['female'],[[1]],[[0.00038016]],TM
703,[[3]],[[704]],[[17]],['high holistic'],['left'],['upright'],['U0346.bmp'],['male'],[[12]],['male'],[[1]],[[0.1014461]],TM
704,[[3]],[[705]],[[16]],['high holistic'],['right'],['inverted'],['U0335.bmp'],['female'],[[8]],['male'],[[0]],[[0.28133313]],TM
705,[[3]],[[706]],[[8]],['high holistic'],['right'],['inverted'],['U0137.bmp'],['female'],[[6]],['male'],[[0]],[[0.00553429]],TM
706,[[3]],[[707]],[[9]],['low holistic'],['right'],['upright'],['U0155.bmp'],['male'],[[8]],['male'],[[1]],[[0.10202738]],TM
707,[[3]],[[708]],[[15]],['low holistic'],['right'],['inverted'],['U0312.bmp'],['male'],[[6]],['male'],[[1]],[[0.00012292]],TM
708,[[3]],[[709]],[[6]],['high holistic'],['left'],['inverted'],['U0106.bmp'],['female'],[[2]],['female'],[[1]],[[0.38347849]],TM
709,[[3]],[[710]],[[11]],['high holistic'],['left'],['inverted'],['U0164.bmp'],['female'],[[8]],['female'],[[1]],[[0.23892462]],TM
710,[[3]],[[711]],[[1]],['low holistic'],['left'],['inverted'],['U0006.bmp'],['female'],[[6]],['female'],[[1]],[[0.03870786]],TM
711,[[3]],[[712]],[[7]],['low holistic'],['left'],['upright'],['U0107.bmp'],['female'],[[12]],['female'],[[1]],[[0.01306956]],TM
712,[[3]],[[713]],[[4]],['high holistic'],['right'],['inverted'],['U0061.bmp'],['female'],[[6]],['female'],[[1]],[[0.21983038]],TM
713,[[3]],[[714]],[[16]],['low holistic'],['left'],['inverted'],['U0335.bmp'],['female'],[[2]],['female'],[[1]],[[0.08357103]],TM
714,[[3]],[[715]],[[18]],['high holistic'],['left'],['inverted'],['U0359.bmp'],['male'],[[12]],['male'],[[1]],[[0.27815976]],TM
715,[[3]],[[716]],[[19]],['low holistic'],['left'],['upright'],['U0361.bmp'],['female'],[[6]],['female'],[[1]],[[9.84890212e-05]],TM
716,[[3]],[[717]],[[6]],['high holistic'],['right'],['upright'],['U0106.bmp'],['female'],[[4]],['female'],[[1]],[[0.18610996]],TM
717,[[3]],[[718]],[[20]],['high holistic'],['left'],['inverted'],['U0362.bmp'],['female'],[[4]],['female'],[[1]],[[0.19535448]],TM
718,[[3]],[[719]],[[3]],['low holistic'],['left'],['inverted'],['U0020.bmp'],['female'],[[6]],['female'],[[1]],[[0.1623508]],TM
719,[[3]],[[720]],[[3]],['high holistic'],['right'],['inverted'],['U0020.bmp'],['male'],[[4]],['female'],[[0]],[[0.18073989]],TM
720,[[3]],[[721]],[[10]],['low holistic'],['left'],['upright'],['U0159.bmp'],['female'],[[4]],['female'],[[1]],[[0.01177244]],TM
721,[[3]],[[722]],[[13]],['low holistic'],['fovea'],['inverted'],['U0181.bmp'],['male'],[[0]],['female'],[[0]],[[0.18623832]],TM
722,[[3]],[[723]],[[8]],['high holistic'],['right'],['upright'],['U0137.bmp'],['female'],[[2]],['male'],[[0]],[[0.00010911]],TM
723,[[3]],[[724]],[[19]],['low holistic'],['left'],['upright'],['U0361.bmp'],['female'],[[10]],['female'],[[1]],[[0.05971462]],TM
724,[[3]],[[725]],[[14]],['low holistic'],['left'],['upright'],['U0228.bmp'],['male'],[[6]],['male'],[[1]],[[0.07242628]],TM
725,[[3]],[[726]],[[14]],['low holistic'],['left'],['upright'],['U0228.bmp'],['male'],[[12]],['male'],[[1]],[[0.28592216]],TM
726,[[3]],[[727]],[[17]],['high holistic'],['right'],['upright'],['U0346.bmp'],['male'],[[12]],['male'],[[1]],[[0.2497193]],TM
727,[[3]],[[728]],[[6]],['low holistic'],['left'],['inverted'],['U0106.bmp'],['male'],[[12]],['female'],[[0]],[[0.28749115]],TM
728,[[3]],[[729]],[[4]],['low holistic'],['fovea'],['upright'],['U0061.bmp'],['female'],[[0]],['female'],[[1]],[[0.00010421]],TM
729,[[3]],[[730]],[[3]],['high holistic'],['right'],['inverted'],['U0020.bmp'],['male'],[[10]],['female'],[[0]],[[0.13826285]],TM
730,[[3]],[[731]],[[11]],['high holistic'],['left'],['inverted'],['U0164.bmp'],['female'],[[10]],['female'],[[1]],[[0.30814325]],TM
731,[[3]],[[732]],[[1]],['low holistic'],['right'],['upright'],['U0006.bmp'],['female'],[[6]],['female'],[[1]],[[9.66869993e-05]],TM
732,[[3]],[[733]],[[5]],['high holistic'],['right'],['upright'],['U0076.bmp'],['female'],[[2]],['female'],[[1]],[[9.71850241e-05]],TM
733,[[3]],[[734]],[[1]],['low holistic'],['left'],['upright'],['U0006.bmp'],['female'],[[10]],['female'],[[1]],[[9.75410221e-05]],TM
734,[[3]],[[735]],[[5]],['high holistic'],['left'],['upright'],['U0076.bmp'],['female'],[[2]],['female'],[[1]],[[0.00010041]],TM
735,[[3]],[[736]],[[13]],['high holistic'],['left'],['upright'],['U0181.bmp'],['female'],[[2]],['female'],[[1]],[[0.03044946]],TM
736,[[3]],[[737]],[[18]],['high holistic'],['right'],['upright'],['U0359.bmp'],['male'],[[8]],['male'],[[1]],[[0.1314927]],TM
737,[[3]],[[738]],[[12]],['high holistic'],['right'],['upright'],['U0178.bmp'],['male'],[[2]],['male'],[[1]],[[0.35974314]],TM
738,[[3]],[[739]],[[9]],['high holistic'],['right'],['upright'],['U0155.bmp'],['female'],[[4]],['female'],[[1]],[[0.13739935]],TM
739,[[3]],[[740]],[[6]],['high holistic'],['right'],['upright'],['U0106.bmp'],['female'],[[6]],['female'],[[1]],[[0.12259328]],TM
740,[[3]],[[741]],[[20]],['high holistic'],['right'],['upright'],['U0362.bmp'],['female'],[[8]],['female'],[[1]],[[0.07063534]],TM
741,[[3]],[[742]],[[10]],['high holistic'],['right'],['upright'],['U0159.bmp'],['male'],[[10]],['male'],[[1]],[[0.09049728]],TM
742,[[3]],[[743]],[[15]],['high holistic'],['left'],['inverted'],['U0312.bmp'],['male'],[[6]],['male'],[[1]],[[0.40726381]],TM
743,[[3]],[[744]],[[11]],['high holistic'],['right'],['upright'],['U0164.bmp'],['female'],[[12]],['male'],[[0]],[[0.83822274]],TM
744,[[3]],[[745]],[[2]],['low holistic'],['right'],['inverted'],['U0014.bmp'],['male'],[[8]],['male'],[[1]],[[0.17925243]],TM
745,[[3]],[[746]],[[6]],['high holistic'],['right'],['upright'],['U0106.bmp'],['female'],[[8]],['male'],[[0]],[[0.13978081]],TM
746,[[3]],[[747]],[[13]],['low holistic'],['right'],['upright'],['U0181.bmp'],['male'],[[6]],['male'],[[1]],[[0.00010614]],TM
747,[[3]],[[748]],[[1]],['low holistic'],['left'],['inverted'],['U0006.bmp'],['female'],[[8]],['female'],[[1]],[[0.15591392]],TM
748,[[3]],[[749]],[[18]],['low holistic'],['right'],['upright'],['U0359.bmp'],['male'],[[8]],['male'],[[1]],[[0.18128755]],TM
749,[[3]],[[750]],[[12]],['low holistic'],['right'],['inverted'],['U0178.bmp'],['female'],[[10]],['female'],[[1]],[[9.9353987e-05]],TM
750,[[3]],[[751]],[[19]],['low holistic'],['right'],['upright'],['U0361.bmp'],['female'],[[10]],['female'],[[1]],[[0.00480024]],TM
751,[[3]],[[752]],[[1]],['low holistic'],['left'],['upright'],['U0006.bmp'],['female'],[[4]],['female'],[[1]],[[0.0001118]],TM
752,[[3]],[[753]],[[16]],['high holistic'],['left'],['inverted'],['U0335.bmp'],['female'],[[4]],['female'],[[1]],[[0.34915742]],TM
753,[[3]],[[754]],[[16]],['high holistic'],['right'],['inverted'],['U0335.bmp'],['female'],[[8]],['female'],[[1]],[[0.06214992]],TM
754,[[3]],[[755]],[[6]],['high holistic'],['right'],['inverted'],['U0106.bmp'],['female'],[[8]],['male'],[[0]],[[0.07458738]],TM
755,[[3]],[[756]],[[11]],['high holistic'],['left'],['upright'],['U0164.bmp'],['female'],[[6]],['female'],[[1]],[[0.08925344]],TM
756,[[3]],[[757]],[[11]],['low holistic'],['left'],['inverted'],['U0164.bmp'],['female'],[[4]],['female'],[[1]],[[0.22810985]],TM
757,[[3]],[[758]],[[20]],['low holistic'],['left'],['inverted'],['U0362.bmp'],['male'],[[12]],['male'],[[1]],[[0.40305789]],TM
758,[[3]],[[759]],[[15]],['high holistic'],['right'],['inverted'],['U0312.bmp'],['male'],[[2]],['female'],[[0]],[[0.45944292]],TM
759,[[3]],[[760]],[[18]],['high holistic'],['right'],['inverted'],['U0359.bmp'],['male'],[[2]],['male'],[[1]],[[0.34233236]],TM
760,[[3]],[[761]],[[16]],['low holistic'],['right'],['upright'],['U0335.bmp'],['female'],[[2]],['female'],[[1]],[[0.21784416]],TM
761,[[3]],[[762]],[[15]],['low holistic'],['left'],['inverted'],['U0312.bmp'],['male'],[[2]],['male'],[[1]],[[0.31082722]],TM
762,[[3]],[[763]],[[7]],['high holistic'],['right'],['inverted'],['U0107.bmp'],['female'],[[6]],['male'],[[0]],[[0.29209058]],TM
763,[[3]],[[764]],[[14]],['low holistic'],['left'],['inverted'],['U0228.bmp'],['male'],[[12]],['female'],[[0]],[[0.10406779]],TM
764,[[3]],[[765]],[[1]],['low holistic'],['fovea'],['inverted'],['U0006.bmp'],['female'],[[0]],['female'],[[1]],[[9.79909964e-05]],TM
765,[[3]],[[766]],[[8]],['high holistic'],['right'],['upright'],['U0137.bmp'],['female'],[[12]],['female'],[[1]],[[0.24354983]],TM
766,[[3]],[[767]],[[12]],['low holistic'],['right'],['inverted'],['U0178.bmp'],['female'],[[2]],['female'],[[1]],[[9.80679761e-05]],TM
767,[[3]],[[768]],[[14]],['low holistic'],['fovea'],['upright'],['U0228.bmp'],['male'],[[0]],['male'],[[1]],[[0.06490085]],TM
768,[[3]],[[769]],[[10]],['low holistic'],['right'],['inverted'],['U0159.bmp'],['female'],[[6]],['female'],[[1]],[[0.08634969]],TM
769,[[3]],[[770]],[[16]],['low holistic'],['left'],['upright'],['U0335.bmp'],['female'],[[10]],['female'],[[1]],[[0.25172023]],TM
770,[[3]],[[771]],[[15]],['high holistic'],['right'],['inverted'],['U0312.bmp'],['male'],[[2]],['female'],[[0]],[[0.41574949]],TM
771,[[3]],[[772]],[[8]],['low holistic'],['right'],['inverted'],['U0137.bmp'],['male'],[[12]],['male'],[[1]],[[0.60778396]],TM
772,[[3]],[[773]],[[7]],['low holistic'],['fovea'],['inverted'],['U0107.bmp'],['female'],[[0]],['female'],[[1]],[[9.87960084e-05]],TM
773,[[3]],[[774]],[[14]],['low holistic'],['right'],['inverted'],['U0228.bmp'],['male'],[[4]],['female'],[[0]],[[0.17369543]],TM
774,[[3]],[[775]],[[9]],['low holistic'],['left'],['inverted'],['U0155.bmp'],['male'],[[4]],['female'],[[0]],[[0.06907359]],TM
775,[[3]],[[776]],[[19]],['low holistic'],['right'],['inverted'],['U0361.bmp'],['female'],[[2]],['female'],[[1]],[[0.13203947]],TM
776,[[3]],[[777]],[[2]],['low holistic'],['left'],['inverted'],['U0014.bmp'],['male'],[[8]],['female'],[[0]],[[0.38957178]],TM
