,SUBID,TRIAL,MOONEYID,MOONEYCATEGORY,LOC,COND,MOONEY_NAME,MOONEY_GENDER,ECCENTRICITY,RESPONSE,ACCURACY,RT,SUBINIT
0,[[9]],[[1]],[[17]],['low holistic'],['left'],['inverted'],['U0346.bmp'],['female'],[[12]],['female'],[[1]],[[0.33274183]],YM
1,[[9]],[[2]],[[11]],['high holistic'],['left'],['inverted'],['U0164.bmp'],['female'],[[2]],['male'],[[0]],[[0.18432751]],YM
2,[[9]],[[3]],[[10]],['low holistic'],['left'],['inverted'],['U0159.bmp'],['female'],[[10]],['female'],[[1]],[[0.03282087]],YM
3,[[9]],[[4]],[[2]],['high holistic'],['left'],['upright'],['U0014.bmp'],['male'],[[6]],['male'],[[1]],[[9.96533781e-05]],YM
4,[[9]],[[5]],[[11]],['high holistic'],['fovea'],['upright'],['U0164.bmp'],['female'],[[0]],['female'],[[1]],[[0.01491768]],YM
5,[[9]],[[6]],[[7]],['high holistic'],['left'],['upright'],['U0107.bmp'],['female'],[[10]],['female'],[[1]],[[0.19978146]],YM
6,[[9]],[[7]],[[2]],['high holistic'],['right'],['upright'],['U0014.bmp'],['male'],[[12]],['male'],[[1]],[[0.00010821]],YM
7,[[9]],[[8]],[[17]],['high holistic'],['left'],['inverted'],['U0346.bmp'],['male'],[[4]],['female'],[[0]],[[0.27961089]],YM
8,[[9]],[[9]],[[12]],['low holistic'],['left'],['inverted'],['U0178.bmp'],['female'],[[10]],['female'],[[1]],[[0.06712976]],YM
9,[[9]],[[10]],[[1]],['low holistic'],['left'],['upright'],['U0006.bmp'],['female'],[[4]],['female'],[[1]],[[0.00094569]],YM
10,[[9]],[[11]],[[17]],['high holistic'],['fovea'],['upright'],['U0346.bmp'],['male'],[[0]],['male'],[[1]],[[0.00039861]],YM
11,[[9]],[[12]],[[9]],['high holistic'],['right'],['upright'],['U0155.bmp'],['female'],[[12]],['male'],[[0]],[[0.09079212]],YM
12,[[9]],[[13]],[[13]],['high holistic'],['left'],['upright'],['U0181.bmp'],['female'],[[12]],['male'],[[0]],[[0.00028554]],YM
13,[[9]],[[14]],[[13]],['low holistic'],['right'],['upright'],['U0181.bmp'],['male'],[[6]],['male'],[[1]],[[0.0003274]],YM
14,[[9]],[[15]],[[13]],['low holistic'],['left'],['inverted'],['U0181.bmp'],['male'],[[4]],['male'],[[1]],[[0.14255389]],YM
15,[[9]],[[16]],[[16]],['high holistic'],['left'],['upright'],['U0335.bmp'],['female'],[[8]],['female'],[[1]],[[0.15279371]],YM
16,[[9]],[[17]],[[13]],['low holistic'],['right'],['inverted'],['U0181.bmp'],['male'],[[4]],['male'],[[1]],[[0.14755985]],YM
17,[[9]],[[18]],[[2]],['low holistic'],['right'],['upright'],['U0014.bmp'],['male'],[[4]],['male'],[[1]],[[0.02161491]],YM
18,[[9]],[[19]],[[1]],['low holistic'],['left'],['upright'],['U0006.bmp'],['female'],[[10]],['female'],[[1]],[[0.03791628]],YM
19,[[9]],[[20]],[[2]],['high holistic'],['right'],['upright'],['U0014.bmp'],['male'],[[2]],['male'],[[1]],[[0.00267899]],YM
20,[[9]],[[21]],[[19]],['high holistic'],['right'],['inverted'],['U0361.bmp'],['female'],[[12]],['male'],[[0]],[[0.20188324]],YM
21,[[9]],[[22]],[[13]],['high holistic'],['fovea'],['upright'],['U0181.bmp'],['female'],[[0]],['female'],[[1]],[[0.00026592]],YM
22,[[9]],[[23]],[[18]],['low holistic'],['right'],['upright'],['U0359.bmp'],['male'],[[2]],['female'],[[0]],[[0.26896074]],YM
23,[[9]],[[24]],[[15]],['high holistic'],['right'],['upright'],['U0312.bmp'],['male'],[[6]],['male'],[[1]],[[0.00922856]],YM
24,[[9]],[[25]],[[2]],['low holistic'],['fovea'],['upright'],['U0014.bmp'],['male'],[[0]],['male'],[[1]],[[0.00016046]],YM
25,[[9]],[[26]],[[14]],['low holistic'],['right'],['upright'],['U0228.bmp'],['male'],[[4]],['male'],[[1]],[[0.00010843]],YM
26,[[9]],[[27]],[[12]],['high holistic'],['left'],['upright'],['U0178.bmp'],['male'],[[8]],['male'],[[1]],[[0.11191652]],YM
27,[[9]],[[28]],[[18]],['high holistic'],['left'],['upright'],['U0359.bmp'],['male'],[[12]],['male'],[[1]],[[9.91467386e-05]],YM
28,[[9]],[[29]],[[4]],['low holistic'],['left'],['upright'],['U0061.bmp'],['female'],[[8]],['female'],[[1]],[[0.11630723]],YM
29,[[9]],[[30]],[[4]],['high holistic'],['right'],['upright'],['U0061.bmp'],['female'],[[4]],['female'],[[1]],[[0.01740505]],YM
30,[[9]],[[31]],[[20]],['high holistic'],['left'],['inverted'],['U0362.bmp'],['female'],[[6]],['female'],[[1]],[[0.19861329]],YM
31,[[9]],[[32]],[[13]],['low holistic'],['left'],['inverted'],['U0181.bmp'],['male'],[[10]],['male'],[[1]],[[9.98424366e-05]],YM
32,[[9]],[[33]],[[11]],['low holistic'],['right'],['upright'],['U0164.bmp'],['female'],[[6]],['female'],[[1]],[[0.18340292]],YM
33,[[9]],[[34]],[[10]],['high holistic'],['right'],['upright'],['U0159.bmp'],['male'],[[6]],['male'],[[1]],[[0.03077897]],YM
34,[[9]],[[35]],[[15]],['high holistic'],['right'],['inverted'],['U0312.bmp'],['male'],[[10]],['male'],[[1]],[[0.1105252]],YM
35,[[9]],[[36]],[[8]],['low holistic'],['left'],['inverted'],['U0137.bmp'],['male'],[[2]],['male'],[[1]],[[0.06703571]],YM
36,[[9]],[[37]],[[10]],['low holistic'],['left'],['inverted'],['U0159.bmp'],['female'],[[10]],['male'],[[0]],[[0.04070253]],YM
37,[[9]],[[38]],[[9]],['low holistic'],['left'],['inverted'],['U0155.bmp'],['male'],[[12]],['male'],[[1]],[[0.00034505]],YM
38,[[9]],[[39]],[[9]],['low holistic'],['right'],['inverted'],['U0155.bmp'],['male'],[[8]],['male'],[[1]],[[0.00024888]],YM
39,[[9]],[[40]],[[19]],['high holistic'],['right'],['upright'],['U0361.bmp'],['female'],[[6]],['male'],[[0]],[[0.14202149]],YM
40,[[9]],[[41]],[[15]],['low holistic'],['right'],['inverted'],['U0312.bmp'],['male'],[[2]],['male'],[[1]],[[0.08895854]],YM
41,[[9]],[[42]],[[9]],['low holistic'],['left'],['inverted'],['U0155.bmp'],['male'],[[6]],['male'],[[1]],[[0.00608261]],YM
42,[[9]],[[43]],[[14]],['low holistic'],['fovea'],['upright'],['U0228.bmp'],['male'],[[0]],['male'],[[1]],[[0.00038994]],YM
43,[[9]],[[44]],[[9]],['high holistic'],['left'],['inverted'],['U0155.bmp'],['female'],[[2]],['female'],[[1]],[[0.14795806]],YM
44,[[9]],[[45]],[[4]],['high holistic'],['left'],['upright'],['U0061.bmp'],['female'],[[2]],['female'],[[1]],[[0.00019304]],YM
45,[[9]],[[46]],[[12]],['low holistic'],['left'],['inverted'],['U0178.bmp'],['female'],[[12]],['female'],[[1]],[[0.07819976]],YM
46,[[9]],[[47]],[[8]],['high holistic'],['right'],['upright'],['U0137.bmp'],['female'],[[12]],['male'],[[0]],[[0.01183435]],YM
47,[[9]],[[48]],[[18]],['high holistic'],['right'],['upright'],['U0359.bmp'],['male'],[[4]],['male'],[[1]],[[0.05217353]],YM
48,[[9]],[[49]],[[9]],['high holistic'],['right'],['inverted'],['U0155.bmp'],['female'],[[12]],['female'],[[1]],[[0.17785442]],YM
49,[[9]],[[50]],[[20]],['high holistic'],['left'],['inverted'],['U0362.bmp'],['female'],[[6]],['male'],[[0]],[[0.17218811]],YM
50,[[9]],[[51]],[[10]],['high holistic'],['left'],['upright'],['U0159.bmp'],['male'],[[6]],['male'],[[1]],[[9.86466184e-05]],YM
51,[[9]],[[52]],[[11]],['low holistic'],['right'],['inverted'],['U0164.bmp'],['female'],[[4]],['female'],[[1]],[[0.02885455]],YM
52,[[9]],[[53]],[[11]],['high holistic'],['left'],['inverted'],['U0164.bmp'],['female'],[[2]],['female'],[[1]],[[0.69962844]],YM
53,[[9]],[[54]],[[15]],['low holistic'],['left'],['upright'],['U0312.bmp'],['male'],[[6]],['male'],[[1]],[[2.11913776]],YM
54,[[9]],[[55]],[[10]],['low holistic'],['right'],['upright'],['U0159.bmp'],['female'],[[10]],['female'],[[1]],[[0.08196858]],YM
55,[[9]],[[56]],[[3]],['high holistic'],['left'],['upright'],['U0020.bmp'],['male'],[[2]],['male'],[[1]],[[0.00010982]],YM
56,[[9]],[[57]],[[14]],['low holistic'],['right'],['inverted'],['U0228.bmp'],['male'],[[8]],['male'],[[1]],[[0.00027733]],YM
57,[[9]],[[58]],[[16]],['high holistic'],['left'],['inverted'],['U0335.bmp'],['female'],[[8]],['male'],[[0]],[[0.08026242]],YM
58,[[9]],[[59]],[[5]],['low holistic'],['right'],['inverted'],['U0076.bmp'],['male'],[[2]],['male'],[[1]],[[9.98498872e-05]],YM
59,[[9]],[[60]],[[9]],['high holistic'],['right'],['upright'],['U0155.bmp'],['female'],[[10]],['male'],[[0]],[[0.00025974]],YM
60,[[9]],[[61]],[[12]],['low holistic'],['right'],['inverted'],['U0178.bmp'],['female'],[[6]],['female'],[[1]],[[0.00010061]],YM
61,[[9]],[[62]],[[13]],['high holistic'],['left'],['inverted'],['U0181.bmp'],['female'],[[12]],['male'],[[0]],[[0.1390094]],YM
62,[[9]],[[63]],[[8]],['low holistic'],['right'],['inverted'],['U0137.bmp'],['male'],[[6]],['male'],[[1]],[[0.11100118]],YM
63,[[9]],[[64]],[[8]],['low holistic'],['right'],['upright'],['U0137.bmp'],['male'],[[6]],['male'],[[1]],[[0.00010796]],YM
64,[[9]],[[65]],[[2]],['high holistic'],['right'],['upright'],['U0014.bmp'],['male'],[[10]],['male'],[[1]],[[0.04173963]],YM
65,[[9]],[[66]],[[10]],['low holistic'],['right'],['inverted'],['U0159.bmp'],['female'],[[6]],['male'],[[0]],[[9.97465104e-05]],YM
66,[[9]],[[67]],[[18]],['low holistic'],['left'],['upright'],['U0359.bmp'],['male'],[[4]],['male'],[[1]],[[0.08877111]],YM
67,[[9]],[[68]],[[1]],['high holistic'],['right'],['inverted'],['U0006.bmp'],['female'],[[12]],['male'],[[0]],[[0.00010966]],YM
68,[[9]],[[69]],[[1]],['high holistic'],['left'],['inverted'],['U0006.bmp'],['female'],[[6]],['female'],[[1]],[[0.08577415]],YM
69,[[9]],[[70]],[[6]],['high holistic'],['right'],['upright'],['U0106.bmp'],['female'],[[12]],['female'],[[1]],[[0.20353086]],YM
70,[[9]],[[71]],[[7]],['low holistic'],['right'],['upright'],['U0107.bmp'],['female'],[[4]],['female'],[[1]],[[9.87779349e-05]],YM
71,[[9]],[[72]],[[12]],['low holistic'],['right'],['upright'],['U0178.bmp'],['female'],[[4]],['female'],[[1]],[[0.00010663]],YM
72,[[9]],[[73]],[[17]],['low holistic'],['left'],['inverted'],['U0346.bmp'],['female'],[[2]],['female'],[[1]],[[0.00031216]],YM
73,[[9]],[[74]],[[15]],['high holistic'],['left'],['inverted'],['U0312.bmp'],['male'],[[12]],['female'],[[0]],[[0.01084275]],YM
74,[[9]],[[75]],[[12]],['high holistic'],['right'],['upright'],['U0178.bmp'],['male'],[[6]],['male'],[[1]],[[0.20336794]],YM
75,[[9]],[[76]],[[16]],['high holistic'],['left'],['upright'],['U0335.bmp'],['female'],[[12]],['female'],[[1]],[[0.01140482]],YM
76,[[9]],[[77]],[[10]],['high holistic'],['fovea'],['upright'],['U0159.bmp'],['male'],[[0]],['male'],[[1]],[[0.06589008]],YM
77,[[9]],[[78]],[[4]],['low holistic'],['left'],['upright'],['U0061.bmp'],['female'],[[6]],['female'],[[1]],[[0.0564285]],YM
78,[[9]],[[79]],[[10]],['high holistic'],['left'],['inverted'],['U0159.bmp'],['male'],[[6]],['male'],[[1]],[[0.27760382]],YM
79,[[9]],[[80]],[[5]],['low holistic'],['left'],['inverted'],['U0076.bmp'],['male'],[[2]],['male'],[[1]],[[0.02728555]],YM
80,[[9]],[[81]],[[11]],['low holistic'],['left'],['upright'],['U0164.bmp'],['female'],[[8]],['female'],[[1]],[[0.00010128]],YM
81,[[9]],[[82]],[[11]],['low holistic'],['right'],['upright'],['U0164.bmp'],['female'],[[12]],['female'],[[1]],[[0.00010691]],YM
82,[[9]],[[83]],[[13]],['high holistic'],['left'],['upright'],['U0181.bmp'],['female'],[[8]],['female'],[[1]],[[0.12901061]],YM
83,[[9]],[[84]],[[13]],['high holistic'],['left'],['upright'],['U0181.bmp'],['female'],[[12]],['female'],[[1]],[[0.00011502]],YM
84,[[9]],[[85]],[[17]],['low holistic'],['left'],['inverted'],['U0346.bmp'],['female'],[[12]],['female'],[[1]],[[2.16507915]],YM
85,[[9]],[[86]],[[8]],['low holistic'],['left'],['upright'],['U0137.bmp'],['male'],[[8]],['male'],[[1]],[[0.00010811]],YM
86,[[9]],[[87]],[[19]],['high holistic'],['right'],['inverted'],['U0361.bmp'],['female'],[[2]],['female'],[[1]],[[0.03071553]],YM
87,[[9]],[[88]],[[11]],['low holistic'],['right'],['upright'],['U0164.bmp'],['female'],[[10]],['female'],[[1]],[[0.00010626]],YM
88,[[9]],[[89]],[[3]],['low holistic'],['right'],['inverted'],['U0020.bmp'],['female'],[[8]],['female'],[[1]],[[0.06820613]],YM
89,[[9]],[[90]],[[4]],['low holistic'],['right'],['upright'],['U0061.bmp'],['female'],[[12]],['female'],[[1]],[[0.01880192]],YM
90,[[9]],[[91]],[[3]],['low holistic'],['right'],['inverted'],['U0020.bmp'],['female'],[[12]],['female'],[[1]],[[0.00024832]],YM
91,[[9]],[[92]],[[12]],['low holistic'],['left'],['upright'],['U0178.bmp'],['female'],[[2]],['female'],[[1]],[[0.00010093]],YM
92,[[9]],[[93]],[[15]],['low holistic'],['fovea'],['upright'],['U0312.bmp'],['male'],[[0]],['male'],[[1]],[[9.8535791e-05]],YM
93,[[9]],[[94]],[[9]],['low holistic'],['right'],['inverted'],['U0155.bmp'],['male'],[[12]],['female'],[[0]],[[0.15493043]],YM
94,[[9]],[[95]],[[14]],['high holistic'],['left'],['inverted'],['U0228.bmp'],['male'],[[10]],['female'],[[0]],[[0.00010984]],YM
95,[[9]],[[96]],[[18]],['low holistic'],['left'],['inverted'],['U0359.bmp'],['male'],[[2]],['male'],[[1]],[[0.06733793]],YM
96,[[9]],[[97]],[[2]],['high holistic'],['left'],['inverted'],['U0014.bmp'],['male'],[[8]],['male'],[[1]],[[0.00895192]],YM
97,[[9]],[[98]],[[20]],['low holistic'],['left'],['upright'],['U0362.bmp'],['male'],[[4]],['male'],[[1]],[[0.10404172]],YM
98,[[9]],[[99]],[[20]],['low holistic'],['right'],['upright'],['U0362.bmp'],['male'],[[2]],['male'],[[1]],[[0.00040378]],YM
99,[[9]],[[100]],[[18]],['low holistic'],['fovea'],['inverted'],['U0359.bmp'],['male'],[[0]],['male'],[[1]],[[0.00017294]],YM
100,[[9]],[[101]],[[20]],['low holistic'],['left'],['inverted'],['U0362.bmp'],['male'],[[2]],['male'],[[1]],[[0.00010741]],YM
101,[[9]],[[102]],[[20]],['low holistic'],['left'],['upright'],['U0362.bmp'],['male'],[[8]],['male'],[[1]],[[0.00010623]],YM
102,[[9]],[[103]],[[7]],['high holistic'],['left'],['upright'],['U0107.bmp'],['female'],[[8]],['female'],[[1]],[[0.02145751]],YM
103,[[9]],[[104]],[[4]],['high holistic'],['left'],['upright'],['U0061.bmp'],['female'],[[8]],['female'],[[1]],[[0.00010152]],YM
104,[[9]],[[105]],[[2]],['high holistic'],['right'],['upright'],['U0014.bmp'],['male'],[[8]],['male'],[[1]],[[0.00010057]],YM
105,[[9]],[[106]],[[3]],['low holistic'],['right'],['inverted'],['U0020.bmp'],['female'],[[6]],['female'],[[1]],[[0.09194019]],YM
106,[[9]],[[107]],[[18]],['low holistic'],['left'],['upright'],['U0359.bmp'],['male'],[[6]],['male'],[[1]],[[0.00039737]],YM
107,[[9]],[[108]],[[7]],['low holistic'],['left'],['inverted'],['U0107.bmp'],['female'],[[12]],['male'],[[0]],[[0.00010647]],YM
108,[[9]],[[109]],[[20]],['low holistic'],['right'],['inverted'],['U0362.bmp'],['male'],[[12]],['male'],[[1]],[[0.00096594]],YM
109,[[9]],[[110]],[[1]],['high holistic'],['right'],['upright'],['U0006.bmp'],['female'],[[10]],['female'],[[1]],[[0.03224123]],YM
110,[[9]],[[111]],[[14]],['low holistic'],['fovea'],['inverted'],['U0228.bmp'],['male'],[[0]],['male'],[[1]],[[0.01494673]],YM
111,[[9]],[[112]],[[14]],['high holistic'],['left'],['upright'],['U0228.bmp'],['male'],[[12]],['male'],[[1]],[[0.12729181]],YM
112,[[9]],[[113]],[[2]],['low holistic'],['left'],['upright'],['U0014.bmp'],['male'],[[12]],['male'],[[1]],[[0.00010036]],YM
113,[[9]],[[114]],[[10]],['low holistic'],['right'],['inverted'],['U0159.bmp'],['female'],[[8]],['female'],[[1]],[[0.00093195]],YM
114,[[9]],[[115]],[[12]],['low holistic'],['right'],['upright'],['U0178.bmp'],['female'],[[6]],['female'],[[1]],[[9.85516235e-05]],YM
115,[[9]],[[116]],[[19]],['low holistic'],['right'],['inverted'],['U0361.bmp'],['female'],[[6]],['male'],[[0]],[[0.00019658]],YM
116,[[9]],[[117]],[[5]],['low holistic'],['left'],['inverted'],['U0076.bmp'],['male'],[[6]],['male'],[[1]],[[0.00048275]],YM
117,[[9]],[[118]],[[17]],['high holistic'],['right'],['inverted'],['U0346.bmp'],['male'],[[4]],['female'],[[0]],[[0.0409721]],YM
118,[[9]],[[119]],[[4]],['high holistic'],['left'],['inverted'],['U0061.bmp'],['female'],[[8]],['male'],[[0]],[[0.00019338]],YM
119,[[9]],[[120]],[[4]],['low holistic'],['right'],['inverted'],['U0061.bmp'],['female'],[[12]],['female'],[[1]],[[0.13438746]],YM
120,[[9]],[[121]],[[15]],['low holistic'],['left'],['inverted'],['U0312.bmp'],['male'],[[4]],['male'],[[1]],[[9.91215929e-05]],YM
121,[[9]],[[122]],[[18]],['low holistic'],['right'],['upright'],['U0359.bmp'],['male'],[[4]],['male'],[[1]],[[0.11452634]],YM
122,[[9]],[[123]],[[18]],['low holistic'],['left'],['upright'],['U0359.bmp'],['male'],[[8]],['male'],[[1]],[[0.00010221]],YM
123,[[9]],[[124]],[[7]],['low holistic'],['right'],['inverted'],['U0107.bmp'],['female'],[[2]],['female'],[[1]],[[0.06233919]],YM
124,[[9]],[[125]],[[6]],['low holistic'],['left'],['inverted'],['U0106.bmp'],['male'],[[8]],['male'],[[1]],[[0.0513998]],YM
125,[[9]],[[126]],[[8]],['high holistic'],['right'],['upright'],['U0137.bmp'],['female'],[[8]],['female'],[[1]],[[0.11424023]],YM
126,[[9]],[[127]],[[7]],['high holistic'],['left'],['inverted'],['U0107.bmp'],['female'],[[8]],['female'],[[1]],[[0.07785616]],YM
127,[[9]],[[128]],[[4]],['high holistic'],['right'],['inverted'],['U0061.bmp'],['female'],[[4]],['female'],[[1]],[[0.03463128]],YM
128,[[9]],[[129]],[[9]],['high holistic'],['right'],['inverted'],['U0155.bmp'],['female'],[[8]],['female'],[[1]],[[0.05682086]],YM
129,[[9]],[[130]],[[7]],['low holistic'],['right'],['upright'],['U0107.bmp'],['female'],[[10]],['female'],[[1]],[[0.00013104]],YM
130,[[9]],[[131]],[[4]],['high holistic'],['left'],['upright'],['U0061.bmp'],['female'],[[10]],['female'],[[1]],[[0.46792447]],YM
131,[[9]],[[132]],[[18]],['low holistic'],['right'],['upright'],['U0359.bmp'],['male'],[[6]],['male'],[[1]],[[0.00021687]],YM
132,[[9]],[[133]],[[15]],['low holistic'],['right'],['inverted'],['U0312.bmp'],['male'],[[10]],['female'],[[0]],[[0.00010701]],YM
133,[[9]],[[134]],[[1]],['high holistic'],['right'],['upright'],['U0006.bmp'],['female'],[[6]],['female'],[[1]],[[9.73874703e-05]],YM
134,[[9]],[[135]],[[18]],['low holistic'],['right'],['inverted'],['U0359.bmp'],['male'],[[2]],['male'],[[1]],[[0.00010605]],YM
135,[[9]],[[136]],[[6]],['high holistic'],['right'],['inverted'],['U0106.bmp'],['female'],[[10]],['female'],[[1]],[[0.15338367]],YM
136,[[9]],[[137]],[[7]],['low holistic'],['fovea'],['upright'],['U0107.bmp'],['female'],[[0]],['female'],[[1]],[[0.00010642]],YM
137,[[9]],[[138]],[[20]],['high holistic'],['left'],['upright'],['U0362.bmp'],['female'],[[10]],['female'],[[1]],[[0.33185546]],YM
138,[[9]],[[139]],[[18]],['low holistic'],['fovea'],['inverted'],['U0359.bmp'],['male'],[[0]],['male'],[[1]],[[9.94000584e-05]],YM
139,[[9]],[[140]],[[12]],['low holistic'],['right'],['upright'],['U0178.bmp'],['female'],[[12]],['female'],[[1]],[[0.00010058]],YM
140,[[9]],[[141]],[[8]],['high holistic'],['left'],['inverted'],['U0137.bmp'],['female'],[[12]],['male'],[[0]],[[0.00012509]],YM
141,[[9]],[[142]],[[5]],['low holistic'],['left'],['upright'],['U0076.bmp'],['male'],[[12]],['male'],[[1]],[[0.05415313]],YM
142,[[9]],[[143]],[[19]],['low holistic'],['left'],['inverted'],['U0361.bmp'],['female'],[[4]],['male'],[[0]],[[0.00010756]],YM
143,[[9]],[[144]],[[3]],['low holistic'],['left'],['inverted'],['U0020.bmp'],['female'],[[4]],['female'],[[1]],[[9.83895734e-05]],YM
144,[[9]],[[145]],[[6]],['high holistic'],['right'],['inverted'],['U0106.bmp'],['female'],[[12]],['female'],[[1]],[[0.07718554]],YM
145,[[9]],[[146]],[[3]],['high holistic'],['left'],['upright'],['U0020.bmp'],['male'],[[6]],['female'],[[0]],[[2.06624166]],YM
146,[[9]],[[147]],[[9]],['low holistic'],['left'],['inverted'],['U0155.bmp'],['male'],[[2]],['male'],[[1]],[[0.44005674]],YM
147,[[9]],[[148]],[[19]],['high holistic'],['left'],['inverted'],['U0361.bmp'],['female'],[[8]],['male'],[[0]],[[9.94950533e-05]],YM
148,[[9]],[[149]],[[1]],['high holistic'],['left'],['inverted'],['U0006.bmp'],['female'],[[10]],['female'],[[1]],[[0.00011255]],YM
149,[[9]],[[150]],[[13]],['high holistic'],['left'],['inverted'],['U0181.bmp'],['female'],[[4]],['male'],[[0]],[[9.92324203e-05]],YM
150,[[9]],[[151]],[[18]],['high holistic'],['left'],['upright'],['U0359.bmp'],['male'],[[10]],['male'],[[1]],[[0.02013767]],YM
151,[[9]],[[152]],[[18]],['high holistic'],['left'],['upright'],['U0359.bmp'],['male'],[[12]],['male'],[[1]],[[0.00010113]],YM
152,[[9]],[[153]],[[20]],['high holistic'],['left'],['inverted'],['U0362.bmp'],['female'],[[10]],['female'],[[1]],[[0.05215566]],YM
153,[[9]],[[154]],[[2]],['low holistic'],['right'],['inverted'],['U0014.bmp'],['male'],[[12]],['female'],[[0]],[[0.53082348]],YM
154,[[9]],[[155]],[[19]],['low holistic'],['right'],['upright'],['U0361.bmp'],['female'],[[2]],['female'],[[1]],[[0.00010612]],YM
155,[[9]],[[156]],[[18]],['low holistic'],['right'],['upright'],['U0359.bmp'],['male'],[[8]],['male'],[[1]],[[0.00010076]],YM
156,[[9]],[[157]],[[17]],['low holistic'],['right'],['upright'],['U0346.bmp'],['female'],[[8]],['female'],[[1]],[[9.97530296e-05]],YM
157,[[9]],[[158]],[[9]],['high holistic'],['right'],['inverted'],['U0155.bmp'],['female'],[[2]],['female'],[[1]],[[0.00016554]],YM
158,[[9]],[[159]],[[7]],['high holistic'],['left'],['upright'],['U0107.bmp'],['female'],[[2]],['female'],[[1]],[[9.96459275e-05]],YM
159,[[9]],[[160]],[[15]],['high holistic'],['left'],['inverted'],['U0312.bmp'],['male'],[[4]],['male'],[[1]],[[0.0689526]],YM
160,[[9]],[[161]],[[9]],['high holistic'],['right'],['inverted'],['U0155.bmp'],['female'],[[10]],['female'],[[1]],[[0.11323264]],YM
161,[[9]],[[162]],[[7]],['high holistic'],['right'],['inverted'],['U0107.bmp'],['female'],[[12]],['female'],[[1]],[[0.00010093]],YM
162,[[9]],[[163]],[[16]],['low holistic'],['fovea'],['upright'],['U0335.bmp'],['female'],[[0]],['female'],[[1]],[[0.09512241]],YM
163,[[9]],[[164]],[[14]],['low holistic'],['right'],['upright'],['U0228.bmp'],['male'],[[8]],['male'],[[1]],[[0.00010081]],YM
164,[[9]],[[165]],[[11]],['low holistic'],['fovea'],['upright'],['U0164.bmp'],['female'],[[0]],['female'],[[1]],[[9.75616276e-05]],YM
165,[[9]],[[166]],[[7]],['high holistic'],['left'],['upright'],['U0107.bmp'],['female'],[[12]],['female'],[[1]],[[0.00010083]],YM
166,[[9]],[[167]],[[11]],['low holistic'],['right'],['upright'],['U0164.bmp'],['female'],[[6]],['female'],[[1]],[[0.01898952]],YM
167,[[9]],[[168]],[[11]],['low holistic'],['right'],['inverted'],['U0164.bmp'],['female'],[[4]],['female'],[[1]],[[9.97819006e-05]],YM
168,[[9]],[[169]],[[11]],['high holistic'],['right'],['upright'],['U0164.bmp'],['female'],[[2]],['female'],[[1]],[[9.81120393e-05]],YM
169,[[9]],[[170]],[[10]],['low holistic'],['left'],['upright'],['U0159.bmp'],['female'],[[8]],['female'],[[1]],[[1.38663636]],YM
170,[[9]],[[171]],[[4]],['high holistic'],['left'],['inverted'],['U0061.bmp'],['female'],[[4]],['female'],[[1]],[[0.0001065]],YM
171,[[9]],[[172]],[[2]],['low holistic'],['right'],['inverted'],['U0014.bmp'],['male'],[[4]],['male'],[[1]],[[0.0001001]],YM
172,[[9]],[[173]],[[2]],['low holistic'],['right'],['inverted'],['U0014.bmp'],['male'],[[10]],['male'],[[1]],[[0.09768176]],YM
173,[[9]],[[174]],[[4]],['low holistic'],['right'],['inverted'],['U0061.bmp'],['female'],[[8]],['female'],[[1]],[[0.00010025]],YM
174,[[9]],[[175]],[[14]],['high holistic'],['left'],['upright'],['U0228.bmp'],['male'],[[6]],['female'],[[0]],[[0.0627062]],YM
175,[[9]],[[176]],[[18]],['high holistic'],['right'],['upright'],['U0359.bmp'],['male'],[[2]],['female'],[[0]],[[0.09887519]],YM
176,[[9]],[[177]],[[18]],['low holistic'],['fovea'],['inverted'],['U0359.bmp'],['male'],[[0]],['male'],[[1]],[[0.09619669]],YM
177,[[9]],[[178]],[[9]],['high holistic'],['left'],['inverted'],['U0155.bmp'],['female'],[[6]],['female'],[[1]],[[0.14690139]],YM
178,[[9]],[[179]],[[4]],['high holistic'],['left'],['upright'],['U0061.bmp'],['female'],[[10]],['female'],[[1]],[[0.08571806]],YM
179,[[9]],[[180]],[[17]],['high holistic'],['right'],['upright'],['U0346.bmp'],['male'],[[4]],['male'],[[1]],[[0.00047412]],YM
180,[[9]],[[181]],[[12]],['high holistic'],['fovea'],['inverted'],['U0178.bmp'],['male'],[[0]],['female'],[[0]],[[0.0653117]],YM
181,[[9]],[[182]],[[1]],['high holistic'],['left'],['upright'],['U0006.bmp'],['female'],[[6]],['female'],[[1]],[[0.00015504]],YM
182,[[9]],[[183]],[[5]],['high holistic'],['left'],['upright'],['U0076.bmp'],['female'],[[4]],['female'],[[1]],[[0.00012923]],YM
183,[[9]],[[184]],[[8]],['low holistic'],['left'],['upright'],['U0137.bmp'],['male'],[[10]],['male'],[[1]],[[0.2001863]],YM
184,[[9]],[[185]],[[13]],['low holistic'],['left'],['inverted'],['U0181.bmp'],['male'],[[10]],['male'],[[1]],[[0.31960273]],YM
185,[[9]],[[186]],[[14]],['high holistic'],['right'],['inverted'],['U0228.bmp'],['male'],[[12]],['female'],[[0]],[[0.39562441]],YM
186,[[9]],[[187]],[[18]],['high holistic'],['fovea'],['inverted'],['U0359.bmp'],['male'],[[0]],['female'],[[0]],[[1.94070136]],YM
187,[[9]],[[188]],[[8]],['low holistic'],['left'],['upright'],['U0137.bmp'],['male'],[[2]],['male'],[[1]],[[0.00675274]],YM
188,[[9]],[[189]],[[9]],['high holistic'],['left'],['upright'],['U0155.bmp'],['female'],[[8]],['male'],[[0]],[[1.62291525]],YM
189,[[9]],[[190]],[[2]],['high holistic'],['right'],['inverted'],['U0014.bmp'],['male'],[[12]],['male'],[[1]],[[0.00011245]],YM
190,[[9]],[[191]],[[18]],['high holistic'],['fovea'],['inverted'],['U0359.bmp'],['male'],[[0]],['male'],[[1]],[[0.00010036]],YM
191,[[9]],[[192]],[[14]],['low holistic'],['left'],['inverted'],['U0228.bmp'],['male'],[[8]],['male'],[[1]],[[0.02887716]],YM
192,[[9]],[[193]],[[16]],['low holistic'],['left'],['upright'],['U0335.bmp'],['female'],[[2]],['female'],[[1]],[[0.03599104]],YM
193,[[9]],[[194]],[[6]],['low holistic'],['fovea'],['inverted'],['U0106.bmp'],['male'],[[0]],['male'],[[1]],[[0.00010068]],YM
194,[[9]],[[195]],[[1]],['high holistic'],['left'],['upright'],['U0006.bmp'],['female'],[[10]],['female'],[[1]],[[0.00032282]],YM
195,[[9]],[[196]],[[1]],['high holistic'],['left'],['upright'],['U0006.bmp'],['female'],[[6]],['female'],[[1]],[[0.00010015]],YM
196,[[9]],[[197]],[[1]],['low holistic'],['left'],['upright'],['U0006.bmp'],['female'],[[8]],['female'],[[1]],[[0.00023398]],YM
197,[[9]],[[198]],[[12]],['high holistic'],['right'],['inverted'],['U0178.bmp'],['male'],[[4]],['male'],[[1]],[[0.01780543]],YM
198,[[9]],[[199]],[[17]],['low holistic'],['right'],['upright'],['U0346.bmp'],['female'],[[2]],['female'],[[1]],[[0.0001146]],YM
199,[[9]],[[200]],[[5]],['high holistic'],['left'],['inverted'],['U0076.bmp'],['female'],[[12]],['male'],[[0]],[[0.08916719]],YM
200,[[9]],[[201]],[[6]],['high holistic'],['right'],['upright'],['U0106.bmp'],['female'],[[6]],['female'],[[1]],[[0.14214397]],YM
201,[[9]],[[202]],[[6]],['high holistic'],['left'],['upright'],['U0106.bmp'],['female'],[[8]],['female'],[[1]],[[0.00010121]],YM
202,[[9]],[[203]],[[6]],['low holistic'],['right'],['upright'],['U0106.bmp'],['male'],[[2]],['male'],[[1]],[[0.00012758]],YM
203,[[9]],[[204]],[[14]],['high holistic'],['left'],['upright'],['U0228.bmp'],['male'],[[12]],['female'],[[0]],[[0.00010024]],YM
204,[[9]],[[205]],[[5]],['high holistic'],['left'],['inverted'],['U0076.bmp'],['female'],[[12]],['male'],[[0]],[[0.0727456]],YM
205,[[9]],[[206]],[[12]],['high holistic'],['right'],['inverted'],['U0178.bmp'],['male'],[[2]],['male'],[[1]],[[0.07742134]],YM
206,[[9]],[[207]],[[14]],['low holistic'],['left'],['upright'],['U0228.bmp'],['male'],[[10]],['male'],[[1]],[[9.90508124e-05]],YM
207,[[9]],[[208]],[[6]],['low holistic'],['left'],['inverted'],['U0106.bmp'],['male'],[[12]],['male'],[[1]],[[0.00020759]],YM
208,[[9]],[[209]],[[12]],['high holistic'],['fovea'],['upright'],['U0178.bmp'],['male'],[[0]],['male'],[[1]],[[0.05767156]],YM
209,[[9]],[[210]],[[19]],['high holistic'],['right'],['upright'],['U0361.bmp'],['female'],[[6]],['male'],[[0]],[[0.00010037]],YM
210,[[9]],[[211]],[[11]],['low holistic'],['right'],['inverted'],['U0164.bmp'],['female'],[[8]],['female'],[[1]],[[0.0001078]],YM
211,[[9]],[[212]],[[11]],['high holistic'],['right'],['inverted'],['U0164.bmp'],['female'],[[10]],['female'],[[1]],[[0.08855604]],YM
212,[[9]],[[213]],[[6]],['low holistic'],['left'],['upright'],['U0106.bmp'],['male'],[[10]],['male'],[[1]],[[0.06014402]],YM
213,[[9]],[[214]],[[1]],['low holistic'],['left'],['upright'],['U0006.bmp'],['female'],[[4]],['female'],[[1]],[[0.01800776]],YM
214,[[9]],[[215]],[[15]],['low holistic'],['right'],['upright'],['U0312.bmp'],['male'],[[12]],['male'],[[1]],[[9.98303294e-05]],YM
215,[[9]],[[216]],[[10]],['high holistic'],['right'],['upright'],['U0159.bmp'],['male'],[[6]],['male'],[[1]],[[0.03215123]],YM
216,[[9]],[[217]],[[14]],['low holistic'],['left'],['upright'],['U0228.bmp'],['male'],[[6]],['male'],[[1]],[[0.11998821]],YM
217,[[9]],[[218]],[[12]],['low holistic'],['left'],['inverted'],['U0178.bmp'],['female'],[[6]],['female'],[[1]],[[0.00013419]],YM
218,[[9]],[[219]],[[11]],['low holistic'],['right'],['upright'],['U0164.bmp'],['female'],[[10]],['female'],[[1]],[[0.01242081]],YM
219,[[9]],[[220]],[[16]],['high holistic'],['right'],['upright'],['U0335.bmp'],['female'],[[10]],['female'],[[1]],[[0.01749176]],YM
220,[[9]],[[221]],[[12]],['high holistic'],['fovea'],['upright'],['U0178.bmp'],['male'],[[0]],['male'],[[1]],[[0.09070908]],YM
221,[[9]],[[222]],[[11]],['high holistic'],['left'],['inverted'],['U0164.bmp'],['female'],[[6]],['male'],[[0]],[[0.00010119]],YM
222,[[9]],[[223]],[[14]],['low holistic'],['right'],['upright'],['U0228.bmp'],['male'],[[12]],['male'],[[1]],[[0.00010757]],YM
223,[[9]],[[224]],[[8]],['low holistic'],['fovea'],['inverted'],['U0137.bmp'],['male'],[[0]],['male'],[[1]],[[1.58296685]],YM
224,[[9]],[[225]],[[15]],['low holistic'],['left'],['upright'],['U0312.bmp'],['male'],[[4]],['male'],[[1]],[[0.00010019]],YM
225,[[9]],[[226]],[[17]],['high holistic'],['right'],['upright'],['U0346.bmp'],['male'],[[8]],['male'],[[1]],[[1.76010924]],YM
226,[[9]],[[227]],[[10]],['high holistic'],['left'],['inverted'],['U0159.bmp'],['male'],[[10]],['male'],[[1]],[[0.00010582]],YM
227,[[9]],[[228]],[[1]],['low holistic'],['left'],['inverted'],['U0006.bmp'],['female'],[[2]],['male'],[[0]],[[0.0001008]],YM
228,[[9]],[[229]],[[4]],['low holistic'],['left'],['upright'],['U0061.bmp'],['female'],[[2]],['female'],[[1]],[[9.85031947e-05]],YM
229,[[9]],[[230]],[[19]],['high holistic'],['left'],['upright'],['U0361.bmp'],['female'],[[10]],['female'],[[1]],[[0.00909435]],YM
230,[[9]],[[231]],[[3]],['low holistic'],['right'],['upright'],['U0020.bmp'],['female'],[[2]],['female'],[[1]],[[9.97371972e-05]],YM
231,[[9]],[[232]],[[7]],['low holistic'],['right'],['upright'],['U0107.bmp'],['female'],[[10]],['female'],[[1]],[[0.00010029]],YM
232,[[9]],[[233]],[[10]],['low holistic'],['left'],['upright'],['U0159.bmp'],['female'],[[4]],['female'],[[1]],[[9.91178676e-05]],YM
233,[[9]],[[234]],[[10]],['high holistic'],['left'],['upright'],['U0159.bmp'],['male'],[[12]],['female'],[[0]],[[0.00010002]],YM
234,[[9]],[[235]],[[4]],['low holistic'],['left'],['inverted'],['U0061.bmp'],['female'],[[2]],['female'],[[1]],[[0.08903497]],YM
235,[[9]],[[236]],[[20]],['low holistic'],['left'],['inverted'],['U0362.bmp'],['male'],[[12]],['male'],[[1]],[[0.0044185]],YM
236,[[9]],[[237]],[[17]],['high holistic'],['right'],['upright'],['U0346.bmp'],['male'],[[6]],['male'],[[1]],[[0.00010791]],YM
237,[[9]],[[238]],[[19]],['low holistic'],['right'],['inverted'],['U0361.bmp'],['female'],[[8]],['female'],[[1]],[[0.05127049]],YM
238,[[9]],[[239]],[[2]],['high holistic'],['left'],['inverted'],['U0014.bmp'],['male'],[[4]],['female'],[[0]],[[0.00010018]],YM
239,[[9]],[[240]],[[8]],['low holistic'],['right'],['upright'],['U0137.bmp'],['male'],[[2]],['male'],[[1]],[[9.96831805e-05]],YM
240,[[9]],[[241]],[[18]],['low holistic'],['left'],['inverted'],['U0359.bmp'],['male'],[[6]],['male'],[[1]],[[0.00015878]],YM
241,[[9]],[[242]],[[15]],['low holistic'],['fovea'],['upright'],['U0312.bmp'],['male'],[[0]],['male'],[[1]],[[9.96561721e-05]],YM
242,[[9]],[[243]],[[6]],['high holistic'],['right'],['upright'],['U0106.bmp'],['female'],[[10]],['female'],[[1]],[[0.28215128]],YM
243,[[9]],[[244]],[[12]],['low holistic'],['left'],['inverted'],['U0178.bmp'],['female'],[[8]],['female'],[[1]],[[0.10224707]],YM
244,[[9]],[[245]],[[19]],['high holistic'],['right'],['inverted'],['U0361.bmp'],['female'],[[4]],['male'],[[0]],[[0.00010949]],YM
245,[[9]],[[246]],[[17]],['low holistic'],['left'],['inverted'],['U0346.bmp'],['female'],[[12]],['male'],[[0]],[[0.00010613]],YM
246,[[9]],[[247]],[[18]],['high holistic'],['right'],['inverted'],['U0359.bmp'],['male'],[[12]],['female'],[[0]],[[0.03543883]],YM
247,[[9]],[[248]],[[10]],['low holistic'],['right'],['upright'],['U0159.bmp'],['female'],[[10]],['female'],[[1]],[[0.00010635]],YM
248,[[9]],[[249]],[[20]],['low holistic'],['right'],['upright'],['U0362.bmp'],['male'],[[8]],['male'],[[1]],[[9.97083262e-05]],YM
249,[[9]],[[250]],[[13]],['low holistic'],['left'],['inverted'],['U0181.bmp'],['male'],[[4]],['male'],[[1]],[[0.01817786]],YM
250,[[9]],[[251]],[[5]],['high holistic'],['right'],['upright'],['U0076.bmp'],['female'],[[8]],['female'],[[1]],[[0.05780978]],YM
251,[[9]],[[252]],[[1]],['high holistic'],['left'],['inverted'],['U0006.bmp'],['female'],[[2]],['male'],[[0]],[[0.02249779]],YM
252,[[9]],[[253]],[[10]],['low holistic'],['right'],['inverted'],['U0159.bmp'],['female'],[[10]],['female'],[[1]],[[0.00010713]],YM
253,[[9]],[[254]],[[8]],['high holistic'],['right'],['inverted'],['U0137.bmp'],['female'],[[8]],['male'],[[0]],[[0.00010111]],YM
254,[[9]],[[255]],[[14]],['high holistic'],['right'],['inverted'],['U0228.bmp'],['male'],[[6]],['female'],[[0]],[[0.00049007]],YM
255,[[9]],[[256]],[[11]],['high holistic'],['right'],['inverted'],['U0164.bmp'],['female'],[[4]],['male'],[[0]],[[0.08523765]],YM
256,[[9]],[[257]],[[6]],['high holistic'],['left'],['inverted'],['U0106.bmp'],['female'],[[4]],['male'],[[0]],[[9.96431336e-05]],YM
257,[[9]],[[258]],[[13]],['low holistic'],['left'],['upright'],['U0181.bmp'],['male'],[[8]],['female'],[[0]],[[0.00011443]],YM
258,[[9]],[[259]],[[14]],['high holistic'],['left'],['inverted'],['U0228.bmp'],['male'],[[8]],['male'],[[1]],[[0.05913454]],YM
259,[[9]],[[260]],[[3]],['low holistic'],['left'],['inverted'],['U0020.bmp'],['female'],[[8]],['female'],[[1]],[[0.00033016]],YM
260,[[9]],[[261]],[[18]],['low holistic'],['fovea'],['upright'],['U0359.bmp'],['male'],[[0]],['male'],[[1]],[[0.23987056]],YM
261,[[9]],[[262]],[[19]],['high holistic'],['fovea'],['upright'],['U0361.bmp'],['female'],[[0]],['female'],[[1]],[[9.80803743e-05]],YM
262,[[9]],[[263]],[[5]],['high holistic'],['right'],['inverted'],['U0076.bmp'],['female'],[[2]],['male'],[[0]],[[0.00033093]],YM
263,[[9]],[[264]],[[9]],['high holistic'],['right'],['upright'],['U0155.bmp'],['female'],[[4]],['male'],[[0]],[[0.04528644]],YM
264,[[9]],[[265]],[[6]],['low holistic'],['right'],['inverted'],['U0106.bmp'],['male'],[[4]],['male'],[[1]],[[0.00035973]],YM
265,[[9]],[[266]],[[1]],['high holistic'],['fovea'],['inverted'],['U0006.bmp'],['female'],[[0]],['male'],[[0]],[[0.00010684]],YM
266,[[9]],[[267]],[[12]],['high holistic'],['left'],['inverted'],['U0178.bmp'],['male'],[[10]],['male'],[[1]],[[9.93674621e-05]],YM
267,[[9]],[[268]],[[2]],['low holistic'],['left'],['upright'],['U0014.bmp'],['male'],[[10]],['male'],[[1]],[[0.02555733]],YM
268,[[9]],[[269]],[[11]],['low holistic'],['left'],['upright'],['U0164.bmp'],['female'],[[8]],['female'],[[1]],[[0.00044613]],YM
269,[[9]],[[270]],[[20]],['low holistic'],['left'],['upright'],['U0362.bmp'],['male'],[[6]],['male'],[[1]],[[0.00021634]],YM
270,[[9]],[[271]],[[7]],['low holistic'],['left'],['upright'],['U0107.bmp'],['female'],[[4]],['female'],[[1]],[[9.98191535e-05]],YM
271,[[9]],[[272]],[[18]],['low holistic'],['left'],['inverted'],['U0359.bmp'],['male'],[[4]],['male'],[[1]],[[0.00031618]],YM
272,[[9]],[[273]],[[11]],['low holistic'],['right'],['upright'],['U0164.bmp'],['female'],[[8]],['female'],[[1]],[[0.00060075]],YM
273,[[9]],[[274]],[[8]],['high holistic'],['left'],['upright'],['U0137.bmp'],['female'],[[4]],['male'],[[0]],[[0.02537506]],YM
274,[[9]],[[275]],[[11]],['low holistic'],['left'],['upright'],['U0164.bmp'],['female'],[[12]],['female'],[[1]],[[0.00010828]],YM
275,[[9]],[[276]],[[5]],['low holistic'],['left'],['upright'],['U0076.bmp'],['male'],[[6]],['male'],[[1]],[[0.00044197]],YM
276,[[9]],[[277]],[[17]],['high holistic'],['left'],['inverted'],['U0346.bmp'],['male'],[[2]],['female'],[[0]],[[0.00036724]],YM
277,[[9]],[[278]],[[5]],['low holistic'],['right'],['inverted'],['U0076.bmp'],['male'],[[2]],['female'],[[0]],[[9.85404477e-05]],YM
278,[[9]],[[279]],[[6]],['low holistic'],['right'],['inverted'],['U0106.bmp'],['male'],[[4]],['male'],[[1]],[[0.03293451]],YM
279,[[9]],[[280]],[[14]],['low holistic'],['left'],['upright'],['U0228.bmp'],['male'],[[6]],['male'],[[1]],[[9.926036e-05]],YM
280,[[9]],[[281]],[[16]],['high holistic'],['left'],['upright'],['U0335.bmp'],['female'],[[8]],['female'],[[1]],[[0.09502472]],YM
281,[[9]],[[282]],[[14]],['low holistic'],['right'],['upright'],['U0228.bmp'],['male'],[[10]],['male'],[[1]],[[0.0001074]],YM
282,[[9]],[[283]],[[12]],['low holistic'],['left'],['inverted'],['U0178.bmp'],['female'],[[2]],['female'],[[1]],[[0.07574352]],YM
283,[[9]],[[284]],[[10]],['low holistic'],['left'],['upright'],['U0159.bmp'],['female'],[[4]],['female'],[[1]],[[0.00038655]],YM
284,[[9]],[[285]],[[1]],['high holistic'],['right'],['inverted'],['U0006.bmp'],['female'],[[6]],['female'],[[1]],[[0.04759205]],YM
285,[[9]],[[286]],[[17]],['high holistic'],['left'],['inverted'],['U0346.bmp'],['male'],[[4]],['female'],[[0]],[[1.4717392]],YM
286,[[9]],[[287]],[[9]],['low holistic'],['right'],['upright'],['U0155.bmp'],['male'],[[6]],['male'],[[1]],[[0.08278259]],YM
287,[[9]],[[288]],[[11]],['low holistic'],['right'],['inverted'],['U0164.bmp'],['female'],[[4]],['female'],[[1]],[[9.91569832e-05]],YM
288,[[9]],[[289]],[[2]],['low holistic'],['right'],['upright'],['U0014.bmp'],['male'],[[10]],['male'],[[1]],[[0.00021353]],YM
289,[[9]],[[290]],[[7]],['low holistic'],['right'],['inverted'],['U0107.bmp'],['female'],[[4]],['female'],[[1]],[[1.47922001]],YM
290,[[9]],[[291]],[[10]],['low holistic'],['left'],['upright'],['U0159.bmp'],['female'],[[10]],['female'],[[1]],[[0.00010701]],YM
291,[[9]],[[292]],[[9]],['low holistic'],['right'],['upright'],['U0155.bmp'],['male'],[[2]],['male'],[[1]],[[0.00010026]],YM
292,[[9]],[[293]],[[10]],['low holistic'],['left'],['upright'],['U0159.bmp'],['female'],[[2]],['female'],[[1]],[[2.1483754]],YM
293,[[9]],[[294]],[[8]],['low holistic'],['left'],['inverted'],['U0137.bmp'],['male'],[[2]],['male'],[[1]],[[0.00010692]],YM
294,[[9]],[[295]],[[7]],['low holistic'],['left'],['inverted'],['U0107.bmp'],['female'],[[12]],['female'],[[1]],[[0.00033849]],YM
295,[[9]],[[296]],[[6]],['low holistic'],['right'],['upright'],['U0106.bmp'],['male'],[[8]],['male'],[[1]],[[0.00012426]],YM
296,[[9]],[[297]],[[6]],['high holistic'],['right'],['upright'],['U0106.bmp'],['female'],[[4]],['female'],[[1]],[[0.10348238]],YM
297,[[9]],[[298]],[[19]],['low holistic'],['right'],['inverted'],['U0361.bmp'],['female'],[[2]],['female'],[[1]],[[9.91849229e-05]],YM
298,[[9]],[[299]],[[7]],['high holistic'],['right'],['upright'],['U0107.bmp'],['female'],[[8]],['male'],[[0]],[[0.00016967]],YM
299,[[9]],[[300]],[[9]],['high holistic'],['right'],['upright'],['U0155.bmp'],['female'],[[2]],['male'],[[0]],[[0.0420149]],YM
300,[[9]],[[301]],[[15]],['high holistic'],['left'],['inverted'],['U0312.bmp'],['male'],[[10]],['female'],[[0]],[[0.00019335]],YM
301,[[9]],[[302]],[[12]],['high holistic'],['right'],['inverted'],['U0178.bmp'],['male'],[[6]],['female'],[[0]],[[0.24060818]],YM
302,[[9]],[[303]],[[18]],['low holistic'],['right'],['upright'],['U0359.bmp'],['male'],[[2]],['female'],[[0]],[[0.13489674]],YM
303,[[9]],[[304]],[[12]],['low holistic'],['left'],['upright'],['U0178.bmp'],['female'],[[8]],['female'],[[1]],[[0.06590752]],YM
304,[[9]],[[305]],[[4]],['high holistic'],['left'],['inverted'],['U0061.bmp'],['female'],[[6]],['female'],[[1]],[[0.14146943]],YM
305,[[9]],[[306]],[[1]],['low holistic'],['left'],['inverted'],['U0006.bmp'],['female'],[[4]],['female'],[[1]],[[0.0004685]],YM
306,[[9]],[[307]],[[18]],['low holistic'],['right'],['upright'],['U0359.bmp'],['male'],[[2]],['male'],[[1]],[[0.18483765]],YM
307,[[9]],[[308]],[[4]],['low holistic'],['left'],['inverted'],['U0061.bmp'],['female'],[[6]],['female'],[[1]],[[0.06661854]],YM
308,[[9]],[[309]],[[7]],['low holistic'],['left'],['upright'],['U0107.bmp'],['female'],[[2]],['female'],[[1]],[[9.95695591e-05]],YM
309,[[9]],[[310]],[[3]],['low holistic'],['left'],['upright'],['U0020.bmp'],['female'],[[10]],['female'],[[1]],[[0.00019577]],YM
310,[[9]],[[311]],[[19]],['low holistic'],['left'],['inverted'],['U0361.bmp'],['female'],[[8]],['female'],[[1]],[[9.91253182e-05]],YM
311,[[9]],[[312]],[[14]],['low holistic'],['left'],['inverted'],['U0228.bmp'],['male'],[[10]],['male'],[[1]],[[0.25645648]],YM
312,[[9]],[[313]],[[5]],['low holistic'],['fovea'],['upright'],['U0076.bmp'],['male'],[[0]],['male'],[[1]],[[9.8189339e-05]],YM
313,[[9]],[[314]],[[4]],['high holistic'],['fovea'],['inverted'],['U0061.bmp'],['female'],[[0]],['male'],[[0]],[[0.00010035]],YM
314,[[9]],[[315]],[[4]],['low holistic'],['right'],['inverted'],['U0061.bmp'],['female'],[[4]],['female'],[[1]],[[9.88626853e-05]],YM
315,[[9]],[[316]],[[9]],['high holistic'],['right'],['inverted'],['U0155.bmp'],['female'],[[10]],['female'],[[1]],[[0.02804243]],YM
316,[[9]],[[317]],[[16]],['high holistic'],['right'],['upright'],['U0335.bmp'],['female'],[[2]],['female'],[[1]],[[0.09836725]],YM
317,[[9]],[[318]],[[19]],['high holistic'],['left'],['upright'],['U0361.bmp'],['female'],[[10]],['female'],[[1]],[[0.18410447]],YM
318,[[9]],[[319]],[[11]],['low holistic'],['right'],['inverted'],['U0164.bmp'],['female'],[[10]],['female'],[[1]],[[9.70233232e-05]],YM
319,[[9]],[[320]],[[19]],['low holistic'],['left'],['upright'],['U0361.bmp'],['female'],[[10]],['female'],[[1]],[[0.00155278]],YM
320,[[9]],[[321]],[[8]],['low holistic'],['right'],['upright'],['U0137.bmp'],['male'],[[2]],['male'],[[1]],[[9.98973846e-05]],YM
321,[[9]],[[322]],[[2]],['low holistic'],['left'],['inverted'],['U0014.bmp'],['male'],[[4]],['male'],[[1]],[[0.31182158]],YM
322,[[9]],[[323]],[[19]],['high holistic'],['right'],['upright'],['U0361.bmp'],['female'],[[8]],['female'],[[1]],[[0.01897284]],YM
323,[[9]],[[324]],[[11]],['high holistic'],['right'],['upright'],['U0164.bmp'],['female'],[[6]],['female'],[[1]],[[0.01240974]],YM
324,[[9]],[[325]],[[1]],['high holistic'],['left'],['upright'],['U0006.bmp'],['female'],[[2]],['female'],[[1]],[[0.06616983]],YM
325,[[9]],[[326]],[[18]],['high holistic'],['right'],['upright'],['U0359.bmp'],['male'],[[8]],['female'],[[0]],[[0.00010748]],YM
326,[[9]],[[327]],[[9]],['low holistic'],['left'],['inverted'],['U0155.bmp'],['male'],[[2]],['female'],[[0]],[[0.09699712]],YM
327,[[9]],[[328]],[[14]],['high holistic'],['left'],['upright'],['U0228.bmp'],['male'],[[6]],['female'],[[0]],[[9.90126282e-05]],YM
328,[[9]],[[329]],[[11]],['high holistic'],['right'],['upright'],['U0164.bmp'],['female'],[[2]],['male'],[[0]],[[0.0001012]],YM
329,[[9]],[[330]],[[19]],['low holistic'],['left'],['upright'],['U0361.bmp'],['female'],[[6]],['female'],[[1]],[[0.00010017]],YM
330,[[9]],[[331]],[[7]],['high holistic'],['left'],['inverted'],['U0107.bmp'],['female'],[[4]],['male'],[[0]],[[0.05166254]],YM
331,[[9]],[[332]],[[19]],['low holistic'],['right'],['inverted'],['U0361.bmp'],['female'],[[2]],['female'],[[1]],[[0.01172384]],YM
332,[[9]],[[333]],[[6]],['high holistic'],['left'],['inverted'],['U0106.bmp'],['female'],[[10]],['male'],[[0]],[[0.00024758]],YM
333,[[9]],[[334]],[[6]],['low holistic'],['fovea'],['inverted'],['U0106.bmp'],['male'],[[0]],['male'],[[1]],[[0.15287989]],YM
334,[[9]],[[335]],[[1]],['high holistic'],['left'],['inverted'],['U0006.bmp'],['female'],[[8]],['female'],[[1]],[[0.00016323]],YM
335,[[9]],[[336]],[[3]],['low holistic'],['left'],['inverted'],['U0020.bmp'],['female'],[[8]],['female'],[[1]],[[0.00032264]],YM
336,[[9]],[[337]],[[15]],['high holistic'],['left'],['upright'],['U0312.bmp'],['male'],[[8]],['male'],[[1]],[[0.20523115]],YM
337,[[9]],[[338]],[[11]],['low holistic'],['right'],['upright'],['U0164.bmp'],['female'],[[4]],['female'],[[1]],[[0.00010854]],YM
338,[[9]],[[339]],[[16]],['high holistic'],['left'],['inverted'],['U0335.bmp'],['female'],[[4]],['male'],[[0]],[[0.23684574]],YM
339,[[9]],[[340]],[[5]],['high holistic'],['right'],['upright'],['U0076.bmp'],['female'],[[10]],['female'],[[1]],[[0.05023001]],YM
340,[[9]],[[341]],[[3]],['low holistic'],['right'],['upright'],['U0020.bmp'],['female'],[[10]],['female'],[[1]],[[0.00019144]],YM
341,[[9]],[[342]],[[10]],['low holistic'],['right'],['upright'],['U0159.bmp'],['female'],[[4]],['female'],[[1]],[[0.01611871]],YM
342,[[9]],[[343]],[[8]],['low holistic'],['right'],['inverted'],['U0137.bmp'],['male'],[[6]],['male'],[[1]],[[0.09641088]],YM
343,[[9]],[[344]],[[5]],['high holistic'],['right'],['upright'],['U0076.bmp'],['female'],[[4]],['female'],[[1]],[[0.00010632]],YM
344,[[9]],[[345]],[[20]],['high holistic'],['fovea'],['upright'],['U0362.bmp'],['female'],[[0]],['female'],[[1]],[[0.10754637]],YM
345,[[9]],[[346]],[[4]],['high holistic'],['right'],['upright'],['U0061.bmp'],['female'],[[4]],['female'],[[1]],[[0.00012904]],YM
346,[[9]],[[347]],[[9]],['low holistic'],['right'],['upright'],['U0155.bmp'],['male'],[[4]],['female'],[[0]],[[0.00010065]],YM
347,[[9]],[[348]],[[12]],['high holistic'],['left'],['inverted'],['U0178.bmp'],['male'],[[10]],['female'],[[0]],[[0.00011263]],YM
348,[[9]],[[349]],[[19]],['low holistic'],['right'],['upright'],['U0361.bmp'],['female'],[[12]],['female'],[[1]],[[0.10865862]],YM
349,[[9]],[[350]],[[10]],['low holistic'],['left'],['inverted'],['U0159.bmp'],['female'],[[2]],['male'],[[0]],[[0.00010321]],YM
350,[[9]],[[351]],[[20]],['high holistic'],['right'],['upright'],['U0362.bmp'],['female'],[[10]],['female'],[[1]],[[0.00010101]],YM
351,[[9]],[[352]],[[4]],['low holistic'],['left'],['upright'],['U0061.bmp'],['female'],[[4]],['female'],[[1]],[[9.93860886e-05]],YM
352,[[9]],[[353]],[[3]],['low holistic'],['left'],['upright'],['U0020.bmp'],['female'],[[4]],['female'],[[1]],[[0.00011421]],YM
353,[[9]],[[354]],[[8]],['high holistic'],['fovea'],['upright'],['U0137.bmp'],['female'],[[0]],['male'],[[0]],[[0.03330438]],YM
354,[[9]],[[355]],[[9]],['low holistic'],['right'],['inverted'],['U0155.bmp'],['male'],[[2]],['male'],[[1]],[[0.01557083]],YM
355,[[9]],[[356]],[[15]],['low holistic'],['right'],['upright'],['U0312.bmp'],['male'],[[6]],['male'],[[1]],[[0.00010036]],YM
356,[[9]],[[357]],[[15]],['low holistic'],['right'],['inverted'],['U0312.bmp'],['male'],[[6]],['male'],[[1]],[[0.00010184]],YM
357,[[9]],[[358]],[[17]],['low holistic'],['right'],['inverted'],['U0346.bmp'],['female'],[[12]],['female'],[[1]],[[0.03917949]],YM
358,[[9]],[[359]],[[1]],['low holistic'],['fovea'],['inverted'],['U0006.bmp'],['female'],[[0]],['female'],[[1]],[[0.00038337]],YM
359,[[9]],[[360]],[[19]],['high holistic'],['right'],['upright'],['U0361.bmp'],['female'],[[10]],['female'],[[1]],[[0.00010049]],YM
360,[[9]],[[361]],[[18]],['high holistic'],['left'],['inverted'],['U0359.bmp'],['male'],[[12]],['male'],[[1]],[[0.50082279]],YM
361,[[9]],[[362]],[[5]],['high holistic'],['right'],['inverted'],['U0076.bmp'],['female'],[[12]],['female'],[[1]],[[0.0484634]],YM
362,[[9]],[[363]],[[20]],['high holistic'],['left'],['inverted'],['U0362.bmp'],['female'],[[8]],['male'],[[0]],[[0.00010042]],YM
363,[[9]],[[364]],[[19]],['low holistic'],['left'],['upright'],['U0361.bmp'],['female'],[[2]],['female'],[[1]],[[0.00010025]],YM
364,[[9]],[[365]],[[3]],['high holistic'],['left'],['upright'],['U0020.bmp'],['male'],[[12]],['male'],[[1]],[[0.00010923]],YM
365,[[9]],[[366]],[[9]],['low holistic'],['left'],['upright'],['U0155.bmp'],['male'],[[4]],['male'],[[1]],[[0.00010172]],YM
366,[[9]],[[367]],[[15]],['low holistic'],['left'],['inverted'],['U0312.bmp'],['male'],[[10]],['male'],[[1]],[[0.02253081]],YM
367,[[9]],[[368]],[[19]],['low holistic'],['right'],['inverted'],['U0361.bmp'],['female'],[[12]],['male'],[[0]],[[0.01300819]],YM
368,[[9]],[[369]],[[7]],['low holistic'],['left'],['upright'],['U0107.bmp'],['female'],[[8]],['female'],[[1]],[[0.0001982]],YM
369,[[9]],[[370]],[[3]],['low holistic'],['right'],['upright'],['U0020.bmp'],['female'],[[8]],['female'],[[1]],[[0.00010105]],YM
370,[[9]],[[371]],[[17]],['high holistic'],['right'],['upright'],['U0346.bmp'],['male'],[[8]],['male'],[[1]],[[0.00010115]],YM
371,[[9]],[[372]],[[5]],['high holistic'],['right'],['upright'],['U0076.bmp'],['female'],[[4]],['female'],[[1]],[[0.03796425]],YM
372,[[9]],[[373]],[[9]],['low holistic'],['right'],['upright'],['U0155.bmp'],['male'],[[6]],['male'],[[1]],[[0.14923253]],YM
373,[[9]],[[374]],[[14]],['low holistic'],['right'],['inverted'],['U0228.bmp'],['male'],[[12]],['male'],[[1]],[[0.00032648]],YM
374,[[9]],[[375]],[[3]],['high holistic'],['left'],['upright'],['U0020.bmp'],['male'],[[2]],['male'],[[1]],[[0.00010899]],YM
375,[[9]],[[376]],[[12]],['high holistic'],['left'],['upright'],['U0178.bmp'],['male'],[[10]],['male'],[[1]],[[0.12462066]],YM
376,[[9]],[[377]],[[3]],['low holistic'],['right'],['inverted'],['U0020.bmp'],['female'],[[12]],['male'],[[0]],[[0.00010138]],YM
377,[[9]],[[378]],[[19]],['high holistic'],['right'],['upright'],['U0361.bmp'],['female'],[[12]],['female'],[[1]],[[0.0001142]],YM
378,[[9]],[[379]],[[14]],['low holistic'],['right'],['inverted'],['U0228.bmp'],['male'],[[8]],['male'],[[1]],[[0.32839788]],YM
379,[[9]],[[380]],[[4]],['low holistic'],['right'],['upright'],['U0061.bmp'],['female'],[[2]],['female'],[[1]],[[0.00021809]],YM
380,[[9]],[[381]],[[3]],['low holistic'],['right'],['upright'],['U0020.bmp'],['female'],[[2]],['female'],[[1]],[[0.00010765]],YM
381,[[9]],[[382]],[[13]],['high holistic'],['left'],['upright'],['U0181.bmp'],['female'],[[12]],['male'],[[0]],[[0.14063723]],YM
382,[[9]],[[383]],[[13]],['low holistic'],['fovea'],['upright'],['U0181.bmp'],['male'],[[0]],['male'],[[1]],[[0.37494707]],YM
383,[[9]],[[384]],[[20]],['low holistic'],['right'],['upright'],['U0362.bmp'],['male'],[[2]],['male'],[[1]],[[0.03179399]],YM
384,[[9]],[[385]],[[8]],['high holistic'],['right'],['inverted'],['U0137.bmp'],['female'],[[2]],['male'],[[0]],[[0.00010677]],YM
385,[[9]],[[386]],[[3]],['high holistic'],['right'],['upright'],['U0020.bmp'],['male'],[[8]],['female'],[[0]],[[0.00010136]],YM
386,[[9]],[[387]],[[2]],['low holistic'],['right'],['inverted'],['U0014.bmp'],['male'],[[4]],['male'],[[1]],[[0.00010891]],YM
387,[[9]],[[388]],[[17]],['high holistic'],['right'],['inverted'],['U0346.bmp'],['male'],[[6]],['female'],[[0]],[[0.14849067]],YM
388,[[9]],[[389]],[[1]],['low holistic'],['right'],['inverted'],['U0006.bmp'],['female'],[[8]],['female'],[[1]],[[1.66199393]],YM
389,[[9]],[[390]],[[19]],['high holistic'],['right'],['inverted'],['U0361.bmp'],['female'],[[8]],['male'],[[0]],[[0.00010025]],YM
390,[[9]],[[391]],[[13]],['high holistic'],['right'],['inverted'],['U0181.bmp'],['female'],[[10]],['female'],[[1]],[[0.63409924]],YM
391,[[9]],[[392]],[[3]],['low holistic'],['right'],['inverted'],['U0020.bmp'],['female'],[[12]],['female'],[[1]],[[0.00032232]],YM
392,[[9]],[[393]],[[15]],['low holistic'],['left'],['upright'],['U0312.bmp'],['male'],[[6]],['male'],[[1]],[[1.90387574]],YM
393,[[9]],[[394]],[[8]],['low holistic'],['left'],['inverted'],['U0137.bmp'],['male'],[[4]],['male'],[[1]],[[0.00010738]],YM
394,[[9]],[[395]],[[7]],['low holistic'],['left'],['inverted'],['U0107.bmp'],['female'],[[10]],['female'],[[1]],[[0.00011312]],YM
395,[[9]],[[396]],[[6]],['high holistic'],['right'],['upright'],['U0106.bmp'],['female'],[[4]],['female'],[[1]],[[0.00042003]],YM
396,[[9]],[[397]],[[14]],['low holistic'],['left'],['inverted'],['U0228.bmp'],['male'],[[6]],['male'],[[1]],[[9.97949392e-05]],YM
397,[[9]],[[398]],[[18]],['high holistic'],['fovea'],['inverted'],['U0359.bmp'],['male'],[[0]],['male'],[[1]],[[0.00019517]],YM
398,[[9]],[[399]],[[19]],['low holistic'],['left'],['inverted'],['U0361.bmp'],['female'],[[8]],['female'],[[1]],[[0.00010081]],YM
399,[[9]],[[400]],[[15]],['low holistic'],['right'],['inverted'],['U0312.bmp'],['male'],[[8]],['male'],[[1]],[[9.90163535e-05]],YM
400,[[9]],[[401]],[[15]],['high holistic'],['right'],['upright'],['U0312.bmp'],['male'],[[4]],['female'],[[0]],[[2.88204536]],YM
401,[[9]],[[402]],[[14]],['high holistic'],['right'],['inverted'],['U0228.bmp'],['male'],[[2]],['female'],[[0]],[[0.00010066]],YM
402,[[9]],[[403]],[[20]],['high holistic'],['left'],['upright'],['U0362.bmp'],['female'],[[2]],['female'],[[1]],[[0.18892585]],YM
403,[[9]],[[404]],[[1]],['low holistic'],['right'],['inverted'],['U0006.bmp'],['female'],[[2]],['female'],[[1]],[[0.00030762]],YM
404,[[9]],[[405]],[[15]],['high holistic'],['left'],['upright'],['U0312.bmp'],['male'],[[12]],['male'],[[1]],[[0.00019208]],YM
405,[[9]],[[406]],[[3]],['low holistic'],['right'],['upright'],['U0020.bmp'],['female'],[[4]],['female'],[[1]],[[0.000157]],YM
406,[[9]],[[407]],[[9]],['high holistic'],['right'],['upright'],['U0155.bmp'],['female'],[[10]],['male'],[[0]],[[0.04373956]],YM
407,[[9]],[[408]],[[17]],['high holistic'],['right'],['upright'],['U0346.bmp'],['male'],[[6]],['male'],[[1]],[[0.00011087]],YM
408,[[9]],[[409]],[[3]],['low holistic'],['right'],['upright'],['U0020.bmp'],['female'],[[6]],['female'],[[1]],[[0.00010053]],YM
409,[[9]],[[410]],[[12]],['low holistic'],['right'],['inverted'],['U0178.bmp'],['female'],[[6]],['female'],[[1]],[[0.05050006]],YM
410,[[9]],[[411]],[[9]],['low holistic'],['left'],['upright'],['U0155.bmp'],['male'],[[2]],['male'],[[1]],[[0.84963016]],YM
411,[[9]],[[412]],[[11]],['high holistic'],['right'],['inverted'],['U0164.bmp'],['female'],[[2]],['female'],[[1]],[[0.01332646]],YM
412,[[9]],[[413]],[[9]],['low holistic'],['right'],['inverted'],['U0155.bmp'],['male'],[[10]],['male'],[[1]],[[0.81472276]],YM
413,[[9]],[[414]],[[11]],['low holistic'],['left'],['inverted'],['U0164.bmp'],['female'],[[8]],['male'],[[0]],[[2.2043988]],YM
414,[[9]],[[415]],[[10]],['high holistic'],['right'],['inverted'],['U0159.bmp'],['male'],[[2]],['female'],[[0]],[[1.46045305]],YM
415,[[9]],[[416]],[[15]],['high holistic'],['left'],['upright'],['U0312.bmp'],['male'],[[12]],['female'],[[0]],[[0.00014517]],YM
416,[[9]],[[417]],[[14]],['low holistic'],['left'],['upright'],['U0228.bmp'],['male'],[[10]],['male'],[[1]],[[0.00086334]],YM
417,[[9]],[[418]],[[18]],['high holistic'],['right'],['upright'],['U0359.bmp'],['male'],[[12]],['male'],[[1]],[[0.00010276]],YM
418,[[9]],[[419]],[[7]],['low holistic'],['right'],['inverted'],['U0107.bmp'],['female'],[[8]],['female'],[[1]],[[0.00010799]],YM
419,[[9]],[[420]],[[6]],['high holistic'],['right'],['upright'],['U0106.bmp'],['female'],[[4]],['male'],[[0]],[[0.00010162]],YM
420,[[9]],[[421]],[[18]],['low holistic'],['left'],['inverted'],['U0359.bmp'],['male'],[[2]],['male'],[[1]],[[0.00010161]],YM
421,[[9]],[[422]],[[17]],['low holistic'],['right'],['upright'],['U0346.bmp'],['female'],[[6]],['female'],[[1]],[[0.00023829]],YM
422,[[9]],[[423]],[[19]],['high holistic'],['fovea'],['inverted'],['U0361.bmp'],['female'],[[0]],['male'],[[0]],[[0.00010911]],YM
423,[[9]],[[424]],[[14]],['high holistic'],['right'],['inverted'],['U0228.bmp'],['male'],[[2]],['male'],[[1]],[[1.47922091]],YM
424,[[9]],[[425]],[[1]],['high holistic'],['right'],['inverted'],['U0006.bmp'],['female'],[[2]],['female'],[[1]],[[0.0004932]],YM
425,[[9]],[[426]],[[7]],['high holistic'],['right'],['inverted'],['U0107.bmp'],['female'],[[6]],['male'],[[0]],[[0.00010073]],YM
426,[[9]],[[427]],[[12]],['high holistic'],['right'],['inverted'],['U0178.bmp'],['male'],[[6]],['female'],[[0]],[[0.04386179]],YM
427,[[9]],[[428]],[[12]],['low holistic'],['left'],['inverted'],['U0178.bmp'],['female'],[[8]],['female'],[[1]],[[0.00010811]],YM
428,[[9]],[[429]],[[12]],['high holistic'],['left'],['upright'],['U0178.bmp'],['male'],[[12]],['male'],[[1]],[[0.00025874]],YM
429,[[9]],[[430]],[[13]],['low holistic'],['right'],['inverted'],['U0181.bmp'],['male'],[[10]],['female'],[[0]],[[0.00037098]],YM
430,[[9]],[[431]],[[8]],['high holistic'],['right'],['inverted'],['U0137.bmp'],['female'],[[4]],['male'],[[0]],[[0.00027346]],YM
431,[[9]],[[432]],[[19]],['high holistic'],['right'],['inverted'],['U0361.bmp'],['female'],[[4]],['male'],[[0]],[[1.07208889]],YM
432,[[9]],[[433]],[[20]],['low holistic'],['left'],['upright'],['U0362.bmp'],['male'],[[8]],['male'],[[1]],[[0.0004553]],YM
433,[[9]],[[434]],[[8]],['high holistic'],['right'],['inverted'],['U0137.bmp'],['female'],[[8]],['male'],[[0]],[[0.00011376]],YM
434,[[9]],[[435]],[[11]],['low holistic'],['left'],['upright'],['U0164.bmp'],['female'],[[2]],['male'],[[0]],[[0.00010789]],YM
435,[[9]],[[436]],[[10]],['low holistic'],['left'],['upright'],['U0159.bmp'],['female'],[[6]],['female'],[[1]],[[0.04380409]],YM
436,[[9]],[[437]],[[15]],['low holistic'],['left'],['upright'],['U0312.bmp'],['male'],[[10]],['male'],[[1]],[[0.0003924]],YM
437,[[9]],[[438]],[[8]],['low holistic'],['right'],['inverted'],['U0137.bmp'],['male'],[[2]],['male'],[[1]],[[0.12224741]],YM
438,[[9]],[[439]],[[10]],['low holistic'],['left'],['upright'],['U0159.bmp'],['female'],[[12]],['male'],[[0]],[[0.0001648]],YM
439,[[9]],[[440]],[[14]],['low holistic'],['right'],['upright'],['U0228.bmp'],['male'],[[2]],['female'],[[0]],[[0.06990674]],YM
440,[[9]],[[441]],[[11]],['low holistic'],['left'],['upright'],['U0164.bmp'],['female'],[[2]],['female'],[[1]],[[0.00011114]],YM
441,[[9]],[[442]],[[18]],['low holistic'],['left'],['upright'],['U0359.bmp'],['male'],[[2]],['male'],[[1]],[[0.10636605]],YM
442,[[9]],[[443]],[[6]],['low holistic'],['left'],['upright'],['U0106.bmp'],['male'],[[6]],['male'],[[1]],[[0.32491251]],YM
443,[[9]],[[444]],[[2]],['low holistic'],['right'],['upright'],['U0014.bmp'],['male'],[[12]],['male'],[[1]],[[0.1441408]],YM
444,[[9]],[[445]],[[19]],['high holistic'],['left'],['inverted'],['U0361.bmp'],['female'],[[4]],['male'],[[0]],[[9.96403396e-05]],YM
445,[[9]],[[446]],[[20]],['high holistic'],['left'],['upright'],['U0362.bmp'],['female'],[[4]],['female'],[[1]],[[0.01687714]],YM
446,[[9]],[[447]],[[16]],['high holistic'],['right'],['inverted'],['U0335.bmp'],['female'],[[2]],['female'],[[1]],[[0.37650542]],YM
447,[[9]],[[448]],[[6]],['high holistic'],['left'],['inverted'],['U0106.bmp'],['female'],[[12]],['female'],[[1]],[[0.11341181]],YM
448,[[9]],[[449]],[[9]],['low holistic'],['left'],['upright'],['U0155.bmp'],['male'],[[10]],['female'],[[0]],[[0.00010048]],YM
449,[[9]],[[450]],[[10]],['high holistic'],['right'],['inverted'],['U0159.bmp'],['male'],[[8]],['female'],[[0]],[[0.01308036]],YM
450,[[9]],[[451]],[[14]],['low holistic'],['left'],['upright'],['U0228.bmp'],['male'],[[10]],['male'],[[1]],[[0.00010095]],YM
451,[[9]],[[452]],[[11]],['high holistic'],['left'],['inverted'],['U0164.bmp'],['female'],[[12]],['female'],[[1]],[[0.17023092]],YM
452,[[9]],[[453]],[[9]],['low holistic'],['left'],['upright'],['U0155.bmp'],['male'],[[2]],['male'],[[1]],[[0.0001136]],YM
453,[[9]],[[454]],[[7]],['high holistic'],['right'],['upright'],['U0107.bmp'],['female'],[[10]],['female'],[[1]],[[0.01900723]],YM
454,[[9]],[[455]],[[16]],['low holistic'],['left'],['upright'],['U0335.bmp'],['female'],[[6]],['female'],[[1]],[[0.00011305]],YM
455,[[9]],[[456]],[[19]],['high holistic'],['left'],['upright'],['U0361.bmp'],['female'],[[12]],['female'],[[1]],[[0.20181195]],YM
456,[[9]],[[457]],[[10]],['low holistic'],['left'],['inverted'],['U0159.bmp'],['female'],[[10]],['male'],[[0]],[[9.99392942e-05]],YM
457,[[9]],[[458]],[[6]],['high holistic'],['right'],['inverted'],['U0106.bmp'],['female'],[[12]],['male'],[[0]],[[0.00010048]],YM
458,[[9]],[[459]],[[17]],['high holistic'],['right'],['upright'],['U0346.bmp'],['male'],[[10]],['male'],[[1]],[[0.03388685]],YM
459,[[9]],[[460]],[[11]],['high holistic'],['left'],['upright'],['U0164.bmp'],['female'],[[4]],['female'],[[1]],[[0.08715707]],YM
460,[[9]],[[461]],[[16]],['low holistic'],['left'],['upright'],['U0335.bmp'],['female'],[[12]],['female'],[[1]],[[0.01921407]],YM
461,[[9]],[[462]],[[8]],['high holistic'],['right'],['upright'],['U0137.bmp'],['female'],[[6]],['female'],[[1]],[[9.97576863e-05]],YM
462,[[9]],[[463]],[[15]],['low holistic'],['fovea'],['upright'],['U0312.bmp'],['male'],[[0]],['male'],[[1]],[[0.00010059]],YM
463,[[9]],[[464]],[[8]],['high holistic'],['left'],['inverted'],['U0137.bmp'],['female'],[[2]],['female'],[[1]],[[0.08231384]],YM
464,[[9]],[[465]],[[15]],['high holistic'],['left'],['upright'],['U0312.bmp'],['male'],[[2]],['male'],[[1]],[[0.11876806]],YM
465,[[9]],[[466]],[[1]],['high holistic'],['right'],['upright'],['U0006.bmp'],['female'],[[6]],['female'],[[1]],[[0.03335461]],YM
466,[[9]],[[467]],[[3]],['low holistic'],['left'],['upright'],['U0020.bmp'],['female'],[[2]],['female'],[[1]],[[9.97101888e-05]],YM
467,[[9]],[[468]],[[14]],['high holistic'],['right'],['inverted'],['U0228.bmp'],['male'],[[12]],['female'],[[0]],[[9.94354486e-05]],YM
468,[[9]],[[469]],[[3]],['low holistic'],['right'],['upright'],['U0020.bmp'],['female'],[[8]],['female'],[[1]],[[9.9953264e-05]],YM
469,[[9]],[[470]],[[17]],['high holistic'],['right'],['inverted'],['U0346.bmp'],['male'],[[12]],['male'],[[1]],[[0.00010826]],YM
470,[[9]],[[471]],[[13]],['low holistic'],['left'],['upright'],['U0181.bmp'],['male'],[[12]],['male'],[[1]],[[0.00010697]],YM
471,[[9]],[[472]],[[6]],['low holistic'],['right'],['inverted'],['U0106.bmp'],['male'],[[4]],['female'],[[0]],[[0.00010106]],YM
472,[[9]],[[473]],[[18]],['high holistic'],['left'],['upright'],['U0359.bmp'],['male'],[[8]],['male'],[[1]],[[0.00012663]],YM
473,[[9]],[[474]],[[9]],['high holistic'],['left'],['inverted'],['U0155.bmp'],['female'],[[10]],['female'],[[1]],[[0.38081185]],YM
474,[[9]],[[475]],[[6]],['high holistic'],['left'],['upright'],['U0106.bmp'],['female'],[[10]],['female'],[[1]],[[0.00542223]],YM
475,[[9]],[[476]],[[4]],['low holistic'],['right'],['upright'],['U0061.bmp'],['female'],[[12]],['female'],[[1]],[[0.00011556]],YM
476,[[9]],[[477]],[[19]],['high holistic'],['fovea'],['inverted'],['U0361.bmp'],['female'],[[0]],['male'],[[0]],[[0.00019897]],YM
477,[[9]],[[478]],[[15]],['high holistic'],['fovea'],['inverted'],['U0312.bmp'],['male'],[[0]],['male'],[[1]],[[0.12425451]],YM
478,[[9]],[[479]],[[4]],['high holistic'],['left'],['upright'],['U0061.bmp'],['female'],[[6]],['female'],[[1]],[[0.11873559]],YM
479,[[9]],[[480]],[[6]],['high holistic'],['left'],['inverted'],['U0106.bmp'],['female'],[[8]],['female'],[[1]],[[0.13029938]],YM
480,[[9]],[[481]],[[8]],['high holistic'],['fovea'],['upright'],['U0137.bmp'],['female'],[[0]],['female'],[[1]],[[0.0004651]],YM
481,[[9]],[[482]],[[18]],['low holistic'],['right'],['inverted'],['U0359.bmp'],['male'],[[6]],['male'],[[1]],[[0.00010959]],YM
482,[[9]],[[483]],[[15]],['low holistic'],['left'],['upright'],['U0312.bmp'],['male'],[[6]],['male'],[[1]],[[9.98917967e-05]],YM
483,[[9]],[[484]],[[1]],['high holistic'],['left'],['upright'],['U0006.bmp'],['female'],[[2]],['female'],[[1]],[[1.22790404]],YM
484,[[9]],[[485]],[[5]],['high holistic'],['right'],['upright'],['U0076.bmp'],['female'],[[2]],['female'],[[1]],[[0.00010126]],YM
485,[[9]],[[486]],[[8]],['low holistic'],['right'],['upright'],['U0137.bmp'],['male'],[[4]],['male'],[[1]],[[1.59294528]],YM
486,[[9]],[[487]],[[19]],['high holistic'],['left'],['inverted'],['U0361.bmp'],['female'],[[8]],['male'],[[0]],[[0.00010008]],YM
487,[[9]],[[488]],[[3]],['low holistic'],['right'],['inverted'],['U0020.bmp'],['female'],[[6]],['female'],[[1]],[[0.00010683]],YM
488,[[9]],[[489]],[[12]],['high holistic'],['left'],['inverted'],['U0178.bmp'],['male'],[[8]],['male'],[[1]],[[0.00010118]],YM
489,[[9]],[[490]],[[14]],['low holistic'],['right'],['upright'],['U0228.bmp'],['male'],[[8]],['female'],[[0]],[[9.85199586e-05]],YM
490,[[9]],[[491]],[[4]],['high holistic'],['right'],['inverted'],['U0061.bmp'],['female'],[[12]],['female'],[[1]],[[0.00746835]],YM
491,[[9]],[[492]],[[6]],['low holistic'],['left'],['inverted'],['U0106.bmp'],['male'],[[6]],['male'],[[1]],[[0.00010177]],YM
492,[[9]],[[493]],[[7]],['low holistic'],['left'],['upright'],['U0107.bmp'],['female'],[[12]],['male'],[[0]],[[0.03131728]],YM
493,[[9]],[[494]],[[14]],['low holistic'],['right'],['upright'],['U0228.bmp'],['male'],[[8]],['male'],[[1]],[[1.41325641]],YM
494,[[9]],[[495]],[[17]],['high holistic'],['left'],['inverted'],['U0346.bmp'],['male'],[[10]],['male'],[[1]],[[0.01963563]],YM
495,[[9]],[[496]],[[17]],['high holistic'],['left'],['inverted'],['U0346.bmp'],['male'],[[2]],['male'],[[1]],[[9.79220495e-05]],YM
496,[[9]],[[497]],[[4]],['high holistic'],['fovea'],['upright'],['U0061.bmp'],['female'],[[0]],['female'],[[1]],[[1.37847875]],YM
497,[[9]],[[498]],[[9]],['low holistic'],['left'],['inverted'],['U0155.bmp'],['male'],[[10]],['female'],[[0]],[[0.00020183]],YM
498,[[9]],[[499]],[[13]],['high holistic'],['left'],['upright'],['U0181.bmp'],['female'],[[12]],['female'],[[1]],[[0.00010854]],YM
499,[[9]],[[500]],[[3]],['high holistic'],['left'],['upright'],['U0020.bmp'],['male'],[[2]],['male'],[[1]],[[0.00010016]],YM
500,[[9]],[[501]],[[13]],['low holistic'],['left'],['inverted'],['U0181.bmp'],['male'],[[6]],['male'],[[1]],[[1.19345673]],YM
501,[[9]],[[502]],[[1]],['low holistic'],['left'],['inverted'],['U0006.bmp'],['female'],[[12]],['female'],[[1]],[[0.00026859]],YM
502,[[9]],[[503]],[[7]],['high holistic'],['right'],['upright'],['U0107.bmp'],['female'],[[2]],['female'],[[1]],[[9.9979341e-05]],YM
503,[[9]],[[504]],[[10]],['high holistic'],['left'],['upright'],['U0159.bmp'],['male'],[[8]],['male'],[[1]],[[1.76945773]],YM
504,[[9]],[[505]],[[17]],['high holistic'],['fovea'],['inverted'],['U0346.bmp'],['male'],[[0]],['female'],[[0]],[[0.00010021]],YM
505,[[9]],[[506]],[[20]],['low holistic'],['left'],['inverted'],['U0362.bmp'],['male'],[[12]],['male'],[[1]],[[0.00018401]],YM
506,[[9]],[[507]],[[17]],['high holistic'],['left'],['upright'],['U0346.bmp'],['male'],[[6]],['male'],[[1]],[[0.00010079]],YM
507,[[9]],[[508]],[[1]],['low holistic'],['right'],['upright'],['U0006.bmp'],['female'],[[6]],['female'],[[1]],[[0.00010029]],YM
508,[[9]],[[509]],[[15]],['low holistic'],['right'],['inverted'],['U0312.bmp'],['male'],[[2]],['male'],[[1]],[[0.00032741]],YM
509,[[9]],[[510]],[[6]],['high holistic'],['left'],['upright'],['U0106.bmp'],['female'],[[10]],['male'],[[0]],[[0.00010692]],YM
510,[[9]],[[511]],[[16]],['high holistic'],['right'],['upright'],['U0335.bmp'],['female'],[[8]],['male'],[[0]],[[0.00010743]],YM
511,[[9]],[[512]],[[16]],['low holistic'],['left'],['upright'],['U0335.bmp'],['female'],[[4]],['female'],[[1]],[[0.00010571]],YM
512,[[9]],[[513]],[[5]],['high holistic'],['right'],['inverted'],['U0076.bmp'],['female'],[[10]],['female'],[[1]],[[0.00010035]],YM
513,[[9]],[[514]],[[15]],['high holistic'],['right'],['upright'],['U0312.bmp'],['male'],[[8]],['female'],[[0]],[[0.00023057]],YM
514,[[9]],[[515]],[[10]],['high holistic'],['right'],['upright'],['U0159.bmp'],['male'],[[12]],['male'],[[1]],[[0.1348449]],YM
515,[[9]],[[516]],[[4]],['low holistic'],['left'],['inverted'],['U0061.bmp'],['female'],[[4]],['female'],[[1]],[[0.00010676]],YM
516,[[9]],[[517]],[[10]],['low holistic'],['right'],['upright'],['U0159.bmp'],['female'],[[4]],['female'],[[1]],[[9.99448821e-05]],YM
517,[[9]],[[518]],[[7]],['high holistic'],['right'],['upright'],['U0107.bmp'],['female'],[[10]],['female'],[[1]],[[0.00010524]],YM
518,[[9]],[[519]],[[12]],['high holistic'],['left'],['inverted'],['U0178.bmp'],['male'],[[10]],['male'],[[1]],[[0.04108955]],YM
519,[[9]],[[520]],[[1]],['low holistic'],['left'],['inverted'],['U0006.bmp'],['female'],[[8]],['female'],[[1]],[[0.00016386]],YM
520,[[9]],[[521]],[[12]],['low holistic'],['left'],['inverted'],['U0178.bmp'],['female'],[[12]],['female'],[[1]],[[0.19543593]],YM
521,[[9]],[[522]],[[3]],['high holistic'],['right'],['upright'],['U0020.bmp'],['male'],[[4]],['male'],[[1]],[[0.00010069]],YM
522,[[9]],[[523]],[[13]],['low holistic'],['left'],['inverted'],['U0181.bmp'],['male'],[[6]],['male'],[[1]],[[0.00013295]],YM
523,[[9]],[[524]],[[17]],['low holistic'],['left'],['inverted'],['U0346.bmp'],['female'],[[4]],['female'],[[1]],[[0.00011215]],YM
524,[[9]],[[525]],[[10]],['high holistic'],['left'],['upright'],['U0159.bmp'],['male'],[[4]],['male'],[[1]],[[9.78978351e-05]],YM
525,[[9]],[[526]],[[8]],['low holistic'],['left'],['inverted'],['U0137.bmp'],['male'],[[12]],['male'],[[1]],[[0.00010686]],YM
526,[[9]],[[527]],[[15]],['low holistic'],['right'],['inverted'],['U0312.bmp'],['male'],[[10]],['male'],[[1]],[[0.00011287]],YM
527,[[9]],[[528]],[[3]],['low holistic'],['right'],['upright'],['U0020.bmp'],['female'],[[8]],['female'],[[1]],[[0.00010731]],YM
528,[[9]],[[529]],[[2]],['high holistic'],['right'],['inverted'],['U0014.bmp'],['male'],[[10]],['male'],[[1]],[[0.74488182]],YM
529,[[9]],[[530]],[[10]],['low holistic'],['right'],['inverted'],['U0159.bmp'],['female'],[[12]],['female'],[[1]],[[0.00010097]],YM
530,[[9]],[[531]],[[1]],['high holistic'],['left'],['inverted'],['U0006.bmp'],['female'],[[6]],['female'],[[1]],[[0.00010735]],YM
531,[[9]],[[532]],[[3]],['low holistic'],['left'],['inverted'],['U0020.bmp'],['female'],[[4]],['male'],[[0]],[[0.00012658]],YM
532,[[9]],[[533]],[[7]],['low holistic'],['right'],['upright'],['U0107.bmp'],['female'],[[12]],['male'],[[0]],[[0.05980512]],YM
533,[[9]],[[534]],[[10]],['high holistic'],['right'],['upright'],['U0159.bmp'],['male'],[[6]],['female'],[[0]],[[9.29677019]],YM
534,[[9]],[[535]],[[6]],['low holistic'],['right'],['upright'],['U0106.bmp'],['male'],[[4]],['male'],[[1]],[[0.000453]],YM
535,[[9]],[[536]],[[6]],['high holistic'],['right'],['inverted'],['U0106.bmp'],['female'],[[12]],['female'],[[1]],[[0.95590643]],YM
536,[[9]],[[537]],[[9]],['high holistic'],['left'],['inverted'],['U0155.bmp'],['female'],[[4]],['male'],[[0]],[[0.61182749]],YM
537,[[9]],[[538]],[[9]],['low holistic'],['right'],['upright'],['U0155.bmp'],['male'],[[8]],['male'],[[1]],[[0.11652177]],YM
538,[[9]],[[539]],[[13]],['low holistic'],['left'],['inverted'],['U0181.bmp'],['male'],[[8]],['female'],[[0]],[[0.00010631]],YM
539,[[9]],[[540]],[[9]],['high holistic'],['right'],['inverted'],['U0155.bmp'],['female'],[[4]],['male'],[[0]],[[0.01344093]],YM
540,[[9]],[[541]],[[16]],['low holistic'],['right'],['upright'],['U0335.bmp'],['female'],[[10]],['male'],[[0]],[[0.00010674]],YM
541,[[9]],[[542]],[[9]],['low holistic'],['fovea'],['upright'],['U0155.bmp'],['male'],[[0]],['female'],[[0]],[[0.00010444]],YM
542,[[9]],[[543]],[[19]],['high holistic'],['left'],['inverted'],['U0361.bmp'],['female'],[[8]],['male'],[[0]],[[0.00019504]],YM
543,[[9]],[[544]],[[20]],['high holistic'],['right'],['inverted'],['U0362.bmp'],['female'],[[2]],['male'],[[0]],[[0.00010057]],YM
544,[[9]],[[545]],[[12]],['low holistic'],['right'],['upright'],['U0178.bmp'],['female'],[[2]],['female'],[[1]],[[0.00010705]],YM
545,[[9]],[[546]],[[20]],['low holistic'],['left'],['inverted'],['U0362.bmp'],['male'],[[4]],['female'],[[0]],[[2.41087481]],YM
546,[[9]],[[547]],[[18]],['high holistic'],['right'],['upright'],['U0359.bmp'],['male'],[[8]],['male'],[[1]],[[0.13015223]],YM
547,[[9]],[[548]],[[19]],['high holistic'],['right'],['inverted'],['U0361.bmp'],['female'],[[2]],['female'],[[1]],[[9.95164737e-05]],YM
548,[[9]],[[549]],[[8]],['high holistic'],['left'],['inverted'],['U0137.bmp'],['female'],[[10]],['male'],[[0]],[[1.7016919]],YM
549,[[9]],[[550]],[[1]],['high holistic'],['left'],['upright'],['U0006.bmp'],['female'],[[2]],['female'],[[1]],[[0.00010666]],YM
550,[[9]],[[551]],[[20]],['low holistic'],['right'],['upright'],['U0362.bmp'],['male'],[[10]],['female'],[[0]],[[0.00010028]],YM
551,[[9]],[[552]],[[13]],['low holistic'],['right'],['inverted'],['U0181.bmp'],['male'],[[4]],['female'],[[0]],[[1.81496563]],YM
552,[[9]],[[553]],[[2]],['high holistic'],['left'],['inverted'],['U0014.bmp'],['male'],[[6]],['female'],[[0]],[[0.22264352]],YM
553,[[9]],[[554]],[[9]],['high holistic'],['right'],['upright'],['U0155.bmp'],['female'],[[10]],['male'],[[0]],[[0.00038588]],YM
554,[[9]],[[555]],[[1]],['high holistic'],['right'],['inverted'],['U0006.bmp'],['female'],[[4]],['male'],[[0]],[[0.30043421]],YM
555,[[9]],[[556]],[[10]],['low holistic'],['right'],['upright'],['U0159.bmp'],['female'],[[6]],['female'],[[1]],[[0.00010092]],YM
556,[[9]],[[557]],[[11]],['low holistic'],['left'],['inverted'],['U0164.bmp'],['female'],[[10]],['female'],[[1]],[[0.08839545]],YM
557,[[9]],[[558]],[[9]],['high holistic'],['left'],['upright'],['U0155.bmp'],['female'],[[12]],['male'],[[0]],[[0.00010002]],YM
558,[[9]],[[559]],[[7]],['low holistic'],['left'],['inverted'],['U0107.bmp'],['female'],[[4]],['male'],[[0]],[[9.97586176e-05]],YM
559,[[9]],[[560]],[[4]],['low holistic'],['right'],['upright'],['U0061.bmp'],['female'],[[4]],['female'],[[1]],[[9.96319577e-05]],YM
560,[[9]],[[561]],[[8]],['low holistic'],['right'],['inverted'],['U0137.bmp'],['male'],[[4]],['male'],[[1]],[[0.00010004]],YM
561,[[9]],[[562]],[[19]],['high holistic'],['left'],['inverted'],['U0361.bmp'],['female'],[[2]],['male'],[[0]],[[0.00048017]],YM
562,[[9]],[[563]],[[17]],['high holistic'],['left'],['inverted'],['U0346.bmp'],['male'],[[12]],['male'],[[1]],[[0.0002175]],YM
563,[[9]],[[564]],[[2]],['high holistic'],['left'],['inverted'],['U0014.bmp'],['male'],[[2]],['female'],[[0]],[[9.94224101e-05]],YM
564,[[9]],[[565]],[[19]],['high holistic'],['right'],['upright'],['U0361.bmp'],['female'],[[2]],['female'],[[1]],[[0.04044641]],YM
565,[[9]],[[566]],[[15]],['low holistic'],['left'],['upright'],['U0312.bmp'],['male'],[[2]],['male'],[[1]],[[0.0003607]],YM
566,[[9]],[[567]],[[7]],['high holistic'],['right'],['upright'],['U0107.bmp'],['female'],[[12]],['female'],[[1]],[[9.95267183e-05]],YM
567,[[9]],[[568]],[[8]],['high holistic'],['left'],['inverted'],['U0137.bmp'],['female'],[[2]],['male'],[[0]],[[0.00010114]],YM
568,[[9]],[[569]],[[13]],['high holistic'],['fovea'],['upright'],['U0181.bmp'],['female'],[[0]],['female'],[[1]],[[0.00041566]],YM
569,[[9]],[[570]],[[5]],['high holistic'],['right'],['inverted'],['U0076.bmp'],['female'],[[8]],['female'],[[1]],[[9.98610631e-05]],YM
570,[[9]],[[571]],[[3]],['high holistic'],['right'],['upright'],['U0020.bmp'],['male'],[[8]],['female'],[[0]],[[0.01503596]],YM
571,[[9]],[[572]],[[14]],['low holistic'],['right'],['inverted'],['U0228.bmp'],['male'],[[12]],['male'],[[1]],[[0.00010706]],YM
572,[[9]],[[573]],[[7]],['low holistic'],['left'],['inverted'],['U0107.bmp'],['female'],[[6]],['female'],[[1]],[[9.92808491e-05]],YM
573,[[9]],[[574]],[[4]],['high holistic'],['left'],['inverted'],['U0061.bmp'],['female'],[[6]],['female'],[[1]],[[0.18800194]],YM
574,[[9]],[[575]],[[3]],['high holistic'],['right'],['upright'],['U0020.bmp'],['male'],[[12]],['female'],[[0]],[[1.86065589]],YM
575,[[9]],[[576]],[[1]],['high holistic'],['left'],['upright'],['U0006.bmp'],['female'],[[4]],['male'],[[0]],[[0.00010176]],YM
576,[[9]],[[577]],[[8]],['high holistic'],['right'],['inverted'],['U0137.bmp'],['female'],[[6]],['male'],[[0]],[[9.98396426e-05]],YM
577,[[9]],[[578]],[[15]],['high holistic'],['right'],['inverted'],['U0312.bmp'],['male'],[[8]],['female'],[[0]],[[4.04834812]],YM
578,[[9]],[[579]],[[3]],['low holistic'],['left'],['inverted'],['U0020.bmp'],['female'],[[12]],['female'],[[1]],[[0.12559709]],YM
579,[[9]],[[580]],[[18]],['high holistic'],['left'],['upright'],['U0359.bmp'],['male'],[[8]],['female'],[[0]],[[0.04819007]],YM
580,[[9]],[[581]],[[17]],['low holistic'],['fovea'],['inverted'],['U0346.bmp'],['female'],[[0]],['female'],[[1]],[[9.94224101e-05]],YM
581,[[9]],[[582]],[[13]],['high holistic'],['right'],['inverted'],['U0181.bmp'],['female'],[[10]],['female'],[[1]],[[0.06224938]],YM
582,[[9]],[[583]],[[13]],['low holistic'],['left'],['inverted'],['U0181.bmp'],['male'],[[6]],['male'],[[1]],[[0.00010245]],YM
583,[[9]],[[584]],[[15]],['high holistic'],['right'],['inverted'],['U0312.bmp'],['male'],[[8]],['female'],[[0]],[[1.36247243]],YM
584,[[9]],[[585]],[[14]],['low holistic'],['right'],['inverted'],['U0228.bmp'],['male'],[[10]],['female'],[[0]],[[9.97986645e-05]],YM
585,[[9]],[[586]],[[11]],['low holistic'],['fovea'],['inverted'],['U0164.bmp'],['female'],[[0]],['male'],[[0]],[[0.24446048]],YM
586,[[9]],[[587]],[[9]],['low holistic'],['left'],['inverted'],['U0155.bmp'],['male'],[[6]],['female'],[[0]],[[0.04244836]],YM
587,[[9]],[[588]],[[19]],['high holistic'],['left'],['inverted'],['U0361.bmp'],['female'],[[10]],['male'],[[0]],[[1.56067278]],YM
588,[[9]],[[589]],[[19]],['high holistic'],['right'],['inverted'],['U0361.bmp'],['female'],[[12]],['male'],[[0]],[[0.08851272]],YM
589,[[9]],[[590]],[[5]],['high holistic'],['right'],['inverted'],['U0076.bmp'],['female'],[[8]],['male'],[[0]],[[0.00023231]],YM
590,[[9]],[[591]],[[16]],['low holistic'],['left'],['upright'],['U0335.bmp'],['female'],[[6]],['female'],[[1]],[[0.00010829]],YM
591,[[9]],[[592]],[[4]],['low holistic'],['left'],['upright'],['U0061.bmp'],['female'],[[4]],['female'],[[1]],[[9.9199824e-05]],YM
592,[[9]],[[593]],[[6]],['low holistic'],['fovea'],['inverted'],['U0106.bmp'],['male'],[[0]],['male'],[[1]],[[0.00032134]],YM
593,[[9]],[[594]],[[14]],['low holistic'],['right'],['upright'],['U0228.bmp'],['male'],[[4]],['female'],[[0]],[[0.00010057]],YM
594,[[9]],[[595]],[[12]],['low holistic'],['left'],['upright'],['U0178.bmp'],['female'],[[6]],['male'],[[0]],[[0.14721448]],YM
595,[[9]],[[596]],[[12]],['high holistic'],['fovea'],['upright'],['U0178.bmp'],['male'],[[0]],['male'],[[1]],[[0.00033392]],YM
596,[[9]],[[597]],[[12]],['low holistic'],['right'],['inverted'],['U0178.bmp'],['female'],[[12]],['male'],[[0]],[[0.09224327]],YM
597,[[9]],[[598]],[[16]],['low holistic'],['right'],['upright'],['U0335.bmp'],['female'],[[6]],['female'],[[1]],[[0.10450648]],YM
598,[[9]],[[599]],[[20]],['low holistic'],['right'],['inverted'],['U0362.bmp'],['male'],[[8]],['male'],[[1]],[[0.04299843]],YM
599,[[9]],[[600]],[[17]],['high holistic'],['right'],['inverted'],['U0346.bmp'],['male'],[[8]],['male'],[[1]],[[9.96310264e-05]],YM
600,[[9]],[[601]],[[2]],['low holistic'],['right'],['inverted'],['U0014.bmp'],['male'],[[12]],['female'],[[0]],[[4.77735995]],YM
601,[[9]],[[602]],[[14]],['high holistic'],['right'],['inverted'],['U0228.bmp'],['male'],[[2]],['male'],[[1]],[[0.43355359]],YM
602,[[9]],[[603]],[[9]],['low holistic'],['left'],['upright'],['U0155.bmp'],['male'],[[12]],['male'],[[1]],[[0.11322243]],YM
603,[[9]],[[604]],[[17]],['high holistic'],['fovea'],['upright'],['U0346.bmp'],['male'],[[0]],['male'],[[1]],[[6.0846186]],YM
604,[[9]],[[605]],[[6]],['low holistic'],['left'],['inverted'],['U0106.bmp'],['male'],[[4]],['male'],[[1]],[[1.52834394]],YM
605,[[9]],[[606]],[[11]],['high holistic'],['right'],['inverted'],['U0164.bmp'],['female'],[[6]],['male'],[[0]],[[2.21930822]],YM
606,[[9]],[[607]],[[14]],['high holistic'],['left'],['upright'],['U0228.bmp'],['male'],[[2]],['male'],[[1]],[[9.93125141e-05]],YM
607,[[9]],[[608]],[[1]],['high holistic'],['right'],['inverted'],['U0006.bmp'],['female'],[[12]],['male'],[[0]],[[6.7526093]],YM
608,[[9]],[[609]],[[17]],['low holistic'],['right'],['upright'],['U0346.bmp'],['female'],[[4]],['male'],[[0]],[[0.2743198]],YM
609,[[9]],[[610]],[[15]],['high holistic'],['fovea'],['inverted'],['U0312.bmp'],['male'],[[0]],['male'],[[1]],[[2.5684391]],YM
610,[[9]],[[611]],[[16]],['high holistic'],['right'],['upright'],['U0335.bmp'],['female'],[[2]],['male'],[[0]],[[4.48104328]],YM
611,[[9]],[[612]],[[13]],['high holistic'],['left'],['inverted'],['U0181.bmp'],['female'],[[2]],['male'],[[0]],[[0.88504035]],YM
612,[[9]],[[613]],[[20]],['low holistic'],['right'],['upright'],['U0362.bmp'],['male'],[[6]],['male'],[[1]],[[2.58390712]],YM
613,[[9]],[[614]],[[17]],['high holistic'],['left'],['upright'],['U0346.bmp'],['male'],[[4]],['male'],[[1]],[[6.36013948]],YM
614,[[9]],[[615]],[[17]],['low holistic'],['right'],['inverted'],['U0346.bmp'],['female'],[[2]],['male'],[[0]],[[6.69717638]],YM
615,[[9]],[[616]],[[19]],['high holistic'],['right'],['upright'],['U0361.bmp'],['female'],[[2]],['male'],[[0]],[[0.00010091]],YM
616,[[9]],[[617]],[[12]],['low holistic'],['right'],['upright'],['U0178.bmp'],['female'],[[10]],['male'],[[0]],[[8.41207188]],YM
617,[[9]],[[618]],[[4]],['high holistic'],['right'],['upright'],['U0061.bmp'],['female'],[[10]],['male'],[[0]],[[3.4993338]],YM
618,[[9]],[[619]],[[3]],['high holistic'],['left'],['upright'],['U0020.bmp'],['male'],[[4]],['male'],[[1]],[[1.30343186]],YM
619,[[9]],[[620]],[[16]],['high holistic'],['right'],['upright'],['U0335.bmp'],['female'],[[8]],['male'],[[0]],[[7.41225322]],YM
620,[[9]],[[621]],[[17]],['high holistic'],['left'],['inverted'],['U0346.bmp'],['male'],[[4]],['female'],[[0]],[[4.16937825]],YM
621,[[9]],[[622]],[[17]],['low holistic'],['left'],['inverted'],['U0346.bmp'],['female'],[[10]],['female'],[[1]],[[0.01172436]],YM
622,[[9]],[[623]],[[15]],['high holistic'],['right'],['inverted'],['U0312.bmp'],['male'],[[6]],['female'],[[0]],[[0.00024718]],YM
623,[[9]],[[624]],[[16]],['high holistic'],['right'],['upright'],['U0335.bmp'],['female'],[[4]],['female'],[[1]],[[0.0001008]],YM
624,[[9]],[[625]],[[13]],['low holistic'],['right'],['upright'],['U0181.bmp'],['male'],[[12]],['female'],[[0]],[[0.00010684]],YM
625,[[9]],[[626]],[[12]],['high holistic'],['left'],['inverted'],['U0178.bmp'],['male'],[[4]],['female'],[[0]],[[0.00010554]],YM
626,[[9]],[[627]],[[19]],['high holistic'],['left'],['upright'],['U0361.bmp'],['female'],[[6]],['female'],[[1]],[[0.00010579]],YM
627,[[9]],[[628]],[[1]],['high holistic'],['left'],['inverted'],['U0006.bmp'],['female'],[[10]],['male'],[[0]],[[0.00010064]],YM
628,[[9]],[[629]],[[5]],['high holistic'],['right'],['upright'],['U0076.bmp'],['female'],[[8]],['female'],[[1]],[[0.00011761]],YM
629,[[9]],[[630]],[[4]],['high holistic'],['right'],['inverted'],['U0061.bmp'],['female'],[[8]],['female'],[[1]],[[0.00010049]],YM
630,[[9]],[[631]],[[17]],['high holistic'],['left'],['upright'],['U0346.bmp'],['male'],[[10]],['female'],[[0]],[[0.00021287]],YM
631,[[9]],[[632]],[[12]],['high holistic'],['left'],['inverted'],['U0178.bmp'],['male'],[[4]],['male'],[[1]],[[9.93814319e-05]],YM
632,[[9]],[[633]],[[12]],['high holistic'],['left'],['upright'],['U0178.bmp'],['male'],[[6]],['male'],[[1]],[[9.97651368e-05]],YM
633,[[9]],[[634]],[[6]],['high holistic'],['fovea'],['upright'],['U0106.bmp'],['female'],[[0]],['male'],[[0]],[[0.0001075]],YM
634,[[9]],[[635]],[[7]],['low holistic'],['fovea'],['inverted'],['U0107.bmp'],['female'],[[0]],['female'],[[1]],[[0.00010797]],YM
635,[[9]],[[636]],[[17]],['low holistic'],['left'],['upright'],['U0346.bmp'],['female'],[[4]],['male'],[[0]],[[0.00548671]],YM
636,[[9]],[[637]],[[19]],['high holistic'],['left'],['inverted'],['U0361.bmp'],['female'],[[8]],['female'],[[1]],[[1.1256924]],YM
637,[[9]],[[638]],[[16]],['low holistic'],['right'],['inverted'],['U0335.bmp'],['female'],[[10]],['female'],[[1]],[[0.00010012]],YM
638,[[9]],[[639]],[[19]],['low holistic'],['right'],['inverted'],['U0361.bmp'],['female'],[[8]],['female'],[[1]],[[0.00031181]],YM
639,[[9]],[[640]],[[8]],['low holistic'],['right'],['upright'],['U0137.bmp'],['male'],[[12]],['male'],[[1]],[[1.66258473]],YM
640,[[9]],[[641]],[[7]],['low holistic'],['right'],['upright'],['U0107.bmp'],['female'],[[12]],['female'],[[1]],[[0.00010016]],YM
641,[[9]],[[642]],[[16]],['high holistic'],['right'],['inverted'],['U0335.bmp'],['female'],[[8]],['male'],[[0]],[[0.00035944]],YM
642,[[9]],[[643]],[[13]],['low holistic'],['right'],['upright'],['U0181.bmp'],['male'],[[12]],['male'],[[1]],[[0.000101]],YM
643,[[9]],[[644]],[[20]],['high holistic'],['left'],['inverted'],['U0362.bmp'],['female'],[[6]],['female'],[[1]],[[0.00010161]],YM
644,[[9]],[[645]],[[6]],['high holistic'],['right'],['upright'],['U0106.bmp'],['female'],[[10]],['female'],[[1]],[[0.00010265]],YM
645,[[9]],[[646]],[[15]],['high holistic'],['left'],['inverted'],['U0312.bmp'],['male'],[[12]],['female'],[[0]],[[0.00020933]],YM
646,[[9]],[[647]],[[1]],['high holistic'],['left'],['upright'],['U0006.bmp'],['female'],[[4]],['female'],[[1]],[[0.00013314]],YM
647,[[9]],[[648]],[[11]],['high holistic'],['left'],['upright'],['U0164.bmp'],['female'],[[10]],['female'],[[1]],[[0.00011626]],YM
648,[[9]],[[649]],[[10]],['low holistic'],['right'],['inverted'],['U0159.bmp'],['female'],[[2]],['female'],[[1]],[[0.00010804]],YM
649,[[9]],[[650]],[[15]],['high holistic'],['left'],['upright'],['U0312.bmp'],['male'],[[2]],['female'],[[0]],[[0.00010619]],YM
650,[[9]],[[651]],[[5]],['low holistic'],['right'],['upright'],['U0076.bmp'],['male'],[[2]],['male'],[[1]],[[0.00220971]],YM
651,[[9]],[[652]],[[9]],['high holistic'],['right'],['inverted'],['U0155.bmp'],['female'],[[6]],['female'],[[1]],[[0.00014504]],YM
652,[[9]],[[653]],[[15]],['low holistic'],['left'],['upright'],['U0312.bmp'],['male'],[[2]],['male'],[[1]],[[9.91122797e-05]],YM
653,[[9]],[[654]],[[5]],['high holistic'],['right'],['upright'],['U0076.bmp'],['female'],[[8]],['male'],[[0]],[[0.0001002]],YM
654,[[9]],[[655]],[[20]],['low holistic'],['left'],['upright'],['U0362.bmp'],['male'],[[4]],['male'],[[1]],[[0.00031407]],YM
655,[[9]],[[656]],[[20]],['high holistic'],['right'],['upright'],['U0362.bmp'],['female'],[[8]],['female'],[[1]],[[0.00018581]],YM
656,[[9]],[[657]],[[7]],['high holistic'],['right'],['inverted'],['U0107.bmp'],['female'],[[6]],['female'],[[1]],[[0.07251058]],YM
657,[[9]],[[658]],[[6]],['low holistic'],['right'],['upright'],['U0106.bmp'],['male'],[[6]],['male'],[[1]],[[1.15735842]],YM
658,[[9]],[[659]],[[15]],['low holistic'],['right'],['inverted'],['U0312.bmp'],['male'],[[10]],['male'],[[1]],[[0.04554581]],YM
659,[[9]],[[660]],[[8]],['high holistic'],['left'],['upright'],['U0137.bmp'],['female'],[[8]],['female'],[[1]],[[0.00348393]],YM
660,[[9]],[[661]],[[18]],['high holistic'],['right'],['upright'],['U0359.bmp'],['male'],[[12]],['male'],[[1]],[[0.00015292]],YM
661,[[9]],[[662]],[[19]],['high holistic'],['left'],['upright'],['U0361.bmp'],['female'],[[12]],['female'],[[1]],[[0.0001025]],YM
662,[[9]],[[663]],[[15]],['low holistic'],['right'],['inverted'],['U0312.bmp'],['male'],[[2]],['male'],[[1]],[[1.41085375]],YM
663,[[9]],[[664]],[[10]],['low holistic'],['right'],['inverted'],['U0159.bmp'],['female'],[[10]],['female'],[[1]],[[0.01931487]],YM
664,[[9]],[[665]],[[5]],['high holistic'],['right'],['inverted'],['U0076.bmp'],['female'],[[4]],['female'],[[1]],[[0.00011836]],YM
665,[[9]],[[666]],[[14]],['high holistic'],['right'],['upright'],['U0228.bmp'],['male'],[[6]],['female'],[[0]],[[9.96664166e-05]],YM
666,[[9]],[[667]],[[1]],['low holistic'],['left'],['upright'],['U0006.bmp'],['female'],[[12]],['female'],[[1]],[[0.00010003]],YM
667,[[9]],[[668]],[[18]],['low holistic'],['left'],['upright'],['U0359.bmp'],['male'],[[10]],['female'],[[0]],[[0.00010028]],YM
668,[[9]],[[669]],[[20]],['low holistic'],['right'],['inverted'],['U0362.bmp'],['male'],[[12]],['female'],[[0]],[[9.96682793e-05]],YM
669,[[9]],[[670]],[[20]],['low holistic'],['right'],['upright'],['U0362.bmp'],['male'],[[4]],['female'],[[0]],[[0.00010757]],YM
670,[[9]],[[671]],[[15]],['low holistic'],['right'],['inverted'],['U0312.bmp'],['male'],[[10]],['female'],[[0]],[[0.00010828]],YM
671,[[9]],[[672]],[[20]],['low holistic'],['left'],['inverted'],['U0362.bmp'],['male'],[[10]],['female'],[[0]],[[0.0001073]],YM
672,[[9]],[[673]],[[1]],['high holistic'],['left'],['upright'],['U0006.bmp'],['female'],[[6]],['female'],[[1]],[[9.98545438e-05]],YM
673,[[9]],[[674]],[[4]],['low holistic'],['left'],['inverted'],['U0061.bmp'],['female'],[[4]],['female'],[[1]],[[0.00010754]],YM
674,[[9]],[[675]],[[9]],['high holistic'],['right'],['upright'],['U0155.bmp'],['female'],[[12]],['female'],[[1]],[[0.00010796]],YM
675,[[9]],[[676]],[[9]],['high holistic'],['right'],['inverted'],['U0155.bmp'],['female'],[[8]],['female'],[[1]],[[0.00010095]],YM
676,[[9]],[[677]],[[10]],['high holistic'],['right'],['inverted'],['U0159.bmp'],['male'],[[2]],['female'],[[0]],[[0.0001071]],YM
677,[[9]],[[678]],[[2]],['high holistic'],['left'],['inverted'],['U0014.bmp'],['male'],[[6]],['female'],[[0]],[[0.00010031]],YM
678,[[9]],[[679]],[[4]],['high holistic'],['right'],['upright'],['U0061.bmp'],['female'],[[4]],['female'],[[1]],[[0.00010245]],YM
679,[[9]],[[680]],[[1]],['high holistic'],['left'],['upright'],['U0006.bmp'],['female'],[[2]],['female'],[[1]],[[0.00010045]],YM
680,[[9]],[[681]],[[13]],['high holistic'],['right'],['inverted'],['U0181.bmp'],['female'],[[8]],['male'],[[0]],[[9.84268263e-05]],YM
681,[[9]],[[682]],[[18]],['high holistic'],['right'],['upright'],['U0359.bmp'],['male'],[[6]],['female'],[[0]],[[0.00010719]],YM
682,[[9]],[[683]],[[9]],['low holistic'],['right'],['upright'],['U0155.bmp'],['male'],[[6]],['male'],[[1]],[[0.00010014]],YM
683,[[9]],[[684]],[[19]],['high holistic'],['left'],['inverted'],['U0361.bmp'],['female'],[[12]],['female'],[[1]],[[0.00010766]],YM
684,[[9]],[[685]],[[15]],['high holistic'],['right'],['inverted'],['U0312.bmp'],['male'],[[6]],['female'],[[0]],[[0.00010928]],YM
685,[[9]],[[686]],[[19]],['low holistic'],['left'],['upright'],['U0361.bmp'],['female'],[[12]],['female'],[[1]],[[0.00010917]],YM
686,[[9]],[[687]],[[8]],['high holistic'],['right'],['upright'],['U0137.bmp'],['female'],[[4]],['female'],[[1]],[[9.95704904e-05]],YM
687,[[9]],[[688]],[[15]],['low holistic'],['right'],['upright'],['U0312.bmp'],['male'],[[4]],['male'],[[1]],[[0.00010032]],YM
688,[[9]],[[689]],[[19]],['low holistic'],['left'],['upright'],['U0361.bmp'],['female'],[[6]],['female'],[[1]],[[0.22459148]],YM
689,[[9]],[[690]],[[9]],['high holistic'],['right'],['upright'],['U0155.bmp'],['female'],[[8]],['female'],[[1]],[[0.00011103]],YM
690,[[9]],[[691]],[[13]],['high holistic'],['right'],['upright'],['U0181.bmp'],['female'],[[2]],['female'],[[1]],[[0.02202279]],YM
691,[[9]],[[692]],[[18]],['high holistic'],['right'],['inverted'],['U0359.bmp'],['male'],[[2]],['female'],[[0]],[[9.9346973e-05]],YM
692,[[9]],[[693]],[[7]],['low holistic'],['left'],['inverted'],['U0107.bmp'],['female'],[[2]],['female'],[[1]],[[9.8564662e-05]],YM
693,[[9]],[[694]],[[7]],['low holistic'],['right'],['inverted'],['U0107.bmp'],['female'],[[4]],['female'],[[1]],[[0.00010575]],YM
694,[[9]],[[695]],[[2]],['low holistic'],['right'],['upright'],['U0014.bmp'],['male'],[[2]],['male'],[[1]],[[0.14767403]],YM
695,[[9]],[[696]],[[15]],['high holistic'],['right'],['inverted'],['U0312.bmp'],['male'],[[4]],['male'],[[1]],[[4.63694691]],YM
696,[[9]],[[697]],[[6]],['low holistic'],['right'],['inverted'],['U0106.bmp'],['male'],[[10]],['male'],[[1]],[[0.00010214]],YM
697,[[9]],[[698]],[[4]],['high holistic'],['left'],['inverted'],['U0061.bmp'],['female'],[[8]],['male'],[[0]],[[9.87732783e-05]],YM
698,[[9]],[[699]],[[3]],['high holistic'],['right'],['upright'],['U0020.bmp'],['male'],[[8]],['male'],[[1]],[[0.00010721]],YM
699,[[9]],[[700]],[[3]],['low holistic'],['right'],['upright'],['U0020.bmp'],['female'],[[10]],['male'],[[0]],[[9.9465251e-05]],YM
700,[[9]],[[701]],[[15]],['high holistic'],['left'],['inverted'],['U0312.bmp'],['male'],[[2]],['male'],[[1]],[[0.00010709]],YM
701,[[9]],[[702]],[[3]],['high holistic'],['left'],['upright'],['U0020.bmp'],['male'],[[4]],['male'],[[1]],[[0.00010545]],YM
702,[[9]],[[703]],[[6]],['low holistic'],['left'],['upright'],['U0106.bmp'],['male'],[[8]],['male'],[[1]],[[0.00010759]],YM
703,[[9]],[[704]],[[9]],['low holistic'],['left'],['upright'],['U0155.bmp'],['male'],[[10]],['male'],[[1]],[[0.00010099]],YM
704,[[9]],[[705]],[[2]],['high holistic'],['left'],['inverted'],['U0014.bmp'],['male'],[[2]],['male'],[[1]],[[9.97679308e-05]],YM
705,[[9]],[[706]],[[14]],['low holistic'],['left'],['inverted'],['U0228.bmp'],['male'],[[2]],['male'],[[1]],[[0.04720627]],YM
706,[[9]],[[707]],[[9]],['high holistic'],['left'],['upright'],['U0155.bmp'],['female'],[[8]],['male'],[[0]],[[0.00010614]],YM
707,[[9]],[[708]],[[13]],['low holistic'],['left'],['inverted'],['U0181.bmp'],['male'],[[6]],['male'],[[1]],[[9.96980816e-05]],YM
708,[[9]],[[709]],[[19]],['low holistic'],['fovea'],['upright'],['U0361.bmp'],['female'],[[0]],['male'],[[0]],[[0.00010056]],YM
709,[[9]],[[710]],[[10]],['high holistic'],['left'],['inverted'],['U0159.bmp'],['male'],[[12]],['male'],[[1]],[[0.00010917]],YM
710,[[9]],[[711]],[[3]],['low holistic'],['right'],['inverted'],['U0020.bmp'],['female'],[[2]],['female'],[[1]],[[0.17952406]],YM
711,[[9]],[[712]],[[3]],['low holistic'],['right'],['inverted'],['U0020.bmp'],['female'],[[6]],['male'],[[0]],[[5.97163438]],YM
712,[[9]],[[713]],[[3]],['low holistic'],['right'],['upright'],['U0020.bmp'],['female'],[[10]],['male'],[[0]],[[9.91141424e-05]],YM
713,[[9]],[[714]],[[6]],['high holistic'],['right'],['inverted'],['U0106.bmp'],['female'],[[10]],['female'],[[1]],[[0.00010045]],YM
714,[[9]],[[715]],[[18]],['low holistic'],['left'],['inverted'],['U0359.bmp'],['male'],[[10]],['female'],[[0]],[[0.00010037]],YM
715,[[9]],[[716]],[[19]],['low holistic'],['left'],['inverted'],['U0361.bmp'],['female'],[[12]],['female'],[[1]],[[0.00010075]],YM
716,[[9]],[[717]],[[15]],['high holistic'],['left'],['inverted'],['U0312.bmp'],['male'],[[2]],['male'],[[1]],[[0.31625824]],YM
717,[[9]],[[718]],[[7]],['low holistic'],['right'],['inverted'],['U0107.bmp'],['female'],[[10]],['male'],[[0]],[[9.95239243e-05]],YM
718,[[9]],[[719]],[[3]],['high holistic'],['left'],['inverted'],['U0020.bmp'],['male'],[[10]],['male'],[[1]],[[0.00010791]],YM
719,[[9]],[[720]],[[1]],['high holistic'],['right'],['inverted'],['U0006.bmp'],['female'],[[2]],['male'],[[0]],[[0.00012213]],YM
720,[[9]],[[721]],[[19]],['high holistic'],['right'],['inverted'],['U0361.bmp'],['female'],[[2]],['male'],[[0]],[[0.00010035]],YM
721,[[9]],[[722]],[[6]],['low holistic'],['right'],['upright'],['U0106.bmp'],['male'],[[4]],['male'],[[1]],[[0.00015634]],YM
722,[[9]],[[723]],[[1]],['low holistic'],['left'],['inverted'],['U0006.bmp'],['female'],[[10]],['male'],[[0]],[[9.92044806e-05]],YM
723,[[9]],[[724]],[[11]],['high holistic'],['left'],['upright'],['U0164.bmp'],['female'],[[10]],['male'],[[0]],[[9.9378638e-05]],YM
724,[[9]],[[725]],[[20]],['low holistic'],['right'],['inverted'],['U0362.bmp'],['male'],[[8]],['female'],[[0]],[[0.00010692]],YM
725,[[9]],[[726]],[[17]],['low holistic'],['left'],['upright'],['U0346.bmp'],['female'],[[12]],['female'],[[1]],[[0.05842975]],YM
726,[[9]],[[727]],[[20]],['high holistic'],['left'],['inverted'],['U0362.bmp'],['female'],[[6]],['male'],[[0]],[[0.00010016]],YM
727,[[9]],[[728]],[[13]],['low holistic'],['right'],['upright'],['U0181.bmp'],['male'],[[12]],['male'],[[1]],[[0.00013688]],YM
728,[[9]],[[729]],[[9]],['low holistic'],['left'],['upright'],['U0155.bmp'],['male'],[[10]],['male'],[[1]],[[1.07999823]],YM
729,[[9]],[[730]],[[15]],['high holistic'],['right'],['upright'],['U0312.bmp'],['male'],[[4]],['male'],[[1]],[[9.91495326e-05]],YM
730,[[9]],[[731]],[[9]],['high holistic'],['right'],['inverted'],['U0155.bmp'],['female'],[[10]],['female'],[[1]],[[0.05100406]],YM
731,[[9]],[[732]],[[11]],['high holistic'],['right'],['inverted'],['U0164.bmp'],['female'],[[10]],['male'],[[0]],[[0.85668831]],YM
732,[[9]],[[733]],[[15]],['low holistic'],['fovea'],['upright'],['U0312.bmp'],['male'],[[0]],['male'],[[1]],[[1.09274142]],YM
733,[[9]],[[734]],[[4]],['high holistic'],['right'],['inverted'],['U0061.bmp'],['female'],[[8]],['female'],[[1]],[[0.0001001]],YM
734,[[9]],[[735]],[[7]],['low holistic'],['left'],['inverted'],['U0107.bmp'],['female'],[[8]],['male'],[[0]],[[1.20073588]],YM
735,[[9]],[[736]],[[2]],['low holistic'],['fovea'],['upright'],['U0014.bmp'],['male'],[[0]],['male'],[[1]],[[0.00010049]],YM
736,[[9]],[[737]],[[18]],['low holistic'],['right'],['upright'],['U0359.bmp'],['male'],[[4]],['female'],[[0]],[[0.00013175]],YM
737,[[9]],[[738]],[[6]],['low holistic'],['left'],['inverted'],['U0106.bmp'],['male'],[[6]],['female'],[[0]],[[0.00010682]],YM
738,[[9]],[[739]],[[18]],['low holistic'],['left'],['upright'],['U0359.bmp'],['male'],[[12]],['male'],[[1]],[[1.0061413]],YM
739,[[9]],[[740]],[[3]],['low holistic'],['right'],['upright'],['U0020.bmp'],['female'],[[12]],['female'],[[1]],[[0.00010064]],YM
740,[[9]],[[741]],[[1]],['low holistic'],['fovea'],['inverted'],['U0006.bmp'],['female'],[[0]],['female'],[[1]],[[0.02264201]],YM
741,[[9]],[[742]],[[9]],['high holistic'],['right'],['inverted'],['U0155.bmp'],['female'],[[8]],['male'],[[0]],[[1.0354013]],YM
742,[[9]],[[743]],[[9]],['high holistic'],['left'],['upright'],['U0155.bmp'],['female'],[[6]],['female'],[[1]],[[1.00946528]],YM
743,[[9]],[[744]],[[2]],['low holistic'],['right'],['upright'],['U0014.bmp'],['male'],[[2]],['male'],[[1]],[[0.00011843]],YM
744,[[9]],[[745]],[[16]],['high holistic'],['right'],['inverted'],['U0335.bmp'],['female'],[[4]],['female'],[[1]],[[0.00010106]],YM
745,[[9]],[[746]],[[15]],['high holistic'],['right'],['inverted'],['U0312.bmp'],['male'],[[12]],['female'],[[0]],[[0.00021796]],YM
746,[[9]],[[747]],[[14]],['high holistic'],['right'],['inverted'],['U0228.bmp'],['male'],[[8]],['female'],[[0]],[[9.78000462e-05]],YM
747,[[9]],[[748]],[[18]],['high holistic'],['fovea'],['inverted'],['U0359.bmp'],['male'],[[0]],['male'],[[1]],[[0.79086536]],YM
748,[[9]],[[749]],[[15]],['low holistic'],['fovea'],['inverted'],['U0312.bmp'],['male'],[[0]],['male'],[[1]],[[1.0956264]],YM
749,[[9]],[[750]],[[8]],['low holistic'],['left'],['inverted'],['U0137.bmp'],['male'],[[8]],['female'],[[0]],[[1.52388891]],YM
750,[[9]],[[751]],[[19]],['low holistic'],['left'],['upright'],['U0361.bmp'],['female'],[[6]],['female'],[[1]],[[0.00013403]],YM
751,[[9]],[[752]],[[8]],['low holistic'],['left'],['upright'],['U0137.bmp'],['male'],[[12]],['male'],[[1]],[[0.00010048]],YM
752,[[9]],[[753]],[[2]],['high holistic'],['right'],['inverted'],['U0014.bmp'],['male'],[[6]],['female'],[[0]],[[0.00010316]],YM
753,[[9]],[[754]],[[18]],['high holistic'],['right'],['upright'],['U0359.bmp'],['male'],[[8]],['male'],[[1]],[[0.00010132]],YM
754,[[9]],[[755]],[[11]],['high holistic'],['left'],['inverted'],['U0164.bmp'],['female'],[[12]],['male'],[[0]],[[0.00017339]],YM
755,[[9]],[[756]],[[12]],['low holistic'],['left'],['upright'],['U0178.bmp'],['female'],[[4]],['female'],[[1]],[[0.18788641]],YM
756,[[9]],[[757]],[[10]],['high holistic'],['right'],['inverted'],['U0159.bmp'],['male'],[[12]],['male'],[[1]],[[9.9344179e-05]],YM
757,[[9]],[[758]],[[17]],['high holistic'],['left'],['upright'],['U0346.bmp'],['male'],[[8]],['male'],[[1]],[[0.00036712]],YM
758,[[9]],[[759]],[[5]],['low holistic'],['left'],['inverted'],['U0076.bmp'],['male'],[[6]],['male'],[[1]],[[0.03570282]],YM
759,[[9]],[[760]],[[2]],['high holistic'],['left'],['upright'],['U0014.bmp'],['male'],[[10]],['male'],[[1]],[[1.48892495]],YM
760,[[9]],[[761]],[[20]],['low holistic'],['right'],['upright'],['U0362.bmp'],['male'],[[10]],['male'],[[1]],[[0.00010102]],YM
761,[[9]],[[762]],[[10]],['high holistic'],['left'],['inverted'],['U0159.bmp'],['male'],[[2]],['male'],[[1]],[[9.89874825e-05]],YM
762,[[9]],[[763]],[[19]],['high holistic'],['right'],['inverted'],['U0361.bmp'],['female'],[[6]],['male'],[[0]],[[0.00015288]],YM
763,[[9]],[[764]],[[7]],['low holistic'],['right'],['inverted'],['U0107.bmp'],['female'],[[6]],['male'],[[0]],[[0.0001067]],YM
764,[[9]],[[765]],[[18]],['low holistic'],['right'],['upright'],['U0359.bmp'],['male'],[[12]],['male'],[[1]],[[9.94009897e-05]],YM
765,[[9]],[[766]],[[17]],['high holistic'],['left'],['inverted'],['U0346.bmp'],['male'],[[6]],['male'],[[1]],[[0.00010062]],YM
766,[[9]],[[767]],[[19]],['low holistic'],['right'],['upright'],['U0361.bmp'],['female'],[[8]],['male'],[[0]],[[0.0001005]],YM
767,[[9]],[[768]],[[5]],['high holistic'],['left'],['inverted'],['U0076.bmp'],['female'],[[4]],['male'],[[0]],[[0.00010052]],YM
768,[[9]],[[769]],[[4]],['low holistic'],['left'],['upright'],['U0061.bmp'],['female'],[[2]],['male'],[[0]],[[0.00010745]],YM
769,[[9]],[[770]],[[14]],['high holistic'],['left'],['inverted'],['U0228.bmp'],['male'],[[6]],['male'],[[1]],[[9.76957381e-05]],YM
770,[[9]],[[771]],[[11]],['low holistic'],['left'],['upright'],['U0164.bmp'],['female'],[[4]],['male'],[[0]],[[9.99476761e-05]],YM
771,[[9]],[[772]],[[2]],['low holistic'],['right'],['inverted'],['U0014.bmp'],['male'],[[2]],['male'],[[1]],[[9.95844603e-05]],YM
772,[[9]],[[773]],[[7]],['high holistic'],['right'],['inverted'],['U0107.bmp'],['female'],[[10]],['male'],[[0]],[[0.00010853]],YM
773,[[9]],[[774]],[[8]],['high holistic'],['left'],['inverted'],['U0137.bmp'],['female'],[[12]],['male'],[[0]],[[9.97120515e-05]],YM
774,[[9]],[[775]],[[6]],['high holistic'],['left'],['upright'],['U0106.bmp'],['female'],[[10]],['male'],[[0]],[[0.00010722]],YM
775,[[9]],[[776]],[[12]],['low holistic'],['right'],['upright'],['U0178.bmp'],['female'],[[10]],['male'],[[0]],[[9.98703763e-05]],YM
