,SUBID,TRIAL,MOONEYID,MOONEYCATEGORY,LOC,COND,MOONEY_NAME,MOONEY_GENDER,ECCENTRICITY,RESPONSE,ACCURACY,RT,SUBINIT,ECC_PLOT,ECC_PLOT_ABS
0,17,1,4,high holistic,left,upright,U0061.bmp,female,12,male,0,0.0004228837788105011,AG,-6.0,6.0
1,17,2,17,low holistic,right,upright,U0346.bmp,female,4,male,0,5.510411096736789,AG,2.0,2.0
2,17,3,6,low holistic,left,inverted,U0106.bmp,male,12,male,1,0.00016646459698677063,AG,-6.0,6.0
3,17,4,8,low holistic,right,upright,U0137.bmp,male,2,male,1,0.0001003611832857132,AG,1.0,1.0
4,17,5,18,low holistic,left,inverted,U0359.bmp,male,6,male,1,6.347243322059512,AG,-3.0,3.0
5,17,6,17,high holistic,fovea,inverted,U0346.bmp,male,0,male,1,0.00010012462735176086,AG,0.0,0.0
6,17,7,1,high holistic,right,inverted,U0006.bmp,female,12,female,1,8.967027997598052,AG,6.0,6.0
7,17,8,20,low holistic,right,upright,U0362.bmp,male,10,female,0,0.00012156926095485687,AG,5.0,5.0
8,17,9,17,low holistic,right,inverted,U0346.bmp,female,2,female,1,0.007324278354644775,AG,1.0,1.0
9,17,10,9,low holistic,left,inverted,U0155.bmp,male,12,female,0,0.03139203041791916,AG,-6.0,6.0
10,17,11,18,high holistic,right,upright,U0359.bmp,male,10,male,1,0.054744159802794456,AG,5.0,5.0
11,17,12,4,low holistic,fovea,upright,U0061.bmp,female,0,female,1,0.0003678910434246063,AG,0.0,0.0
12,17,13,7,low holistic,left,inverted,U0107.bmp,female,8,male,0,0.0001003611832857132,AG,-4.0,4.0
13,17,14,10,low holistic,right,inverted,U0159.bmp,female,12,male,0,9.816326200962067e-05,AG,6.0,6.0
14,17,15,14,low holistic,right,inverted,U0228.bmp,male,2,male,1,0.00017034076154232025,AG,1.0,1.0
15,17,16,8,high holistic,left,upright,U0137.bmp,female,6,male,0,0.00011371448636054993,AG,-3.0,3.0
16,17,17,7,low holistic,right,inverted,U0107.bmp,female,2,female,1,0.011672642081975937,AG,1.0,1.0
17,17,18,4,low holistic,right,upright,U0061.bmp,female,2,female,1,12.64344452880323,AG,1.0,1.0
18,17,19,3,high holistic,right,upright,U0020.bmp,male,8,male,1,0.20915559865534306,AG,4.0,4.0
19,17,20,18,low holistic,right,inverted,U0359.bmp,male,12,female,0,0.0001071002334356308,AG,6.0,6.0
20,17,21,18,high holistic,right,inverted,U0359.bmp,male,8,female,0,0.0005648434162139893,AG,4.0,4.0
21,17,22,4,low holistic,left,upright,U0061.bmp,female,6,male,0,0.00010087527334690094,AG,-3.0,3.0
22,17,23,14,low holistic,fovea,upright,U0228.bmp,male,0,female,0,0.00010016746819019318,AG,0.0,0.0
23,17,24,5,high holistic,left,inverted,U0076.bmp,female,10,female,1,1.6979201920330524,AG,-5.0,5.0
24,17,25,16,high holistic,left,inverted,U0335.bmp,female,8,female,1,0.3014648798853159,AG,-4.0,4.0
25,17,26,10,low holistic,right,upright,U0159.bmp,female,10,female,1,0.00021595321595668793,AG,5.0,5.0
26,17,27,20,high holistic,left,inverted,U0362.bmp,female,6,female,1,0.5061681903898716,AG,-3.0,3.0
27,17,28,8,high holistic,left,upright,U0137.bmp,female,10,female,1,0.22261500917375088,AG,-5.0,5.0
28,17,29,9,low holistic,right,upright,U0155.bmp,male,12,male,1,0.014457756653428078,AG,6.0,6.0
29,17,30,10,high holistic,left,upright,U0159.bmp,male,4,male,1,9.952113032341003e-05,AG,-2.0,2.0
30,17,31,7,low holistic,right,upright,U0107.bmp,female,8,female,1,0.00019877590239048004,AG,4.0,4.0
31,17,32,10,low holistic,left,inverted,U0159.bmp,female,12,male,0,0.04538120701909065,AG,-6.0,6.0
32,17,33,10,low holistic,right,upright,U0159.bmp,female,4,female,1,0.00010835565626621246,AG,2.0,2.0
33,17,34,12,high holistic,right,inverted,U0178.bmp,male,8,male,1,0.25245889090001583,AG,4.0,4.0
34,17,35,11,low holistic,left,upright,U0164.bmp,female,6,female,1,0.0003260914236307144,AG,-3.0,3.0
35,17,36,20,low holistic,right,upright,U0362.bmp,male,2,male,1,0.00010771676898002625,AG,1.0,1.0
36,17,37,16,low holistic,right,upright,U0335.bmp,female,10,female,1,0.0001105479896068573,AG,5.0,5.0
37,17,38,16,low holistic,right,inverted,U0335.bmp,female,8,female,1,0.02751213125884533,AG,4.0,4.0
38,17,39,16,high holistic,left,inverted,U0335.bmp,female,12,female,1,0.48132883198559284,AG,-6.0,6.0
39,17,40,6,low holistic,right,upright,U0106.bmp,male,8,male,1,0.10977458395063877,AG,4.0,4.0
40,17,41,7,low holistic,right,upright,U0107.bmp,female,10,female,1,0.00012133084237575531,AG,5.0,5.0
41,17,42,2,high holistic,left,upright,U0014.bmp,male,6,male,1,0.0003919992595911026,AG,-3.0,3.0
42,17,43,19,low holistic,left,upright,U0361.bmp,female,4,female,1,0.00010012276470661163,AG,-2.0,2.0
43,17,44,2,high holistic,left,upright,U0014.bmp,male,8,male,1,0.00038870610296726227,AG,-4.0,4.0
44,17,45,18,high holistic,left,upright,U0359.bmp,male,4,male,1,0.10599852725863457,AG,-2.0,2.0
45,17,46,8,high holistic,left,inverted,U0137.bmp,female,2,female,1,0.3817566931247711,AG,-1.0,1.0
46,17,47,12,low holistic,right,upright,U0178.bmp,female,4,female,1,0.00011425651609897614,AG,2.0,2.0
47,17,48,9,high holistic,left,inverted,U0155.bmp,female,10,female,1,0.0001084841787815094,AG,-5.0,5.0
48,17,49,15,high holistic,left,inverted,U0312.bmp,male,6,female,0,0.04728418029844761,AG,-3.0,3.0
49,17,50,2,low holistic,left,upright,U0014.bmp,male,4,male,1,0.0003238115459680557,AG,-2.0,2.0
50,17,51,6,low holistic,left,upright,U0106.bmp,male,6,female,0,0.00010867230594158173,AG,-3.0,3.0
51,17,52,2,high holistic,right,upright,U0014.bmp,male,4,male,1,0.00010588020086288452,AG,2.0,2.0
52,17,53,1,high holistic,left,inverted,U0006.bmp,female,4,female,1,6.0761733669787645,AG,-2.0,2.0
53,17,54,4,high holistic,left,inverted,U0061.bmp,female,4,female,1,9.843893349170685e-05,AG,-2.0,2.0
54,17,55,1,high holistic,fovea,inverted,U0006.bmp,female,0,female,1,0.0009159836918115616,AG,0.0,0.0
55,17,56,17,high holistic,left,inverted,U0346.bmp,male,4,female,0,2.4810829646885395,AG,-2.0,2.0
56,17,57,2,high holistic,right,inverted,U0014.bmp,male,4,female,0,0.0004766024649143219,AG,2.0,2.0
57,17,58,1,low holistic,right,inverted,U0006.bmp,female,6,male,0,0.00010587088763713837,AG,3.0,3.0
58,17,59,19,high holistic,left,upright,U0361.bmp,female,2,male,0,0.04634413681924343,AG,-1.0,1.0
59,17,60,9,low holistic,right,upright,U0155.bmp,male,6,male,1,1.5012935120612383,AG,3.0,3.0
60,17,61,7,low holistic,left,upright,U0107.bmp,female,8,female,1,0.00010062195360660553,AG,-4.0,4.0
61,17,62,17,high holistic,right,inverted,U0346.bmp,male,10,male,1,0.00012060999870300293,AG,5.0,5.0
62,17,63,13,low holistic,right,inverted,U0181.bmp,male,2,female,0,0.00011148862540721893,AG,1.0,1.0
63,17,64,2,high holistic,right,inverted,U0014.bmp,male,6,male,1,8.048232719302177,AG,3.0,3.0
64,17,65,12,high holistic,left,upright,U0178.bmp,male,10,female,0,0.00010726973414421082,AG,-5.0,5.0
65,17,66,1,high holistic,left,upright,U0006.bmp,female,12,female,1,0.00010034255683422089,AG,-6.0,6.0
66,17,67,1,low holistic,left,upright,U0006.bmp,female,12,male,0,0.1418962124735117,AG,-6.0,6.0
67,17,68,14,low holistic,right,inverted,U0228.bmp,male,6,male,1,0.0003460198640823364,AG,3.0,3.0
68,17,69,5,high holistic,right,upright,U0076.bmp,female,6,male,0,0.8897921219468117,AG,3.0,3.0
69,17,70,10,low holistic,left,upright,U0159.bmp,female,8,female,1,0.00010002963244915009,AG,-4.0,4.0
70,17,71,3,low holistic,right,inverted,U0020.bmp,female,4,female,1,0.00025162287056446075,AG,2.0,2.0
71,17,72,8,high holistic,left,inverted,U0137.bmp,female,8,male,0,0.0001157466322183609,AG,-4.0,4.0
72,17,73,11,high holistic,left,upright,U0164.bmp,female,4,male,0,0.00010042451322078705,AG,-2.0,2.0
73,17,74,8,low holistic,right,inverted,U0137.bmp,male,4,male,1,2.9985787328332663,AG,2.0,2.0
74,17,75,7,high holistic,left,inverted,U0107.bmp,female,2,female,1,0.00011278688907623291,AG,-1.0,1.0
75,17,76,16,high holistic,left,inverted,U0335.bmp,female,8,male,0,3.628317279741168,AG,-4.0,4.0
76,17,77,14,high holistic,left,inverted,U0228.bmp,male,12,male,1,0.7636357266455889,AG,-6.0,6.0
77,17,78,18,high holistic,right,inverted,U0359.bmp,male,6,male,1,0.00010016933083534241,AG,3.0,3.0
78,17,79,19,high holistic,left,upright,U0361.bmp,female,2,male,0,5.542748602107167,AG,-1.0,1.0
79,17,80,9,low holistic,left,inverted,U0155.bmp,male,8,female,0,0.00010035000741481781,AG,-4.0,4.0
80,17,81,13,high holistic,left,upright,U0181.bmp,female,2,male,0,4.318698177114129,AG,-1.0,1.0
81,17,82,12,high holistic,fovea,upright,U0178.bmp,male,0,male,1,0.00010819174349308014,AG,0.0,0.0
82,17,83,4,high holistic,left,upright,U0061.bmp,female,12,female,1,0.354813065379858,AG,-6.0,6.0
83,17,84,11,low holistic,left,inverted,U0164.bmp,female,2,female,1,0.0001835152506828308,AG,-1.0,1.0
84,17,85,17,low holistic,right,upright,U0346.bmp,female,10,female,1,0.0001591108739376068,AG,5.0,5.0
85,17,86,15,low holistic,left,inverted,U0312.bmp,male,8,male,1,0.0003667213022708893,AG,-4.0,4.0
86,17,87,4,high holistic,left,upright,U0061.bmp,female,10,female,1,0.14823433011770248,AG,-5.0,5.0
87,17,88,19,low holistic,right,upright,U0361.bmp,female,10,female,1,0.00011511892080307007,AG,5.0,5.0
88,17,89,17,high holistic,left,upright,U0346.bmp,male,4,male,1,0.00010058470070362091,AG,-2.0,2.0
89,17,90,5,low holistic,left,inverted,U0076.bmp,male,12,male,1,0.06341154128313065,AG,-6.0,6.0
90,17,91,10,low holistic,left,inverted,U0159.bmp,female,8,female,1,0.004132064059376717,AG,-4.0,4.0
91,17,92,15,high holistic,right,inverted,U0312.bmp,male,2,male,1,0.27730497904121876,AG,1.0,1.0
92,17,93,19,high holistic,right,inverted,U0361.bmp,female,6,female,1,0.032460007816553116,AG,3.0,3.0
93,17,94,13,high holistic,left,upright,U0181.bmp,female,8,female,1,9.861588478088379e-05,AG,-4.0,4.0
94,17,95,18,low holistic,left,upright,U0359.bmp,male,6,female,0,7.055760391056538,AG,-3.0,3.0
95,17,96,7,low holistic,left,upright,U0107.bmp,female,10,female,1,9.956024587154388e-05,AG,-5.0,5.0
96,17,97,2,high holistic,right,inverted,U0014.bmp,male,10,female,0,0.9095128588378429,AG,5.0,5.0
97,17,98,14,high holistic,left,inverted,U0228.bmp,male,12,female,0,1.0730570796877146,AG,-6.0,6.0
98,17,99,20,low holistic,right,upright,U0362.bmp,male,2,female,0,0.0001063961535692215,AG,1.0,1.0
99,17,100,11,low holistic,left,upright,U0164.bmp,female,4,female,1,0.00010089762508869171,AG,-2.0,2.0
100,17,101,12,low holistic,fovea,inverted,U0178.bmp,female,0,male,0,0.9519111290574074,AG,0.0,0.0
101,17,102,13,high holistic,left,upright,U0181.bmp,female,6,female,1,1.5772135760635138,AG,-3.0,3.0
102,17,103,17,high holistic,right,inverted,U0346.bmp,male,4,male,1,0.12853526137769222,AG,2.0,2.0
103,17,104,5,low holistic,right,upright,U0076.bmp,male,2,female,0,9.60306341946125,AG,1.0,1.0
104,17,105,6,low holistic,left,inverted,U0106.bmp,male,8,male,1,9.882822632789612e-05,AG,-4.0,4.0
105,17,106,1,low holistic,fovea,upright,U0006.bmp,female,0,female,1,0.17114497907459736,AG,0.0,0.0
106,17,107,14,low holistic,left,inverted,U0228.bmp,male,10,male,1,0.17225470952689648,AG,-5.0,5.0
107,17,108,12,low holistic,right,inverted,U0178.bmp,female,4,female,1,0.004601143300533295,AG,2.0,2.0
108,17,109,8,high holistic,right,upright,U0137.bmp,female,4,male,0,0.0844308789819479,AG,2.0,2.0
109,17,110,10,high holistic,left,inverted,U0159.bmp,male,6,female,0,0.6357640270143747,AG,-3.0,3.0
110,17,111,15,low holistic,right,inverted,U0312.bmp,male,4,male,1,0.00010664388537406921,AG,2.0,2.0
111,17,112,11,low holistic,left,upright,U0164.bmp,female,12,male,0,0.00012856163084506989,AG,-6.0,6.0
112,17,113,18,low holistic,left,inverted,U0359.bmp,male,10,male,1,0.00010030902922153473,AG,-5.0,5.0
113,17,114,4,low holistic,left,upright,U0061.bmp,female,8,female,1,0.00010606646537780762,AG,-4.0,4.0
114,17,115,2,low holistic,left,inverted,U0014.bmp,male,2,female,0,0.023593487218022346,AG,-1.0,1.0
115,17,116,13,low holistic,right,upright,U0181.bmp,male,6,female,0,9.718723595142365e-05,AG,3.0,3.0
116,17,117,17,low holistic,left,inverted,U0346.bmp,female,10,male,0,0.05523069389164448,AG,-5.0,5.0
117,17,118,19,low holistic,right,inverted,U0361.bmp,female,2,male,0,0.11857038363814354,AG,1.0,1.0
118,17,119,14,high holistic,right,inverted,U0228.bmp,male,2,male,1,1.2409637607634068,AG,1.0,1.0
119,17,120,6,low holistic,left,inverted,U0106.bmp,male,6,female,0,0.07111331820487976,AG,-3.0,3.0
120,17,121,5,low holistic,left,inverted,U0076.bmp,male,12,female,0,0.020010927692055702,AG,-6.0,6.0
121,17,122,7,low holistic,right,upright,U0107.bmp,female,8,male,0,0.3156278170645237,AG,4.0,4.0
122,17,123,7,low holistic,left,inverted,U0107.bmp,female,10,female,1,0.07033361494541168,AG,-5.0,5.0
123,17,124,20,low holistic,left,inverted,U0362.bmp,male,2,male,1,0.00010026432573795319,AG,-1.0,1.0
124,17,125,2,high holistic,right,upright,U0014.bmp,male,4,female,0,0.5081402193754911,AG,2.0,2.0
125,17,126,7,low holistic,right,inverted,U0107.bmp,female,4,male,0,0.04719734564423561,AG,2.0,2.0
126,17,127,6,high holistic,right,upright,U0106.bmp,female,4,female,1,0.10941087268292904,AG,2.0,2.0
127,17,128,6,low holistic,right,upright,U0106.bmp,male,8,male,1,0.0004155784845352173,AG,4.0,4.0
128,17,129,13,low holistic,fovea,inverted,U0181.bmp,male,0,male,1,0.6907319538295269,AG,0.0,0.0
129,17,130,12,high holistic,right,upright,U0178.bmp,male,12,male,1,0.11061198078095913,AG,6.0,6.0
130,17,131,1,low holistic,left,upright,U0006.bmp,female,10,female,1,0.53956707008183,AG,-5.0,5.0
131,17,132,20,high holistic,right,upright,U0362.bmp,female,4,male,0,0.18353062868118286,AG,2.0,2.0
132,17,133,8,high holistic,left,upright,U0137.bmp,female,2,male,0,0.3038829155266285,AG,-1.0,1.0
133,17,134,16,high holistic,left,upright,U0335.bmp,female,12,male,0,0.00010067038238048553,AG,-6.0,6.0
134,17,135,9,low holistic,right,upright,U0155.bmp,male,8,female,0,0.16888810880482197,AG,4.0,4.0
135,17,136,20,high holistic,left,inverted,U0362.bmp,female,12,female,1,0.00010000728070735931,AG,-6.0,6.0
136,17,137,18,low holistic,right,inverted,U0359.bmp,male,10,female,0,9.941868484020233e-05,AG,5.0,5.0
137,17,138,18,low holistic,right,upright,U0359.bmp,male,12,female,0,0.35196077078580856,AG,6.0,6.0
138,17,139,3,low holistic,right,upright,U0020.bmp,female,12,female,1,9.992159903049469e-05,AG,6.0,6.0
139,17,140,16,low holistic,fovea,inverted,U0335.bmp,female,0,male,0,0.1469990834593773,AG,0.0,0.0
140,17,141,6,high holistic,right,inverted,U0106.bmp,female,2,female,1,9.970925748348236e-05,AG,1.0,1.0
141,17,142,17,high holistic,right,inverted,U0346.bmp,male,6,male,1,0.22099190205335617,AG,3.0,3.0
142,17,143,18,high holistic,left,inverted,U0359.bmp,male,10,male,1,0.16315883584320545,AG,-5.0,5.0
143,17,144,17,low holistic,fovea,inverted,U0346.bmp,female,0,female,1,0.00010176561772823334,AG,0.0,0.0
144,17,145,1,low holistic,fovea,upright,U0006.bmp,female,0,male,0,0.00010117515921592712,AG,0.0,0.0
145,17,146,10,low holistic,right,upright,U0159.bmp,female,10,male,0,0.3801740314811468,AG,5.0,5.0
146,17,147,13,low holistic,right,upright,U0181.bmp,male,8,male,1,0.00023820623755455017,AG,4.0,4.0
147,17,148,1,high holistic,right,inverted,U0006.bmp,female,12,female,1,0.5671922639012337,AG,6.0,6.0
148,17,149,9,high holistic,right,inverted,U0155.bmp,female,10,male,0,0.10266985185444355,AG,5.0,5.0
149,17,150,3,low holistic,left,inverted,U0020.bmp,female,12,male,0,0.06779042445123196,AG,-6.0,6.0
150,17,151,15,low holistic,right,upright,U0312.bmp,male,8,female,0,0.00010110810399055481,AG,4.0,4.0
151,17,152,14,high holistic,right,inverted,U0228.bmp,male,6,male,1,0.0001091640442609787,AG,3.0,3.0
152,17,153,15,low holistic,left,upright,U0312.bmp,male,10,female,0,0.11310471594333649,AG,-5.0,5.0
153,17,154,20,low holistic,right,inverted,U0362.bmp,male,4,male,1,0.00013792701065540314,AG,2.0,2.0
154,17,155,19,high holistic,right,inverted,U0361.bmp,female,12,female,1,0.0001066252589225769,AG,6.0,6.0
155,17,156,3,low holistic,right,upright,U0020.bmp,female,4,female,1,0.20387383736670017,AG,2.0,2.0
156,17,157,16,low holistic,right,upright,U0335.bmp,female,10,female,1,0.00010034628212451935,AG,5.0,5.0
157,17,158,18,low holistic,right,upright,U0359.bmp,male,12,male,1,0.00010666996240615845,AG,6.0,6.0
158,17,159,8,high holistic,left,upright,U0137.bmp,female,4,female,1,0.0003333538770675659,AG,-2.0,2.0
159,17,160,13,high holistic,left,upright,U0181.bmp,female,4,female,1,0.00010030530393123627,AG,-2.0,2.0
160,17,161,20,high holistic,right,inverted,U0362.bmp,female,6,male,0,0.00010598450899124146,AG,3.0,3.0
161,17,162,15,high holistic,left,upright,U0312.bmp,male,8,female,0,0.10100015811622143,AG,-4.0,4.0
162,17,163,8,low holistic,left,upright,U0137.bmp,male,8,male,1,9.978003799915314e-05,AG,-4.0,4.0
163,17,164,4,low holistic,left,upright,U0061.bmp,female,2,male,0,9.996630251407623e-05,AG,-1.0,1.0
164,17,165,9,low holistic,left,inverted,U0155.bmp,male,6,female,0,0.12035674601793289,AG,-3.0,3.0
165,17,166,13,high holistic,right,inverted,U0181.bmp,female,8,female,1,0.00011068582534790039,AG,4.0,4.0
166,17,167,8,low holistic,left,upright,U0137.bmp,male,2,male,1,0.5394541434943676,AG,-1.0,1.0
167,17,168,1,high holistic,right,inverted,U0006.bmp,female,4,male,0,0.31713995337486267,AG,2.0,2.0
168,17,169,2,low holistic,right,inverted,U0014.bmp,male,12,female,0,7.4247325118631124,AG,6.0,6.0
169,17,170,9,high holistic,right,upright,U0155.bmp,female,4,male,0,9.997934103012085e-05,AG,2.0,2.0
170,17,171,20,high holistic,right,inverted,U0362.bmp,female,2,male,0,0.00010089762508869171,AG,1.0,1.0
171,17,172,14,low holistic,left,inverted,U0228.bmp,male,8,female,0,0.06345277652144432,AG,-4.0,4.0
172,17,173,12,low holistic,right,upright,U0178.bmp,female,2,female,1,9.953416883945465e-05,AG,1.0,1.0
173,17,174,20,low holistic,left,inverted,U0362.bmp,male,12,female,0,0.0001022685319185257,AG,-6.0,6.0
174,17,175,9,low holistic,right,inverted,U0155.bmp,male,6,female,0,0.00010767579078674316,AG,3.0,3.0
175,17,176,16,low holistic,left,inverted,U0335.bmp,female,4,female,1,0.00010113418102264404,AG,-2.0,2.0
176,17,177,5,high holistic,left,upright,U0076.bmp,female,6,female,1,9.95974987745285e-05,AG,-3.0,3.0
177,17,178,10,low holistic,left,inverted,U0159.bmp,female,8,male,0,0.6063610333949327,AG,-4.0,4.0
178,17,179,19,low holistic,left,inverted,U0361.bmp,female,6,male,0,2.853169199079275,AG,-3.0,3.0
179,17,180,20,high holistic,left,inverted,U0362.bmp,female,2,male,0,1.1308691762387753,AG,-1.0,1.0
180,17,181,16,high holistic,right,inverted,U0335.bmp,female,6,male,0,0.07740690745413303,AG,3.0,3.0
181,17,182,1,high holistic,left,upright,U0006.bmp,female,2,male,0,0.03415941260755062,AG,-1.0,1.0
182,17,183,14,high holistic,right,inverted,U0228.bmp,male,4,female,0,0.1296885460615158,AG,2.0,2.0
183,17,184,20,high holistic,right,inverted,U0362.bmp,female,8,male,0,9.841099381446838e-05,AG,4.0,4.0
184,17,185,4,low holistic,right,inverted,U0061.bmp,female,10,female,1,0.34843500331044197,AG,5.0,5.0
185,17,186,19,low holistic,left,inverted,U0361.bmp,female,8,female,1,0.21497770212590694,AG,-4.0,4.0
186,17,187,18,high holistic,right,upright,U0359.bmp,male,12,female,0,0.00010009109973907471,AG,6.0,6.0
187,17,188,13,high holistic,right,inverted,U0181.bmp,female,4,male,0,3.5168663524091244,AG,2.0,2.0
188,17,189,14,low holistic,right,upright,U0228.bmp,male,12,male,1,0.9054885655641556,AG,6.0,6.0
189,17,190,19,low holistic,left,upright,U0361.bmp,female,12,female,1,1.1555968690663576,AG,-6.0,6.0
190,17,191,1,high holistic,left,inverted,U0006.bmp,female,8,male,0,0.0001069195568561554,AG,-4.0,4.0
191,17,192,12,low holistic,right,upright,U0178.bmp,female,4,male,0,0.2527812849730253,AG,2.0,2.0
192,17,193,18,high holistic,right,upright,U0359.bmp,male,8,male,1,0.307310501113534,AG,4.0,4.0
193,17,194,12,high holistic,left,upright,U0178.bmp,male,4,male,1,0.7437695804983377,AG,-2.0,2.0
194,17,195,3,high holistic,right,upright,U0020.bmp,male,12,male,1,0.37707867845892906,AG,6.0,6.0
195,17,196,4,high holistic,right,inverted,U0061.bmp,female,4,male,0,0.06039302237331867,AG,2.0,2.0
196,17,197,12,low holistic,left,inverted,U0178.bmp,female,8,male,0,2.554001936689019,AG,-4.0,4.0
197,17,198,6,low holistic,right,upright,U0106.bmp,male,10,male,1,0.9623494613915682,AG,5.0,5.0
198,17,199,7,high holistic,right,upright,U0107.bmp,female,10,female,1,0.15484215132892132,AG,5.0,5.0
199,17,200,7,high holistic,left,inverted,U0107.bmp,female,4,male,0,0.38280532322824,AG,-2.0,2.0
200,17,201,17,low holistic,right,inverted,U0346.bmp,female,2,female,1,0.00010677613317966461,AG,1.0,1.0
201,17,202,20,low holistic,right,upright,U0362.bmp,male,8,female,0,1.2068878337740898,AG,4.0,4.0
202,17,203,14,low holistic,right,inverted,U0228.bmp,male,12,female,0,0.20691345259547234,AG,6.0,6.0
203,17,204,4,high holistic,left,inverted,U0061.bmp,female,4,male,0,0.00010083243250846863,AG,-2.0,2.0
204,17,205,12,low holistic,left,inverted,U0178.bmp,female,4,male,0,0.0001001264899969101,AG,-2.0,2.0
205,17,206,9,high holistic,right,inverted,U0155.bmp,female,6,male,0,0.38988218642771244,AG,3.0,3.0
206,17,207,12,low holistic,left,inverted,U0178.bmp,female,4,male,0,0.41415627487003803,AG,-2.0,2.0
207,17,208,18,low holistic,left,upright,U0359.bmp,male,2,female,0,0.10124853067100048,AG,-1.0,1.0
208,17,209,4,low holistic,right,inverted,U0061.bmp,female,4,male,0,0.0001009628176689148,AG,2.0,2.0
209,17,210,14,low holistic,fovea,inverted,U0228.bmp,male,0,male,1,0.00010020099580287933,AG,0.0,0.0
210,17,211,13,low holistic,right,inverted,U0181.bmp,male,6,male,1,0.10402730479836464,AG,3.0,3.0
211,17,212,2,low holistic,right,inverted,U0014.bmp,male,6,female,0,0.00010000541806221008,AG,3.0,3.0
212,17,213,4,low holistic,left,upright,U0061.bmp,female,10,female,1,0.00010850094258785248,AG,-5.0,5.0
213,17,214,4,high holistic,right,upright,U0061.bmp,female,10,female,1,9.955465793609619e-05,AG,5.0,5.0
214,17,215,19,high holistic,right,upright,U0361.bmp,female,8,female,1,9.95434820652008e-05,AG,4.0,4.0
215,17,216,2,low holistic,left,inverted,U0014.bmp,male,4,female,0,2.029997855424881,AG,-2.0,2.0
216,17,217,14,low holistic,right,inverted,U0228.bmp,male,12,female,0,0.0001002289354801178,AG,6.0,6.0
217,17,218,6,low holistic,right,upright,U0106.bmp,male,12,male,1,0.012523725628852844,AG,6.0,6.0
218,17,219,20,high holistic,left,inverted,U0362.bmp,female,8,female,1,0.395415585488081,AG,-4.0,4.0
219,17,220,17,low holistic,left,inverted,U0346.bmp,female,6,female,1,0.06011930666863918,AG,-3.0,3.0
220,17,221,7,high holistic,left,upright,U0107.bmp,female,6,female,1,0.00011279061436653137,AG,-3.0,3.0
221,17,222,10,high holistic,left,upright,U0159.bmp,male,10,male,1,0.00010635517537593842,AG,-5.0,5.0
222,17,223,5,low holistic,left,upright,U0076.bmp,male,2,male,1,0.000109037384390831,AG,-1.0,1.0
223,17,224,17,low holistic,left,upright,U0346.bmp,female,2,female,1,0.4168182797729969,AG,-1.0,1.0
224,17,225,7,low holistic,right,upright,U0107.bmp,female,12,male,0,0.03225474990904331,AG,6.0,6.0
225,17,226,7,low holistic,right,inverted,U0107.bmp,female,2,female,1,0.21453246660530567,AG,1.0,1.0
226,17,227,8,high holistic,right,inverted,U0137.bmp,female,8,female,1,8.549160148948431,AG,4.0,4.0
227,17,228,8,low holistic,left,upright,U0137.bmp,male,10,male,1,0.0409876424819231,AG,-5.0,5.0
228,17,229,14,low holistic,right,inverted,U0228.bmp,male,2,male,1,0.00016189739108085632,AG,1.0,1.0
229,17,230,13,low holistic,right,inverted,U0181.bmp,male,10,female,0,0.00010120123624801636,AG,5.0,5.0
230,17,231,4,high holistic,left,upright,U0061.bmp,female,4,male,0,0.00010770931839942932,AG,-2.0,2.0
231,17,232,9,low holistic,right,inverted,U0155.bmp,male,6,female,0,0.00010757148265838623,AG,3.0,3.0
232,17,233,13,high holistic,right,inverted,U0181.bmp,female,4,female,1,0.00013193488121032715,AG,2.0,2.0
233,17,234,20,high holistic,right,upright,U0362.bmp,female,4,male,0,0.021719135344028473,AG,2.0,2.0
234,17,235,10,high holistic,right,upright,U0159.bmp,male,2,male,1,0.44706163741648197,AG,1.0,1.0
235,17,236,10,high holistic,right,inverted,U0159.bmp,male,12,male,1,0.6367013603448868,AG,6.0,6.0
236,17,237,17,low holistic,right,upright,U0346.bmp,female,4,male,0,1.346836894750595,AG,2.0,2.0
237,17,238,10,high holistic,left,upright,U0159.bmp,male,8,male,1,2.165010819211602,AG,-4.0,4.0
238,17,239,10,high holistic,right,upright,U0159.bmp,male,8,male,1,0.00010726414620876312,AG,4.0,4.0
239,17,240,14,high holistic,left,inverted,U0228.bmp,male,4,female,0,0.00017956644296646118,AG,-2.0,2.0
240,17,241,20,low holistic,right,upright,U0362.bmp,male,12,male,1,1.8142473045736551,AG,6.0,6.0
241,17,242,6,high holistic,left,upright,U0106.bmp,female,10,male,0,0.0003568660467863083,AG,-5.0,5.0
242,17,243,18,high holistic,left,upright,U0359.bmp,male,10,male,1,0.4772088062018156,AG,-5.0,5.0
243,17,244,8,low holistic,left,inverted,U0137.bmp,male,10,female,0,0.09040546230971813,AG,-5.0,5.0
244,17,245,6,high holistic,right,inverted,U0106.bmp,female,10,male,0,0.26925167813897133,AG,5.0,5.0
245,17,246,5,low holistic,fovea,upright,U0076.bmp,male,0,female,0,0.05219612643122673,AG,0.0,0.0
246,17,247,17,low holistic,left,upright,U0346.bmp,female,8,female,1,0.26556158624589443,AG,-4.0,4.0
247,17,248,20,high holistic,left,upright,U0362.bmp,female,10,female,1,0.00015902146697044373,AG,-5.0,5.0
248,17,249,7,high holistic,left,upright,U0107.bmp,female,8,male,0,0.27180021815001965,AG,-4.0,4.0
249,17,250,18,high holistic,left,inverted,U0359.bmp,male,6,male,1,0.00010150298476219177,AG,-3.0,3.0
250,17,251,19,low holistic,right,upright,U0361.bmp,female,2,female,1,0.31686953641474247,AG,1.0,1.0
251,17,252,18,low holistic,right,upright,U0359.bmp,male,10,female,0,0.00017675012350082397,AG,5.0,5.0
252,17,253,10,high holistic,right,inverted,U0159.bmp,male,12,female,0,0.07861309871077538,AG,6.0,6.0
253,17,254,17,high holistic,left,inverted,U0346.bmp,male,12,female,0,0.8508019577711821,AG,-6.0,6.0
254,17,255,11,low holistic,right,inverted,U0164.bmp,female,6,male,0,0.00012294575572013855,AG,3.0,3.0
255,17,256,20,high holistic,left,upright,U0362.bmp,female,10,male,0,0.00010809116065502167,AG,-5.0,5.0
256,17,257,13,high holistic,right,upright,U0181.bmp,female,6,female,1,0.36915755085647106,AG,3.0,3.0
257,17,258,20,low holistic,right,upright,U0362.bmp,male,12,female,0,1.0920971501618624,AG,6.0,6.0
258,17,259,9,low holistic,left,inverted,U0155.bmp,male,2,female,0,0.08053135126829147,AG,-1.0,1.0
259,17,260,14,low holistic,right,upright,U0228.bmp,male,8,male,1,0.00011076778173446655,AG,4.0,4.0
260,17,261,19,low holistic,right,upright,U0361.bmp,female,10,female,1,0.0001005660742521286,AG,5.0,5.0
261,17,262,5,high holistic,right,inverted,U0076.bmp,female,8,female,1,0.00011686235666275024,AG,4.0,4.0
262,17,263,14,low holistic,left,upright,U0228.bmp,male,6,male,1,0.2933348100632429,AG,-3.0,3.0
263,17,264,11,high holistic,right,upright,U0164.bmp,female,6,female,1,0.23955103009939194,AG,3.0,3.0
264,17,265,7,high holistic,left,upright,U0107.bmp,female,10,male,0,0.0001741219311952591,AG,-5.0,5.0
265,17,266,6,high holistic,right,upright,U0106.bmp,female,6,male,0,0.11083057336509228,AG,3.0,3.0
266,17,267,17,low holistic,right,inverted,U0346.bmp,female,2,male,0,0.7792792189866304,AG,1.0,1.0
267,17,268,12,low holistic,left,upright,U0178.bmp,female,10,female,1,1.2751186043024063,AG,-5.0,5.0
268,17,269,16,high holistic,left,inverted,U0335.bmp,female,6,female,1,4.408051801845431,AG,-3.0,3.0
269,17,270,18,low holistic,right,upright,U0359.bmp,male,10,female,0,8.15229113213718,AG,5.0,5.0
270,17,271,12,high holistic,right,inverted,U0178.bmp,male,2,male,1,0.00010609440505504608,AG,1.0,1.0
271,17,272,2,low holistic,fovea,upright,U0014.bmp,male,0,female,0,0.0646701268851757,AG,0.0,0.0
272,17,273,11,high holistic,right,inverted,U0164.bmp,female,4,male,0,0.2066962905228138,AG,2.0,2.0
273,17,274,17,low holistic,right,inverted,U0346.bmp,female,8,male,0,0.26372347213327885,AG,4.0,4.0
274,17,275,11,high holistic,left,inverted,U0164.bmp,female,4,male,0,0.01079302467405796,AG,-2.0,2.0
275,17,276,16,high holistic,right,inverted,U0335.bmp,female,2,male,0,0.0001092664897441864,AG,1.0,1.0
276,17,277,14,high holistic,right,inverted,U0228.bmp,male,8,male,1,9.940937161445618e-05,AG,4.0,4.0
277,17,278,3,low holistic,right,upright,U0020.bmp,female,12,male,0,0.00010193325579166412,AG,6.0,6.0
278,17,279,8,low holistic,right,inverted,U0137.bmp,male,10,male,1,0.48210459202528,AG,5.0,5.0
279,17,280,11,low holistic,left,inverted,U0164.bmp,female,12,male,0,9.988807141780853e-05,AG,-6.0,6.0
280,17,281,1,high holistic,left,inverted,U0006.bmp,female,10,male,0,9.880587458610535e-05,AG,-5.0,5.0
281,17,282,1,low holistic,left,inverted,U0006.bmp,female,8,male,0,0.46302562579512596,AG,-4.0,4.0
282,17,283,6,high holistic,right,upright,U0106.bmp,female,8,male,0,0.00010048225522041321,AG,4.0,4.0
283,17,284,6,low holistic,right,inverted,U0106.bmp,male,6,female,0,0.19612593203783035,AG,3.0,3.0
284,17,285,17,low holistic,right,inverted,U0346.bmp,female,12,female,1,0.00012255460023880005,AG,6.0,6.0
285,17,286,9,low holistic,right,upright,U0155.bmp,male,6,female,0,0.00010748952627182007,AG,3.0,3.0
286,17,287,11,low holistic,left,inverted,U0164.bmp,female,6,female,1,6.900024803355336,AG,-3.0,3.0
287,17,288,17,high holistic,right,inverted,U0346.bmp,male,4,male,1,1.3912714514881372,AG,2.0,2.0
288,17,289,12,low holistic,fovea,upright,U0178.bmp,female,0,female,1,0.00011314451694488525,AG,0.0,0.0
289,17,290,11,low holistic,right,inverted,U0164.bmp,female,8,female,1,0.00010136514902114868,AG,4.0,4.0
290,17,291,18,high holistic,left,upright,U0359.bmp,male,8,female,0,0.00025035813450813293,AG,-4.0,4.0
291,17,292,14,high holistic,left,upright,U0228.bmp,male,12,female,0,0.0004222393035888672,AG,-6.0,6.0
292,17,293,4,low holistic,left,inverted,U0061.bmp,female,10,male,0,0.03154388256371021,AG,-5.0,5.0
293,17,294,18,high holistic,left,upright,U0359.bmp,male,2,male,1,0.6059520561248064,AG,-1.0,1.0
294,17,295,8,high holistic,right,inverted,U0137.bmp,female,2,male,0,0.1898036189377308,AG,1.0,1.0
295,17,296,9,high holistic,left,upright,U0155.bmp,female,12,male,0,0.0001066010445356369,AG,-6.0,6.0
296,17,297,15,low holistic,right,upright,U0312.bmp,male,8,female,0,0.11937514878809452,AG,4.0,4.0
297,17,298,12,low holistic,right,upright,U0178.bmp,female,12,male,0,9.98079776763916e-05,AG,6.0,6.0
298,17,299,6,low holistic,right,inverted,U0106.bmp,male,6,male,1,0.0001088213175535202,AG,3.0,3.0
299,17,300,6,high holistic,right,inverted,U0106.bmp,female,6,male,0,0.00010850653052330017,AG,3.0,3.0
300,17,301,6,low holistic,right,inverted,U0106.bmp,male,2,female,0,0.17677703872323036,AG,1.0,1.0
301,17,302,1,high holistic,left,inverted,U0006.bmp,female,10,male,0,0.057104673236608505,AG,-5.0,5.0
302,17,303,5,high holistic,right,inverted,U0076.bmp,female,2,female,1,0.00010181404650211334,AG,1.0,1.0
303,17,304,6,high holistic,left,upright,U0106.bmp,female,2,female,1,0.014956872910261154,AG,-1.0,1.0
304,17,305,6,low holistic,left,inverted,U0106.bmp,male,8,male,1,0.08745916560292244,AG,-4.0,4.0
305,17,306,12,high holistic,left,upright,U0178.bmp,male,8,female,0,0.00032165832817554474,AG,-4.0,4.0
306,17,307,8,low holistic,right,upright,U0137.bmp,male,6,female,0,0.00013850629329681396,AG,3.0,3.0
307,17,308,4,low holistic,right,upright,U0061.bmp,female,2,male,0,0.09177719615399837,AG,1.0,1.0
308,17,309,7,low holistic,left,upright,U0107.bmp,female,2,female,1,5.862927468493581,AG,-1.0,1.0
309,17,310,12,high holistic,fovea,inverted,U0178.bmp,male,0,male,1,0.0001000184565782547,AG,0.0,0.0
310,17,311,8,high holistic,right,upright,U0137.bmp,female,2,female,1,0.00010055862367153168,AG,1.0,1.0
311,17,312,18,high holistic,left,inverted,U0359.bmp,male,12,male,1,3.1561973989009857,AG,-6.0,6.0
312,17,313,3,high holistic,right,inverted,U0020.bmp,male,4,male,1,0.00034263916313648224,AG,2.0,2.0
313,17,314,2,high holistic,right,inverted,U0014.bmp,male,8,male,1,9.959936141967773e-05,AG,4.0,4.0
314,17,315,9,high holistic,left,inverted,U0155.bmp,female,10,female,1,0.14985943213105202,AG,-5.0,5.0
315,17,316,11,high holistic,left,inverted,U0164.bmp,female,8,female,1,1.2075219079852104,AG,-4.0,4.0
316,17,317,11,low holistic,right,inverted,U0164.bmp,female,6,female,1,0.8872936051338911,AG,3.0,3.0
317,17,318,7,high holistic,right,upright,U0107.bmp,female,12,male,0,0.30891294218599796,AG,6.0,6.0
318,17,319,5,high holistic,right,inverted,U0076.bmp,female,4,female,1,0.00010071322321891785,AG,2.0,2.0
319,17,320,14,low holistic,left,inverted,U0228.bmp,male,10,male,1,0.00010307133197784424,AG,-5.0,5.0
320,17,321,4,high holistic,left,upright,U0061.bmp,female,12,female,1,0.00011827237904071808,AG,-6.0,6.0
321,17,322,19,low holistic,right,inverted,U0361.bmp,female,2,female,1,0.0001007523387670517,AG,1.0,1.0
322,17,323,19,high holistic,right,upright,U0361.bmp,female,2,male,0,9.935908019542694e-05,AG,1.0,1.0
323,17,324,3,low holistic,left,upright,U0020.bmp,female,4,female,1,0.13709848374128342,AG,-2.0,2.0
324,17,325,12,high holistic,right,inverted,U0178.bmp,male,2,male,1,0.32905980572104454,AG,1.0,1.0
325,17,326,5,high holistic,right,upright,U0076.bmp,female,4,female,1,0.20351722836494446,AG,2.0,2.0
326,17,327,8,high holistic,left,inverted,U0137.bmp,female,6,female,1,0.7153615429997444,AG,-3.0,3.0
327,17,328,13,low holistic,left,inverted,U0181.bmp,male,4,female,0,10.575673010200262,AG,-2.0,2.0
328,17,329,14,high holistic,right,inverted,U0228.bmp,male,10,male,1,9.868480265140533e-05,AG,5.0,5.0
329,17,330,14,high holistic,left,upright,U0228.bmp,male,12,male,1,0.00010046176612377167,AG,-6.0,6.0
330,17,331,11,high holistic,left,inverted,U0164.bmp,female,4,male,0,0.00010892003774642944,AG,-2.0,2.0
331,17,332,10,high holistic,fovea,upright,U0159.bmp,male,0,female,0,8.854662483558059,AG,0.0,0.0
332,17,333,4,high holistic,right,inverted,U0061.bmp,female,10,female,1,9.957142174243927e-05,AG,5.0,5.0
333,17,334,5,low holistic,left,upright,U0076.bmp,male,2,female,0,0.2541345674544573,AG,-1.0,1.0
334,17,335,6,low holistic,right,inverted,U0106.bmp,male,2,female,0,0.05133920907974243,AG,1.0,1.0
335,17,336,9,high holistic,right,inverted,U0155.bmp,female,4,female,1,0.002908105030655861,AG,2.0,2.0
336,17,337,5,low holistic,right,upright,U0076.bmp,male,10,male,1,0.18670613132417202,AG,5.0,5.0
337,17,338,4,high holistic,left,upright,U0061.bmp,female,8,female,1,1.465485218912363,AG,-4.0,4.0
338,17,339,8,high holistic,left,inverted,U0137.bmp,female,4,male,0,0.00010716356337070465,AG,-2.0,2.0
339,17,340,8,low holistic,right,upright,U0137.bmp,male,8,male,1,0.00010093487799167633,AG,4.0,4.0
340,17,341,19,high holistic,fovea,inverted,U0361.bmp,female,0,male,0,0.1360090710222721,AG,0.0,0.0
341,17,342,9,low holistic,left,inverted,U0155.bmp,male,6,male,1,2.4033414870500565,AG,-3.0,3.0
342,17,343,14,high holistic,right,upright,U0228.bmp,male,10,male,1,0.00010735355317592621,AG,5.0,5.0
343,17,344,16,low holistic,right,upright,U0335.bmp,female,6,female,1,0.0004863925278186798,AG,3.0,3.0
344,17,345,16,high holistic,right,inverted,U0335.bmp,female,4,male,0,0.07454751059412956,AG,2.0,2.0
345,17,346,13,high holistic,left,inverted,U0181.bmp,female,4,male,0,0.05523177422583103,AG,-2.0,2.0
346,17,347,12,high holistic,right,inverted,U0178.bmp,male,10,female,0,0.00010651350021362305,AG,5.0,5.0
347,17,348,6,high holistic,right,inverted,U0106.bmp,female,4,male,0,0.00015382282435894012,AG,2.0,2.0
348,17,349,6,high holistic,right,inverted,U0106.bmp,female,6,female,1,13.12463591247797,AG,3.0,3.0
349,17,350,7,high holistic,left,inverted,U0107.bmp,female,6,female,1,0.38296895660459995,AG,-3.0,3.0
350,17,351,13,high holistic,left,upright,U0181.bmp,female,4,female,1,0.13655280694365501,AG,-2.0,2.0
351,17,352,2,high holistic,left,upright,U0014.bmp,male,2,female,0,0.00010070763528347015,AG,-1.0,1.0
352,17,353,4,high holistic,left,inverted,U0061.bmp,female,2,female,1,0.2989077549427748,AG,-1.0,1.0
353,17,354,5,low holistic,left,upright,U0076.bmp,male,8,male,1,0.00010719336569309235,AG,-4.0,4.0
354,17,355,17,high holistic,left,upright,U0346.bmp,male,8,male,1,0.30944006703794,AG,-4.0,4.0
355,17,356,10,high holistic,left,inverted,U0159.bmp,male,2,female,0,0.00010768324136734009,AG,-1.0,1.0
356,17,357,10,high holistic,left,inverted,U0159.bmp,male,10,female,0,0.00010761618614196777,AG,-5.0,5.0
357,17,358,12,high holistic,right,upright,U0178.bmp,male,8,female,0,0.4110651984810829,AG,4.0,4.0
358,17,359,1,low holistic,right,upright,U0006.bmp,female,6,female,1,1.1785227879881859,AG,3.0,3.0
359,17,360,19,high holistic,right,upright,U0361.bmp,female,4,female,1,2.9533131290227175,AG,2.0,2.0
360,17,361,15,high holistic,right,upright,U0312.bmp,male,10,female,0,0.00010223314166069031,AG,5.0,5.0
361,17,362,9,high holistic,right,inverted,U0155.bmp,female,12,male,0,0.00010080263018608093,AG,6.0,6.0
362,17,363,7,low holistic,right,inverted,U0107.bmp,female,6,female,1,0.00010671839118003845,AG,3.0,3.0
363,17,364,5,low holistic,left,inverted,U0076.bmp,male,2,female,0,0.00011016614735126495,AG,-1.0,1.0
364,17,365,18,high holistic,left,inverted,U0359.bmp,male,8,female,0,0.7638926673680544,AG,-4.0,4.0
365,17,366,8,low holistic,left,upright,U0137.bmp,male,12,male,1,0.26180892810225487,AG,-6.0,6.0
366,17,367,3,high holistic,left,inverted,U0020.bmp,male,4,male,1,0.00010050274431705475,AG,-2.0,2.0
367,17,368,6,low holistic,left,inverted,U0106.bmp,male,6,female,0,0.00010762177407741547,AG,-3.0,3.0
368,17,369,18,low holistic,left,upright,U0359.bmp,male,12,male,1,0.27578987926244736,AG,-6.0,6.0
369,17,370,3,low holistic,right,upright,U0020.bmp,female,2,female,1,6.127508450299501,AG,1.0,1.0
370,17,371,19,high holistic,left,upright,U0361.bmp,female,8,male,0,0.24308960884809494,AG,-4.0,4.0
371,17,372,19,low holistic,right,inverted,U0361.bmp,female,12,male,0,0.00010041892528533936,AG,6.0,6.0
372,17,373,10,low holistic,right,inverted,U0159.bmp,female,4,male,0,3.5207628589123487,AG,2.0,2.0
373,17,374,12,low holistic,left,upright,U0178.bmp,female,4,male,0,0.3002330120652914,AG,-2.0,2.0
374,17,375,18,high holistic,left,inverted,U0359.bmp,male,2,female,0,0.0958633366972208,AG,-1.0,1.0
375,17,376,19,low holistic,left,upright,U0361.bmp,female,8,female,1,0.00010026246309280396,AG,-4.0,4.0
376,17,377,4,high holistic,right,inverted,U0061.bmp,female,6,female,1,2.3153194412589073,AG,3.0,3.0
377,17,378,10,low holistic,right,inverted,U0159.bmp,female,12,female,1,0.07955831848084927,AG,6.0,6.0
378,17,379,15,high holistic,right,inverted,U0312.bmp,male,2,female,0,0.00010065361857414246,AG,1.0,1.0
379,17,380,10,low holistic,left,upright,U0159.bmp,female,12,female,1,1.8422270584851503,AG,-6.0,6.0
380,17,381,18,high holistic,left,inverted,U0359.bmp,male,6,male,1,9.938515722751617e-05,AG,-3.0,3.0
381,17,382,14,low holistic,right,upright,U0228.bmp,male,12,male,1,0.001637682318687439,AG,6.0,6.0
382,17,383,10,high holistic,right,inverted,U0159.bmp,male,12,female,0,0.13632950000464916,AG,6.0,6.0
383,17,384,20,high holistic,fovea,upright,U0362.bmp,female,0,female,1,9.895674884319305e-05,AG,0.0,0.0
384,17,385,20,low holistic,left,inverted,U0362.bmp,male,8,female,0,9.978190064430237e-05,AG,-4.0,4.0
385,17,386,7,high holistic,right,upright,U0107.bmp,female,6,male,0,0.0654148031026125,AG,3.0,3.0
386,17,387,19,low holistic,fovea,upright,U0361.bmp,female,0,male,0,0.2954420428723097,AG,0.0,0.0
387,17,388,9,low holistic,right,inverted,U0155.bmp,male,8,female,0,0.00010612607002258301,AG,4.0,4.0
388,17,389,9,high holistic,left,inverted,U0155.bmp,female,12,male,0,0.21074341051280499,AG,-6.0,6.0
389,17,390,15,low holistic,left,inverted,U0312.bmp,male,10,female,0,9.950250387191772e-05,AG,-5.0,5.0
390,17,391,7,high holistic,right,inverted,U0107.bmp,female,6,male,0,0.2507970742881298,AG,3.0,3.0
391,17,392,20,high holistic,right,upright,U0362.bmp,female,10,male,0,0.1120423711836338,AG,5.0,5.0
392,17,393,11,low holistic,right,inverted,U0164.bmp,female,8,female,1,0.0001939721405506134,AG,4.0,4.0
393,17,394,13,high holistic,left,upright,U0181.bmp,female,8,female,1,0.02905750647187233,AG,-4.0,4.0
394,17,395,8,low holistic,right,inverted,U0137.bmp,male,8,female,0,0.0001483764499425888,AG,4.0,4.0
395,17,396,12,low holistic,right,inverted,U0178.bmp,female,2,female,1,0.00021682865917682648,AG,1.0,1.0
396,17,397,3,high holistic,left,upright,U0020.bmp,male,12,female,0,0.00010067224502563477,AG,-6.0,6.0
397,17,398,7,high holistic,right,upright,U0107.bmp,female,12,female,1,0.20195838809013367,AG,6.0,6.0
398,17,399,18,low holistic,right,inverted,U0359.bmp,male,10,female,0,0.00020963139832019806,AG,5.0,5.0
399,17,400,19,high holistic,left,upright,U0361.bmp,female,4,female,1,0.00032750703394412994,AG,-2.0,2.0
400,17,401,10,low holistic,fovea,upright,U0159.bmp,female,0,female,1,0.00016096793115139008,AG,0.0,0.0
401,17,402,12,high holistic,left,upright,U0178.bmp,male,2,female,0,9.951181709766388e-05,AG,-1.0,1.0
402,17,403,2,high holistic,left,inverted,U0014.bmp,male,6,female,0,0.0001324489712715149,AG,-3.0,3.0
403,17,404,12,low holistic,left,upright,U0178.bmp,female,10,female,1,0.00010055676102638245,AG,-5.0,5.0
404,17,405,2,high holistic,right,upright,U0014.bmp,male,4,female,0,0.00010023452341556549,AG,2.0,2.0
405,17,406,4,high holistic,right,upright,U0061.bmp,female,10,female,1,0.00010808371007442474,AG,5.0,5.0
406,17,407,7,low holistic,fovea,inverted,U0107.bmp,female,0,female,1,9.994208812713623e-05,AG,0.0,0.0
407,17,408,17,high holistic,left,inverted,U0346.bmp,male,12,female,0,0.00010776892304420471,AG,-6.0,6.0
408,17,409,9,high holistic,left,inverted,U0155.bmp,female,10,female,1,0.00010813958942890167,AG,-5.0,5.0
409,17,410,18,low holistic,right,inverted,U0359.bmp,male,6,female,0,9.824521839618683e-05,AG,3.0,3.0
410,17,411,7,low holistic,fovea,upright,U0107.bmp,female,0,female,1,0.00010058283805847168,AG,0.0,0.0
411,17,412,14,low holistic,left,inverted,U0228.bmp,male,8,female,0,0.0001543331891298294,AG,-4.0,4.0
412,17,413,15,high holistic,fovea,inverted,U0312.bmp,male,0,female,0,9.868666529655457e-05,AG,0.0,0.0
413,17,414,16,low holistic,fovea,upright,U0335.bmp,female,0,female,1,0.0001121964305639267,AG,0.0,0.0
414,17,415,7,high holistic,left,upright,U0107.bmp,female,10,female,1,9.908899664878845e-05,AG,-5.0,5.0
415,17,416,15,low holistic,right,upright,U0312.bmp,male,6,female,0,0.00010026432573795319,AG,3.0,3.0
416,17,417,9,high holistic,left,inverted,U0155.bmp,female,10,female,1,0.04588562995195389,AG,-5.0,5.0
417,17,418,9,low holistic,left,upright,U0155.bmp,male,8,male,1,0.00010132789611816406,AG,-4.0,4.0
418,17,419,18,high holistic,right,upright,U0359.bmp,male,8,female,0,2.7557468619197607,AG,4.0,4.0
419,17,420,10,high holistic,fovea,upright,U0159.bmp,male,0,male,1,0.1258258242160082,AG,0.0,0.0
420,17,421,3,high holistic,left,upright,U0020.bmp,male,8,female,0,0.10372418165206909,AG,-4.0,4.0
421,17,422,2,low holistic,fovea,inverted,U0014.bmp,male,0,female,0,0.00010162405669689178,AG,0.0,0.0
422,17,423,12,low holistic,right,inverted,U0178.bmp,female,8,female,1,9.978003799915314e-05,AG,4.0,4.0
423,17,424,2,high holistic,fovea,upright,U0014.bmp,male,0,female,0,0.0001735091209411621,AG,0.0,0.0
424,17,425,7,low holistic,right,inverted,U0107.bmp,female,10,male,0,0.25942243821918964,AG,5.0,5.0
425,17,426,6,high holistic,left,inverted,U0106.bmp,female,2,male,0,0.00010582990944385529,AG,-1.0,1.0
426,17,427,13,low holistic,right,inverted,U0181.bmp,male,8,female,0,0.24741856381297112,AG,4.0,4.0
427,17,428,12,high holistic,right,inverted,U0178.bmp,male,8,female,0,0.00010063871741294861,AG,4.0,4.0
428,17,429,19,low holistic,right,upright,U0361.bmp,female,4,female,1,0.07738982327282429,AG,2.0,2.0
429,17,430,18,low holistic,right,inverted,U0359.bmp,male,10,male,1,4.443118022754788,AG,5.0,5.0
430,17,431,17,high holistic,left,upright,U0346.bmp,male,6,female,0,9.943172335624695e-05,AG,-3.0,3.0
431,17,432,8,high holistic,right,inverted,U0137.bmp,female,4,female,1,0.0001744534820318222,AG,2.0,2.0
432,17,433,2,high holistic,left,inverted,U0014.bmp,male,2,female,0,9.988062083721161e-05,AG,-1.0,1.0
433,17,434,7,high holistic,left,inverted,U0107.bmp,female,2,female,1,0.00010075047612190247,AG,-1.0,1.0
434,17,435,18,low holistic,right,upright,U0359.bmp,male,12,female,0,0.00010020099580287933,AG,6.0,6.0
435,17,436,9,low holistic,right,inverted,U0155.bmp,male,6,female,0,0.00010069087147712708,AG,3.0,3.0
436,17,437,20,low holistic,right,upright,U0362.bmp,male,2,female,0,0.15917113982141018,AG,1.0,1.0
437,17,438,4,low holistic,right,inverted,U0061.bmp,female,10,female,1,0.00010597147047519684,AG,5.0,5.0
438,17,439,7,low holistic,right,upright,U0107.bmp,female,6,female,1,0.0001063365489244461,AG,3.0,3.0
439,17,440,9,low holistic,left,inverted,U0155.bmp,male,4,male,1,0.00010117515921592712,AG,-2.0,2.0
440,17,441,18,high holistic,left,upright,U0359.bmp,male,12,female,0,0.024107230827212334,AG,-6.0,6.0
441,17,442,15,low holistic,left,upright,U0312.bmp,male,10,female,0,0.5821035411208868,AG,-5.0,5.0
442,17,443,3,high holistic,left,upright,U0020.bmp,male,12,male,1,0.00037834420800209045,AG,-6.0,6.0
443,17,444,5,low holistic,fovea,upright,U0076.bmp,male,0,female,0,9.850971400737762e-05,AG,0.0,0.0
444,17,445,2,low holistic,right,upright,U0014.bmp,male,4,female,0,0.10278051346540451,AG,2.0,2.0
445,17,446,8,high holistic,right,upright,U0137.bmp,female,10,male,0,0.05020060017704964,AG,5.0,5.0
446,17,447,3,high holistic,left,inverted,U0020.bmp,male,10,male,1,0.20766833052039146,AG,-5.0,5.0
447,17,448,4,low holistic,fovea,inverted,U0061.bmp,female,0,female,1,8.135003454983234,AG,0.0,0.0
448,17,449,15,low holistic,left,upright,U0312.bmp,male,4,female,0,0.047999460250139236,AG,-2.0,2.0
449,17,450,5,low holistic,left,upright,U0076.bmp,male,6,female,0,0.05583450756967068,AG,-3.0,3.0
450,17,451,6,high holistic,right,upright,U0106.bmp,female,6,male,0,9.955838322639465e-05,AG,3.0,3.0
451,17,452,3,high holistic,fovea,inverted,U0020.bmp,male,0,female,0,1.2524941433221102,AG,0.0,0.0
452,17,453,13,low holistic,left,inverted,U0181.bmp,male,6,female,0,0.00012125447392463684,AG,-3.0,3.0
453,17,454,20,low holistic,left,inverted,U0362.bmp,male,4,female,0,9.994395077228546e-05,AG,-2.0,2.0
454,17,455,5,high holistic,right,upright,U0076.bmp,female,4,female,1,0.00010662339627742767,AG,2.0,2.0
455,17,456,18,high holistic,left,upright,U0359.bmp,male,12,male,1,0.07286238297820091,AG,-6.0,6.0
456,17,457,10,low holistic,right,upright,U0159.bmp,female,2,male,0,9.964220225811005e-05,AG,1.0,1.0
457,17,458,1,low holistic,right,upright,U0006.bmp,female,8,female,1,0.00010197795927524567,AG,4.0,4.0
458,17,459,8,high holistic,left,inverted,U0137.bmp,female,4,female,1,0.00010066665709018707,AG,-2.0,2.0
459,17,460,2,high holistic,left,inverted,U0014.bmp,male,6,female,0,0.00010207854211330414,AG,-3.0,3.0
460,17,461,6,low holistic,fovea,upright,U0106.bmp,male,0,female,0,0.00010824576020240784,AG,0.0,0.0
461,17,462,8,low holistic,right,upright,U0137.bmp,male,2,female,0,0.00010880082845687866,AG,1.0,1.0
462,17,463,10,high holistic,fovea,inverted,U0159.bmp,male,0,female,0,9.980425238609314e-05,AG,0.0,0.0
463,17,464,12,high holistic,left,upright,U0178.bmp,male,8,female,0,0.018375668674707413,AG,-4.0,4.0
464,17,465,3,low holistic,right,upright,U0020.bmp,female,8,female,1,0.00014621205627918243,AG,4.0,4.0
465,17,466,16,low holistic,left,inverted,U0335.bmp,female,6,female,1,0.00010702572762966156,AG,-3.0,3.0
466,17,467,6,low holistic,right,upright,U0106.bmp,male,6,female,0,9.991414844989777e-05,AG,3.0,3.0
467,17,468,14,low holistic,right,upright,U0228.bmp,male,6,female,0,9.9964439868927e-05,AG,3.0,3.0
468,17,469,19,high holistic,right,inverted,U0361.bmp,female,6,female,1,0.00010078214108943939,AG,3.0,3.0
469,17,470,18,high holistic,right,inverted,U0359.bmp,male,4,female,0,0.00010101683437824249,AG,2.0,2.0
470,17,471,4,high holistic,left,upright,U0061.bmp,female,2,female,1,0.00010031834244728088,AG,-1.0,1.0
471,17,472,16,high holistic,right,upright,U0335.bmp,female,4,female,1,0.1663773860782385,AG,2.0,2.0
472,17,473,5,high holistic,left,upright,U0076.bmp,female,4,male,0,0.0001000966876745224,AG,-2.0,2.0
473,17,474,10,high holistic,left,inverted,U0159.bmp,male,10,female,0,0.00010127760469913483,AG,-5.0,5.0
474,17,475,4,low holistic,right,upright,U0061.bmp,female,12,female,1,0.00010063685476779938,AG,6.0,6.0
475,17,476,9,low holistic,left,inverted,U0155.bmp,male,12,female,0,0.00010710954666137695,AG,-6.0,6.0
476,17,477,20,low holistic,left,inverted,U0362.bmp,male,12,male,1,9.857490658760071e-05,AG,-6.0,6.0
477,17,478,4,high holistic,right,upright,U0061.bmp,female,2,male,0,0.0001168176531791687,AG,1.0,1.0
478,17,479,6,high holistic,right,upright,U0106.bmp,female,8,female,1,22.293224297463894,AG,4.0,4.0
479,17,480,19,high holistic,left,inverted,U0361.bmp,female,8,female,1,0.00016660429537296295,AG,-4.0,4.0
480,17,481,19,high holistic,left,upright,U0361.bmp,female,8,female,1,0.07468462735414505,AG,-4.0,4.0
481,17,482,19,high holistic,right,inverted,U0361.bmp,female,2,female,1,0.08626988902688026,AG,1.0,1.0
482,17,483,10,high holistic,right,upright,U0159.bmp,male,6,female,0,48.851714704185724,AG,3.0,3.0
483,17,484,13,low holistic,right,inverted,U0181.bmp,male,8,female,0,0.00010072626173496246,AG,4.0,4.0
484,17,485,4,low holistic,right,upright,U0061.bmp,female,4,female,1,0.00010159984230995178,AG,2.0,2.0
485,17,486,7,low holistic,right,inverted,U0107.bmp,female,4,female,1,0.00010046549141407013,AG,2.0,2.0
486,17,487,16,high holistic,right,inverted,U0335.bmp,female,10,female,1,0.00010730139911174774,AG,5.0,5.0
487,17,488,17,high holistic,left,upright,U0346.bmp,male,12,female,0,9.885057806968689e-05,AG,-6.0,6.0
488,17,489,3,low holistic,left,inverted,U0020.bmp,female,10,female,1,9.917467832565308e-05,AG,-5.0,5.0
489,17,490,17,low holistic,left,upright,U0346.bmp,female,10,female,1,0.00010030344128608704,AG,-5.0,5.0
490,17,491,12,low holistic,left,upright,U0178.bmp,female,4,female,1,0.00016908720135688782,AG,-2.0,2.0
491,17,492,20,high holistic,left,upright,U0362.bmp,female,4,female,1,9.976699948310852e-05,AG,-2.0,2.0
492,17,493,1,low holistic,left,upright,U0006.bmp,female,8,female,1,0.00010165572166442871,AG,-4.0,4.0
493,17,494,9,high holistic,right,inverted,U0155.bmp,female,10,female,1,0.00010172277688980103,AG,5.0,5.0
494,17,495,14,low holistic,right,inverted,U0228.bmp,male,10,female,0,0.00010733120143413544,AG,5.0,5.0
495,17,496,7,low holistic,fovea,upright,U0107.bmp,female,0,female,1,0.00010783039033412933,AG,0.0,0.0
496,17,497,9,low holistic,right,inverted,U0155.bmp,male,6,female,0,0.00010986067354679108,AG,3.0,3.0
497,17,498,13,high holistic,left,upright,U0181.bmp,female,6,female,1,0.0001024249941110611,AG,-3.0,3.0
498,17,499,11,low holistic,left,upright,U0164.bmp,female,8,female,1,0.00010782107710838318,AG,-4.0,4.0
499,17,500,15,high holistic,left,upright,U0312.bmp,male,10,female,0,0.00021870248019695282,AG,-5.0,5.0
500,17,501,10,low holistic,left,inverted,U0159.bmp,female,6,female,1,0.00010160170495510101,AG,-3.0,3.0
501,17,502,1,high holistic,left,upright,U0006.bmp,female,12,female,1,0.00010666251182556152,AG,-6.0,6.0
502,17,503,19,low holistic,left,inverted,U0361.bmp,female,8,female,1,0.00010561756789684296,AG,-4.0,4.0
503,17,504,9,low holistic,left,upright,U0155.bmp,male,8,female,0,0.00010091625154018402,AG,-4.0,4.0
504,17,505,15,low holistic,right,inverted,U0312.bmp,male,6,female,0,0.00010639987885951996,AG,3.0,3.0
505,17,506,20,low holistic,left,inverted,U0362.bmp,male,10,female,0,0.00010825321078300476,AG,-5.0,5.0
506,17,507,6,low holistic,left,upright,U0106.bmp,male,8,female,0,0.00010040402412414551,AG,-4.0,4.0
507,17,508,18,low holistic,left,upright,U0359.bmp,male,6,female,0,0.00010121427476406097,AG,-3.0,3.0
508,17,509,11,high holistic,right,upright,U0164.bmp,female,12,female,1,0.0001078043133020401,AG,6.0,6.0
509,17,510,1,high holistic,right,upright,U0006.bmp,female,8,female,1,9.862333536148071e-05,AG,4.0,4.0
510,17,511,20,high holistic,left,inverted,U0362.bmp,female,12,female,1,0.0001071300357580185,AG,-6.0,6.0
511,17,512,2,high holistic,left,inverted,U0014.bmp,male,6,female,0,0.00010689906775951385,AG,-3.0,3.0
512,17,513,10,low holistic,left,upright,U0159.bmp,female,4,female,1,0.00010136142373085022,AG,-2.0,2.0
513,17,514,17,low holistic,right,upright,U0346.bmp,female,8,female,1,0.00010086968541145325,AG,4.0,4.0
514,17,515,20,low holistic,left,inverted,U0362.bmp,male,4,female,0,0.00010738149285316467,AG,-2.0,2.0
515,17,516,13,high holistic,right,upright,U0181.bmp,female,8,female,1,0.0001065470278263092,AG,4.0,4.0
516,17,517,9,high holistic,fovea,upright,U0155.bmp,female,0,female,1,0.0002448856830596924,AG,0.0,0.0
517,17,518,17,low holistic,left,inverted,U0346.bmp,female,2,female,1,9.887665510177612e-05,AG,-1.0,1.0
518,17,519,7,low holistic,fovea,inverted,U0107.bmp,female,0,female,1,0.00010054744780063629,AG,0.0,0.0
519,17,520,12,high holistic,left,inverted,U0178.bmp,male,12,female,0,0.00027878955006599426,AG,-6.0,6.0
520,17,521,7,low holistic,left,upright,U0107.bmp,female,10,male,0,0.761733166873455,AG,-5.0,5.0
521,17,522,13,low holistic,right,inverted,U0181.bmp,male,2,male,1,0.09925007820129395,AG,1.0,1.0
522,17,523,17,high holistic,right,upright,U0346.bmp,male,6,male,1,0.00010025873780250549,AG,3.0,3.0
523,17,524,16,high holistic,right,inverted,U0335.bmp,female,10,female,1,0.0002101939171552658,AG,5.0,5.0
524,17,525,10,high holistic,fovea,upright,U0159.bmp,male,0,female,0,0.6045271903276443,AG,0.0,0.0
525,17,526,4,low holistic,right,inverted,U0061.bmp,female,10,male,0,0.0001562461256980896,AG,5.0,5.0
526,17,527,7,high holistic,right,upright,U0107.bmp,female,10,female,1,26.1314156986773,AG,5.0,5.0
527,17,528,5,high holistic,left,inverted,U0076.bmp,female,10,male,0,0.00010024569928646088,AG,-5.0,5.0
528,17,529,18,low holistic,left,upright,U0359.bmp,male,2,male,1,0.038839567452669144,AG,-1.0,1.0
529,17,530,9,low holistic,fovea,upright,U0155.bmp,male,0,male,1,0.00043978355824947357,AG,0.0,0.0
530,17,531,11,low holistic,left,inverted,U0164.bmp,female,6,male,0,0.23673255555331707,AG,-3.0,3.0
531,17,532,14,low holistic,right,inverted,U0228.bmp,male,6,male,1,0.00016540847718715668,AG,3.0,3.0
532,17,533,16,low holistic,right,inverted,U0335.bmp,female,2,male,0,0.45628246665000916,AG,1.0,1.0
533,17,534,19,high holistic,right,upright,U0361.bmp,female,6,female,1,0.00011069141328334808,AG,3.0,3.0
534,17,535,17,high holistic,left,upright,U0346.bmp,male,2,male,1,0.00010164454579353333,AG,-1.0,1.0
535,17,536,9,high holistic,left,inverted,U0155.bmp,female,10,female,1,0.00010646507143974304,AG,-5.0,5.0
536,17,537,1,low holistic,right,inverted,U0006.bmp,female,8,female,1,0.00010625086724758148,AG,4.0,4.0
537,17,538,20,high holistic,left,inverted,U0362.bmp,female,10,male,0,0.04568175598978996,AG,-5.0,5.0
538,17,539,10,high holistic,right,upright,U0159.bmp,male,8,female,0,15.155916184186935,AG,4.0,4.0
539,17,540,8,high holistic,left,upright,U0137.bmp,female,10,female,1,0.00011283904314041138,AG,-5.0,5.0
540,17,541,16,low holistic,right,upright,U0335.bmp,female,8,female,1,0.053209373727440834,AG,4.0,4.0
541,17,542,8,high holistic,left,inverted,U0137.bmp,female,2,female,1,0.00011621229350566864,AG,-1.0,1.0
542,17,543,19,low holistic,left,inverted,U0361.bmp,female,4,male,0,0.8346247114241123,AG,-2.0,2.0
543,17,544,17,low holistic,left,inverted,U0346.bmp,female,2,female,1,0.2012240458279848,AG,-1.0,1.0
544,17,545,18,high holistic,left,inverted,U0359.bmp,male,2,female,0,9.909458458423615e-05,AG,-1.0,1.0
545,17,546,15,high holistic,left,upright,U0312.bmp,male,12,male,1,0.7267402466386557,AG,-6.0,6.0
546,17,547,12,high holistic,left,inverted,U0178.bmp,male,8,male,1,0.9300486333668232,AG,-4.0,4.0
547,17,548,6,high holistic,left,inverted,U0106.bmp,female,6,female,1,5.443452537059784,AG,-3.0,3.0
548,17,549,20,low holistic,left,inverted,U0362.bmp,male,2,male,1,0.1537504531443119,AG,-1.0,1.0
549,17,550,10,low holistic,right,upright,U0159.bmp,female,8,female,1,0.00027045607566833496,AG,4.0,4.0
550,17,551,12,low holistic,left,upright,U0178.bmp,female,6,male,0,0.00035719387233257294,AG,-3.0,3.0
551,17,552,6,high holistic,left,upright,U0106.bmp,female,6,female,1,0.00014976225793361664,AG,-3.0,3.0
552,17,553,17,high holistic,right,inverted,U0346.bmp,male,2,female,0,48.56252239830792,AG,1.0,1.0
553,17,554,6,low holistic,left,inverted,U0106.bmp,male,2,female,0,19.043882068246603,AG,-1.0,1.0
554,17,555,9,low holistic,left,inverted,U0155.bmp,male,12,female,0,0.12046637199819088,AG,-6.0,6.0
555,17,556,12,high holistic,left,upright,U0178.bmp,male,8,female,0,0.2530384510755539,AG,-4.0,4.0
556,17,557,7,high holistic,right,upright,U0107.bmp,female,2,male,0,1.7064978629350662,AG,1.0,1.0
557,17,558,8,high holistic,right,upright,U0137.bmp,female,12,female,1,0.00010054931044578552,AG,6.0,6.0
558,17,559,20,low holistic,right,upright,U0362.bmp,male,12,male,1,0.00018065422773361206,AG,6.0,6.0
559,17,560,13,low holistic,left,inverted,U0181.bmp,male,12,female,0,0.00037646107375621796,AG,-6.0,6.0
560,17,561,14,high holistic,left,inverted,U0228.bmp,male,8,male,1,0.05216047912836075,AG,-4.0,4.0
561,17,562,5,low holistic,left,inverted,U0076.bmp,male,2,female,0,0.0009417515248060226,AG,-1.0,1.0
562,17,563,13,high holistic,left,inverted,U0181.bmp,female,10,female,1,0.1046303566545248,AG,-5.0,5.0
563,17,564,18,high holistic,left,inverted,U0359.bmp,male,8,male,1,0.00010145828127861023,AG,-4.0,4.0
564,17,565,18,high holistic,right,upright,U0359.bmp,male,10,female,0,0.3648325428366661,AG,5.0,5.0
565,17,566,12,low holistic,left,upright,U0178.bmp,female,10,male,0,0.00010826066136360168,AG,-5.0,5.0
566,17,567,18,high holistic,right,upright,U0359.bmp,male,10,female,0,0.000493265688419342,AG,5.0,5.0
567,17,568,10,low holistic,left,upright,U0159.bmp,female,12,male,0,0.07697916589677334,AG,-6.0,6.0
568,17,569,13,low holistic,right,upright,U0181.bmp,male,10,male,1,0.17725910432636738,AG,5.0,5.0
569,17,570,10,high holistic,right,inverted,U0159.bmp,male,12,female,0,0.0023055803030729294,AG,6.0,6.0
570,17,571,8,high holistic,right,inverted,U0137.bmp,female,10,female,1,0.0001304280012845993,AG,5.0,5.0
571,17,572,6,low holistic,left,upright,U0106.bmp,male,4,female,0,0.04147201403975487,AG,-2.0,2.0
572,17,573,19,low holistic,left,upright,U0361.bmp,female,6,male,0,0.00010154582560062408,AG,-3.0,3.0
573,17,574,15,high holistic,left,upright,U0312.bmp,male,6,female,0,0.00010740943253040314,AG,-3.0,3.0
574,17,575,2,high holistic,right,inverted,U0014.bmp,male,12,female,0,0.00011131726205348969,AG,6.0,6.0
575,17,576,4,high holistic,right,upright,U0061.bmp,female,4,male,0,0.00534464605152607,AG,2.0,2.0
576,17,577,14,high holistic,right,upright,U0228.bmp,male,2,female,0,2.645835420116782,AG,1.0,1.0
577,17,578,9,high holistic,left,upright,U0155.bmp,female,4,female,1,1.0837783440947533,AG,-2.0,2.0
578,17,579,3,high holistic,right,inverted,U0020.bmp,male,10,female,0,0.03877447731792927,AG,5.0,5.0
579,17,580,2,low holistic,right,inverted,U0014.bmp,male,12,female,0,0.00026650726795196533,AG,6.0,6.0
580,17,581,12,high holistic,fovea,inverted,U0178.bmp,male,0,male,1,0.24500572867691517,AG,0.0,0.0
581,17,582,19,low holistic,left,inverted,U0361.bmp,female,6,male,0,0.00010499730706214905,AG,-3.0,3.0
582,17,583,16,high holistic,left,inverted,U0335.bmp,female,2,female,1,0.0001002047210931778,AG,-1.0,1.0
583,17,584,13,low holistic,left,inverted,U0181.bmp,male,8,female,0,5.843638237565756,AG,-4.0,4.0
584,17,585,13,high holistic,left,upright,U0181.bmp,female,4,male,0,0.017374256625771523,AG,-2.0,2.0
585,17,586,18,high holistic,right,upright,U0359.bmp,male,2,male,1,0.00010064616799354553,AG,1.0,1.0
586,17,587,15,high holistic,left,inverted,U0312.bmp,male,12,male,1,0.00010055676102638245,AG,-6.0,6.0
587,17,588,12,low holistic,left,inverted,U0178.bmp,female,12,male,0,0.00010052695870399475,AG,-6.0,6.0
588,17,589,8,high holistic,left,upright,U0137.bmp,female,2,male,0,0.0001992732286453247,AG,-1.0,1.0
589,17,590,4,high holistic,left,inverted,U0061.bmp,female,12,male,0,0.00010566972196102142,AG,-6.0,6.0
590,17,591,9,low holistic,left,upright,U0155.bmp,male,10,male,1,4.452887071296573,AG,-5.0,5.0
591,17,592,4,low holistic,right,inverted,U0061.bmp,female,2,female,1,0.12323621287941933,AG,1.0,1.0
592,17,593,7,high holistic,left,inverted,U0107.bmp,female,10,male,0,0.00010024569928646088,AG,-5.0,5.0
593,17,594,14,low holistic,left,inverted,U0228.bmp,male,6,female,0,4.022898703813553,AG,-3.0,3.0
594,17,595,14,high holistic,right,inverted,U0228.bmp,male,4,female,0,0.21290987357497215,AG,2.0,2.0
595,17,596,10,low holistic,left,upright,U0159.bmp,female,6,male,0,0.09303145296871662,AG,-3.0,3.0
596,17,597,17,high holistic,right,upright,U0346.bmp,male,6,female,0,0.000100746750831604,AG,3.0,3.0
597,17,598,18,high holistic,right,inverted,U0359.bmp,male,4,female,0,0.0001141522079706192,AG,2.0,2.0
598,17,599,7,high holistic,fovea,upright,U0107.bmp,female,0,female,1,0.00010253489017486572,AG,0.0,0.0
599,17,600,5,low holistic,right,upright,U0076.bmp,male,12,female,0,0.00010092929005622864,AG,6.0,6.0
600,17,601,17,high holistic,left,upright,U0346.bmp,male,12,female,0,0.00010879896581172943,AG,-6.0,6.0
601,17,602,4,low holistic,left,inverted,U0061.bmp,female,6,female,1,0.00010089948773384094,AG,-3.0,3.0
602,17,603,10,low holistic,left,upright,U0159.bmp,female,2,male,0,9.994581341743469e-05,AG,-1.0,1.0
603,17,604,4,high holistic,right,inverted,U0061.bmp,female,8,female,1,0.00010779872536659241,AG,4.0,4.0
604,17,605,4,high holistic,left,upright,U0061.bmp,female,8,female,1,0.3800917323678732,AG,-4.0,4.0
605,17,606,8,high holistic,left,upright,U0137.bmp,female,6,female,1,0.006632061675190926,AG,-3.0,3.0
606,17,607,13,low holistic,left,upright,U0181.bmp,male,2,female,0,0.09195744432508945,AG,-1.0,1.0
607,17,608,14,low holistic,left,inverted,U0228.bmp,male,2,male,1,9.934604167938232e-05,AG,-1.0,1.0
608,17,609,6,low holistic,left,inverted,U0106.bmp,male,4,female,0,0.1271954160183668,AG,-2.0,2.0
609,17,610,5,low holistic,left,inverted,U0076.bmp,male,10,female,0,0.044212520122528076,AG,-5.0,5.0
610,17,611,7,low holistic,left,upright,U0107.bmp,female,2,male,0,0.00014840438961982727,AG,-1.0,1.0
611,17,612,2,high holistic,right,upright,U0014.bmp,male,8,male,1,0.08194794319570065,AG,4.0,4.0
612,17,613,16,high holistic,left,inverted,U0335.bmp,female,12,male,0,0.8843328393995762,AG,-6.0,6.0
613,17,614,4,low holistic,left,inverted,U0061.bmp,female,10,female,1,20.63444546237588,AG,-5.0,5.0
614,17,615,15,high holistic,left,upright,U0312.bmp,male,10,male,1,0.00026088953018188477,AG,-5.0,5.0
615,17,616,14,high holistic,fovea,upright,U0228.bmp,male,0,female,0,0.000113682821393013,AG,0.0,0.0
616,17,617,5,high holistic,left,upright,U0076.bmp,female,6,female,1,0.039067819714546204,AG,-3.0,3.0
617,17,618,18,low holistic,left,inverted,U0359.bmp,male,2,female,0,0.0002981647849082947,AG,-1.0,1.0
618,17,619,20,high holistic,right,upright,U0362.bmp,female,2,female,1,0.07612909004092216,AG,1.0,1.0
619,17,620,12,high holistic,left,inverted,U0178.bmp,male,10,male,1,0.017610924318432808,AG,-5.0,5.0
620,17,621,11,low holistic,left,upright,U0164.bmp,female,2,male,0,9.996071457862854e-05,AG,-1.0,1.0
621,17,622,8,high holistic,left,upright,U0137.bmp,female,2,male,0,0.00018521398305892944,AG,-1.0,1.0
622,17,623,2,high holistic,fovea,inverted,U0014.bmp,male,0,male,1,0.007401810958981514,AG,0.0,0.0
623,17,624,18,low holistic,left,inverted,U0359.bmp,male,2,male,1,0.0001066792756319046,AG,-1.0,1.0
624,17,625,11,low holistic,left,inverted,U0164.bmp,female,12,male,0,2.7024167757481337,AG,-6.0,6.0
625,17,626,5,high holistic,left,upright,U0076.bmp,female,10,male,0,0.025153081864118576,AG,-5.0,5.0
626,17,627,4,high holistic,right,upright,U0061.bmp,female,6,male,0,0.0244374368339777,AG,3.0,3.0
627,17,628,14,high holistic,left,inverted,U0228.bmp,male,2,female,0,0.2951769530773163,AG,-1.0,1.0
628,17,629,10,high holistic,right,upright,U0159.bmp,male,8,male,1,0.026832282543182373,AG,4.0,4.0
629,17,630,15,high holistic,right,upright,U0312.bmp,male,8,female,0,0.09969988092780113,AG,4.0,4.0
630,17,631,7,low holistic,left,inverted,U0107.bmp,female,4,female,1,0.00010071694850921631,AG,-2.0,2.0
631,17,632,15,high holistic,left,upright,U0312.bmp,male,2,female,0,8.798611572012305,AG,-1.0,1.0
632,17,633,4,high holistic,left,inverted,U0061.bmp,female,8,female,1,0.00010054744780063629,AG,-4.0,4.0
633,17,634,14,high holistic,right,inverted,U0228.bmp,male,8,female,0,0.6373547557741404,AG,4.0,4.0
634,17,635,2,low holistic,right,inverted,U0014.bmp,male,4,female,0,0.042149774730205536,AG,2.0,2.0
635,17,636,20,low holistic,right,inverted,U0362.bmp,male,6,female,0,0.00013866834342479706,AG,3.0,3.0
636,17,637,2,low holistic,left,upright,U0014.bmp,male,4,female,0,9.825453162193298e-05,AG,-2.0,2.0
637,17,638,6,low holistic,right,upright,U0106.bmp,male,8,male,1,9.915977716445923e-05,AG,4.0,4.0
638,17,639,8,low holistic,right,inverted,U0137.bmp,male,10,female,0,0.11137229949235916,AG,5.0,5.0
639,17,640,20,low holistic,left,upright,U0362.bmp,male,6,female,0,0.13938795775175095,AG,-3.0,3.0
640,17,641,9,high holistic,left,upright,U0155.bmp,female,6,female,1,0.00014001689851284027,AG,-3.0,3.0
641,17,642,3,low holistic,fovea,upright,U0020.bmp,female,0,male,0,0.02893204800784588,AG,0.0,0.0
642,17,643,1,low holistic,left,inverted,U0006.bmp,female,6,male,0,0.33268579840660095,AG,-3.0,3.0
643,17,644,13,high holistic,right,inverted,U0181.bmp,female,12,male,0,0.006094072014093399,AG,6.0,6.0
644,17,645,6,low holistic,left,upright,U0106.bmp,male,6,male,1,0.00017677061259746552,AG,-3.0,3.0
645,17,646,1,low holistic,left,upright,U0006.bmp,female,10,male,0,0.00010141916573047638,AG,-5.0,5.0
646,17,647,6,high holistic,right,upright,U0106.bmp,female,12,female,1,0.4754999428987503,AG,6.0,6.0
647,17,648,18,high holistic,left,inverted,U0359.bmp,male,6,male,1,0.3442801386117935,AG,-3.0,3.0
648,17,649,6,high holistic,left,inverted,U0106.bmp,female,4,female,1,5.459330907091498,AG,-2.0,2.0
649,17,650,11,high holistic,right,inverted,U0164.bmp,female,12,female,1,0.23940488323569298,AG,6.0,6.0
650,17,651,11,high holistic,left,upright,U0164.bmp,female,6,male,0,0.0001008063554763794,AG,-3.0,3.0
651,17,652,3,low holistic,left,inverted,U0020.bmp,female,12,male,0,0.06623238325119019,AG,-6.0,6.0
652,17,653,7,low holistic,left,inverted,U0107.bmp,female,4,male,0,0.054188260808587074,AG,-2.0,2.0
653,17,654,4,high holistic,right,upright,U0061.bmp,female,4,female,1,0.10649798065423965,AG,2.0,2.0
654,17,655,6,high holistic,left,upright,U0106.bmp,female,10,female,1,9.878911077976227e-05,AG,-5.0,5.0
655,17,656,11,high holistic,left,upright,U0164.bmp,female,6,male,0,0.0002067461609840393,AG,-3.0,3.0
656,17,657,13,high holistic,left,inverted,U0181.bmp,female,6,female,1,0.21263349242508411,AG,-3.0,3.0
657,17,658,13,high holistic,right,inverted,U0181.bmp,female,12,male,0,0.3014410752803087,AG,6.0,6.0
658,17,659,12,low holistic,right,upright,U0178.bmp,female,12,male,0,0.0001589171588420868,AG,6.0,6.0
659,17,660,18,low holistic,left,upright,U0359.bmp,male,2,male,1,0.00010536052286624908,AG,-1.0,1.0
660,17,661,14,low holistic,right,upright,U0228.bmp,male,4,female,0,0.00018546171486377716,AG,2.0,2.0
661,17,662,8,low holistic,right,upright,U0137.bmp,male,2,male,1,0.00010016374289989471,AG,1.0,1.0
662,17,663,6,low holistic,left,upright,U0106.bmp,male,6,female,0,0.1256520077586174,AG,-3.0,3.0
663,17,664,7,high holistic,right,inverted,U0107.bmp,female,10,male,0,0.0001751203089952469,AG,5.0,5.0
664,17,665,6,high holistic,right,upright,U0106.bmp,female,2,male,0,0.00013313442468643188,AG,1.0,1.0
665,17,666,6,low holistic,left,inverted,U0106.bmp,male,8,female,0,0.23285640589892864,AG,-4.0,4.0
666,17,667,13,high holistic,left,inverted,U0181.bmp,female,10,male,0,3.8947222139686346,AG,-5.0,5.0
667,17,668,4,low holistic,right,upright,U0061.bmp,female,12,male,0,0.2658856827765703,AG,6.0,6.0
668,17,669,7,high holistic,left,inverted,U0107.bmp,female,6,female,1,0.00021305866539478302,AG,-3.0,3.0
669,17,670,6,low holistic,right,upright,U0106.bmp,male,6,male,1,0.022546926513314247,AG,3.0,3.0
670,17,671,12,high holistic,fovea,inverted,U0178.bmp,male,0,male,1,9.9988654255867e-05,AG,0.0,0.0
671,17,672,9,high holistic,left,upright,U0155.bmp,female,2,male,0,0.00010123103857040405,AG,-1.0,1.0
672,17,673,3,high holistic,right,upright,U0020.bmp,male,10,female,0,0.00014422275125980377,AG,5.0,5.0
673,17,674,5,high holistic,left,inverted,U0076.bmp,female,6,male,0,0.00028821639716625214,AG,-3.0,3.0
674,17,675,3,high holistic,right,upright,U0020.bmp,male,10,male,1,0.23538262955844402,AG,5.0,5.0
675,17,676,5,high holistic,right,inverted,U0076.bmp,female,8,male,0,0.057754332199692726,AG,4.0,4.0
676,17,677,14,high holistic,right,upright,U0228.bmp,male,6,male,1,0.0001065768301486969,AG,3.0,3.0
677,17,678,13,high holistic,left,inverted,U0181.bmp,female,12,male,0,0.09300773590803146,AG,-6.0,6.0
678,17,679,7,low holistic,left,upright,U0107.bmp,female,10,female,1,9.944476187229156e-05,AG,-5.0,5.0
679,17,680,17,high holistic,right,inverted,U0346.bmp,male,8,female,0,0.03398420289158821,AG,4.0,4.0
680,17,681,16,low holistic,fovea,inverted,U0335.bmp,female,0,female,1,0.07165071740746498,AG,0.0,0.0
681,17,682,6,high holistic,right,upright,U0106.bmp,female,10,male,0,0.00011018849909305573,AG,5.0,5.0
682,17,683,9,low holistic,right,upright,U0155.bmp,male,6,male,1,0.15692557208240032,AG,3.0,3.0
683,17,684,3,low holistic,left,inverted,U0020.bmp,female,2,male,0,0.19680768437683582,AG,-1.0,1.0
684,17,685,13,high holistic,right,upright,U0181.bmp,female,10,female,1,0.1723351664841175,AG,5.0,5.0
685,17,686,16,low holistic,right,upright,U0335.bmp,female,6,male,0,0.34166063740849495,AG,3.0,3.0
686,17,687,14,high holistic,left,inverted,U0228.bmp,male,4,female,0,0.00020446814596652985,AG,-2.0,2.0
687,17,688,3,low holistic,right,upright,U0020.bmp,female,8,female,1,0.06336377374827862,AG,4.0,4.0
688,17,689,17,high holistic,right,inverted,U0346.bmp,male,2,male,1,0.364395122975111,AG,1.0,1.0
689,17,690,10,high holistic,left,inverted,U0159.bmp,male,8,female,0,4.283784644678235,AG,-4.0,4.0
690,17,691,2,high holistic,right,inverted,U0014.bmp,male,4,female,0,0.00010110996663570404,AG,2.0,2.0
691,17,692,19,low holistic,left,inverted,U0361.bmp,female,2,male,0,0.024996817111968994,AG,-1.0,1.0
692,17,693,9,low holistic,left,upright,U0155.bmp,male,2,male,1,9.983405470848083e-05,AG,-1.0,1.0
693,17,694,4,low holistic,left,upright,U0061.bmp,female,8,female,1,0.11034232750535011,AG,-4.0,4.0
694,17,695,1,low holistic,left,inverted,U0006.bmp,female,10,female,1,0.15599867887794971,AG,-5.0,5.0
695,17,696,1,high holistic,left,upright,U0006.bmp,female,10,male,0,9.996257722377777e-05,AG,-5.0,5.0
696,17,697,10,low holistic,right,inverted,U0159.bmp,female,6,female,1,0.07545840367674828,AG,3.0,3.0
697,17,698,9,high holistic,right,inverted,U0155.bmp,female,10,male,0,0.7268070094287395,AG,5.0,5.0
698,17,699,20,high holistic,left,inverted,U0362.bmp,female,12,male,0,0.4888558741658926,AG,-6.0,6.0
699,17,700,8,low holistic,right,inverted,U0137.bmp,male,10,male,1,0.5269009806215763,AG,5.0,5.0
700,17,701,6,high holistic,right,upright,U0106.bmp,female,6,male,0,0.6321606803685427,AG,3.0,3.0
701,17,702,19,low holistic,left,inverted,U0361.bmp,female,12,male,0,0.3096636738628149,AG,-6.0,6.0
702,17,703,13,low holistic,left,upright,U0181.bmp,male,12,male,1,0.00010112300515174866,AG,-6.0,6.0
703,17,704,9,high holistic,right,upright,U0155.bmp,female,12,male,0,0.00018434412777423859,AG,6.0,6.0
704,17,705,19,low holistic,left,upright,U0361.bmp,female,2,male,0,0.27406741864979267,AG,-1.0,1.0
705,17,706,7,low holistic,left,inverted,U0107.bmp,female,10,male,0,9.960494935512543e-05,AG,-5.0,5.0
706,17,707,20,high holistic,right,upright,U0362.bmp,female,6,male,0,0.7017754968255758,AG,3.0,3.0
707,17,708,1,high holistic,right,upright,U0006.bmp,female,12,female,1,0.00013232603669166565,AG,6.0,6.0
708,17,709,11,low holistic,left,upright,U0164.bmp,female,4,male,0,0.1617723200470209,AG,-2.0,2.0
709,17,710,19,high holistic,left,inverted,U0361.bmp,female,12,female,1,0.033266618847846985,AG,-6.0,6.0
710,17,711,1,low holistic,fovea,inverted,U0006.bmp,female,0,female,1,9.852461516857147e-05,AG,0.0,0.0
711,17,712,10,low holistic,right,upright,U0159.bmp,female,6,male,0,0.0001743696630001068,AG,3.0,3.0
712,17,713,19,high holistic,right,upright,U0361.bmp,female,6,female,1,9.872950613498688e-05,AG,3.0,3.0
713,17,714,15,low holistic,right,inverted,U0312.bmp,male,12,female,0,0.00021244026720523834,AG,6.0,6.0
714,17,715,12,low holistic,right,inverted,U0178.bmp,female,8,male,0,0.1596994698047638,AG,4.0,4.0
715,17,716,20,low holistic,fovea,inverted,U0362.bmp,male,0,female,0,0.000366944819688797,AG,0.0,0.0
716,17,717,6,high holistic,fovea,inverted,U0106.bmp,female,0,male,0,0.022546948865056038,AG,0.0,0.0
717,17,718,14,high holistic,right,upright,U0228.bmp,male,4,female,0,0.0003358554095029831,AG,2.0,2.0
718,17,719,6,low holistic,fovea,upright,U0106.bmp,male,0,male,1,0.00010878033936023712,AG,0.0,0.0
719,17,720,7,high holistic,right,inverted,U0107.bmp,female,10,female,1,0.00010092183947563171,AG,5.0,5.0
720,17,721,5,low holistic,right,inverted,U0076.bmp,male,4,male,1,0.12623446062207222,AG,2.0,2.0
721,17,722,9,high holistic,right,upright,U0155.bmp,female,4,male,0,0.16800639033317566,AG,2.0,2.0
722,17,723,9,low holistic,left,inverted,U0155.bmp,male,2,female,0,9.976699948310852e-05,AG,-1.0,1.0
723,17,724,19,high holistic,right,upright,U0361.bmp,female,8,male,0,0.00010619871318340302,AG,4.0,4.0
724,17,725,17,high holistic,right,inverted,U0346.bmp,male,12,female,0,0.35195713117718697,AG,6.0,6.0
725,17,726,20,high holistic,fovea,upright,U0362.bmp,female,0,female,1,0.29623013362288475,AG,0.0,0.0
726,17,727,4,high holistic,left,upright,U0061.bmp,female,4,male,0,0.5792940687388182,AG,-2.0,2.0
727,17,728,20,low holistic,left,upright,U0362.bmp,male,8,female,0,9.919889271259308e-05,AG,-4.0,4.0
728,17,729,8,low holistic,left,inverted,U0137.bmp,male,4,female,0,0.27595293521881104,AG,-2.0,2.0
729,17,730,18,low holistic,fovea,upright,U0359.bmp,male,0,female,0,0.00010745972394943237,AG,0.0,0.0
730,17,731,15,high holistic,right,upright,U0312.bmp,male,8,male,1,0.5676129907369614,AG,4.0,4.0
731,17,732,12,high holistic,left,inverted,U0178.bmp,male,8,male,1,0.6177257709205151,AG,-4.0,4.0
732,17,733,2,high holistic,left,upright,U0014.bmp,male,6,male,1,0.8255694340914488,AG,-3.0,3.0
733,17,734,18,high holistic,left,inverted,U0359.bmp,male,12,male,1,0.00010063685476779938,AG,-6.0,6.0
734,17,735,15,high holistic,left,upright,U0312.bmp,male,2,male,1,0.17376033775508404,AG,-1.0,1.0
735,17,736,15,low holistic,right,upright,U0312.bmp,male,10,male,1,0.00010036863386631012,AG,5.0,5.0
736,17,737,9,high holistic,left,upright,U0155.bmp,female,2,female,1,1.1024766024202108,AG,-1.0,1.0
737,17,738,8,high holistic,left,upright,U0137.bmp,female,6,male,0,0.9837996978312731,AG,-3.0,3.0
738,17,739,11,low holistic,right,upright,U0164.bmp,female,12,male,0,3.224044630303979,AG,6.0,6.0
739,17,740,6,high holistic,left,inverted,U0106.bmp,female,2,male,0,0.29570387303829193,AG,-1.0,1.0
740,17,741,13,high holistic,right,inverted,U0181.bmp,female,2,male,0,0.11528952419757843,AG,1.0,1.0
741,17,742,4,low holistic,left,upright,U0061.bmp,female,10,male,0,0.5248627010732889,AG,-5.0,5.0
742,17,743,7,low holistic,fovea,inverted,U0107.bmp,female,0,male,0,9.978748857975006e-05,AG,0.0,0.0
743,17,744,5,high holistic,fovea,upright,U0076.bmp,female,0,male,0,9.961426258087158e-05,AG,0.0,0.0
744,17,745,8,high holistic,right,inverted,U0137.bmp,female,12,male,0,0.02267480455338955,AG,6.0,6.0
745,17,746,19,high holistic,right,inverted,U0361.bmp,female,12,male,0,0.00011319480836391449,AG,6.0,6.0
746,17,747,3,low holistic,fovea,inverted,U0020.bmp,female,0,female,1,0.2855602391064167,AG,0.0,0.0
747,17,748,16,low holistic,left,upright,U0335.bmp,female,12,male,0,0.09854866936802864,AG,-6.0,6.0
748,17,749,10,low holistic,left,upright,U0159.bmp,female,6,female,1,0.2850846089422703,AG,-3.0,3.0
749,17,750,11,low holistic,right,upright,U0164.bmp,female,6,male,0,0.00010142289102077484,AG,3.0,3.0
750,17,751,16,low holistic,right,upright,U0335.bmp,female,4,female,1,0.9454938564449549,AG,2.0,2.0
751,17,752,8,low holistic,left,inverted,U0137.bmp,male,12,male,1,9.896047413349152e-05,AG,-6.0,6.0
752,17,753,9,low holistic,left,upright,U0155.bmp,male,10,male,1,0.8019720111042261,AG,-5.0,5.0
753,17,754,20,high holistic,left,upright,U0362.bmp,female,2,male,0,0.34584890492260456,AG,-1.0,1.0
754,17,755,4,high holistic,right,upright,U0061.bmp,female,10,male,0,0.9950934201478958,AG,5.0,5.0
755,17,756,4,high holistic,fovea,upright,U0061.bmp,female,0,female,1,0.00010590627789497375,AG,0.0,0.0
756,17,757,3,high holistic,right,upright,U0020.bmp,male,8,male,1,0.00010064058005809784,AG,4.0,4.0
757,17,758,14,low holistic,left,inverted,U0228.bmp,male,4,male,1,0.057266341522336006,AG,-2.0,2.0
758,17,759,5,high holistic,left,upright,U0076.bmp,female,4,male,0,9.963847696781158e-05,AG,-2.0,2.0
759,17,760,17,low holistic,right,upright,U0346.bmp,female,4,male,0,0.0231594480574131,AG,2.0,2.0
760,17,761,14,high holistic,left,inverted,U0228.bmp,male,6,female,0,0.428507924079895,AG,-3.0,3.0
761,17,762,9,low holistic,right,upright,U0155.bmp,male,10,female,0,0.25950619392096996,AG,5.0,5.0
762,17,763,6,low holistic,fovea,inverted,U0106.bmp,male,0,female,0,0.00010850280523300171,AG,0.0,0.0
763,17,764,18,high holistic,left,upright,U0359.bmp,male,10,male,1,0.10513049364089966,AG,-5.0,5.0
764,17,765,4,high holistic,fovea,upright,U0061.bmp,female,0,male,0,0.00010766834020614624,AG,0.0,0.0
765,17,766,5,high holistic,right,inverted,U0076.bmp,female,8,male,0,0.3555429298430681,AG,4.0,4.0
766,17,767,4,high holistic,right,inverted,U0061.bmp,female,10,male,0,0.00010698288679122925,AG,5.0,5.0
767,17,768,7,high holistic,right,upright,U0107.bmp,female,8,male,0,0.18718570657074451,AG,4.0,4.0
768,17,769,1,low holistic,left,inverted,U0006.bmp,female,8,male,0,0.23573746718466282,AG,-4.0,4.0
769,17,770,7,high holistic,fovea,inverted,U0107.bmp,female,0,male,0,0.1688996311277151,AG,0.0,0.0
770,17,771,19,high holistic,right,inverted,U0361.bmp,female,12,male,0,0.09000968374311924,AG,6.0,6.0
771,17,772,2,low holistic,right,upright,U0014.bmp,male,6,female,0,0.09511732868850231,AG,3.0,3.0
772,17,773,4,high holistic,right,upright,U0061.bmp,female,2,male,0,0.0005950052291154861,AG,1.0,1.0
773,17,774,17,low holistic,right,inverted,U0346.bmp,female,8,male,0,0.00024531781673431396,AG,4.0,4.0
774,17,775,13,low holistic,left,inverted,U0181.bmp,male,10,male,1,0.00023088417947292328,AG,-5.0,5.0
775,17,776,6,high holistic,left,upright,U0106.bmp,female,10,female,1,0.0001005418598651886,AG,-5.0,5.0
776,17,777,3,high holistic,fovea,inverted,U0020.bmp,male,0,male,1,9.931810200214386e-05,AG,0.0,0.0
777,17,778,2,high holistic,left,upright,U0014.bmp,male,6,female,0,0.1336388662457466,AG,-3.0,3.0
778,17,779,10,low holistic,left,upright,U0159.bmp,female,6,male,0,0.168439369648695,AG,-3.0,3.0
779,17,780,4,high holistic,right,upright,U0061.bmp,female,6,female,1,0.0166609063744545,AG,3.0,3.0
780,17,781,9,low holistic,right,upright,U0155.bmp,male,8,male,1,0.12760024517774582,AG,4.0,4.0
781,17,782,13,high holistic,right,upright,U0181.bmp,female,12,female,1,0.018526572734117508,AG,6.0,6.0
782,17,783,13,low holistic,right,inverted,U0181.bmp,male,10,male,1,1.0967291314154863,AG,5.0,5.0
783,17,784,3,high holistic,fovea,upright,U0020.bmp,male,0,male,1,1.8359152991324663,AG,0.0,0.0
784,17,785,4,low holistic,left,upright,U0061.bmp,female,6,male,0,0.21019517444074154,AG,-3.0,3.0
785,17,786,17,low holistic,right,inverted,U0346.bmp,female,12,female,1,1.3535109627991915,AG,6.0,6.0
786,17,787,12,high holistic,right,upright,U0178.bmp,male,8,male,1,71.33006262592971,AG,4.0,4.0
787,17,788,7,low holistic,left,upright,U0107.bmp,female,8,female,1,0.7075413223356009,AG,-4.0,4.0
788,17,789,3,low holistic,left,upright,U0020.bmp,female,12,male,0,18.591075470671058,AG,-6.0,6.0
789,17,790,8,low holistic,right,inverted,U0137.bmp,male,2,male,1,0.0476416889578104,AG,1.0,1.0
790,17,791,13,high holistic,right,upright,U0181.bmp,female,6,female,1,0.1794092208147049,AG,3.0,3.0
791,17,792,19,high holistic,right,inverted,U0361.bmp,female,12,male,0,0.027866682037711143,AG,6.0,6.0
792,17,793,18,low holistic,left,upright,U0359.bmp,male,10,female,0,2.770973226055503,AG,-5.0,5.0
793,17,794,20,low holistic,left,inverted,U0362.bmp,male,8,male,1,0.06715252064168453,AG,-4.0,4.0
794,17,795,1,low holistic,right,inverted,U0006.bmp,female,10,male,0,0.00015404075384140015,AG,5.0,5.0
795,17,796,17,low holistic,right,upright,U0346.bmp,female,8,female,1,0.03952735289931297,AG,4.0,4.0
796,17,797,6,low holistic,left,upright,U0106.bmp,male,4,male,1,0.0001269374042749405,AG,-2.0,2.0
797,17,798,10,low holistic,right,inverted,U0159.bmp,female,4,female,1,0.00019147619605064392,AG,2.0,2.0
798,17,799,14,low holistic,left,inverted,U0228.bmp,male,6,female,0,0.0001079905778169632,AG,-3.0,3.0
799,17,800,12,high holistic,left,inverted,U0178.bmp,male,8,female,0,0.009556034579873085,AG,-4.0,4.0
800,17,801,10,low holistic,right,inverted,U0159.bmp,female,8,female,1,1.8978642094880342,AG,4.0,4.0
801,17,802,1,high holistic,left,upright,U0006.bmp,female,4,female,1,0.0002774186432361603,AG,-2.0,2.0
802,17,803,6,high holistic,fovea,inverted,U0106.bmp,female,0,female,1,0.00017425790429115295,AG,0.0,0.0
803,17,804,8,low holistic,right,upright,U0137.bmp,male,6,male,1,9.99104231595993e-05,AG,3.0,3.0
804,17,805,5,high holistic,left,inverted,U0076.bmp,female,10,male,0,0.5065227039158344,AG,-5.0,5.0
805,17,806,14,high holistic,left,inverted,U0228.bmp,male,10,female,0,0.00017370842397212982,AG,-5.0,5.0
806,17,807,10,high holistic,left,inverted,U0159.bmp,male,12,female,0,0.00020685046911239624,AG,-6.0,6.0
807,17,808,5,low holistic,right,upright,U0076.bmp,male,4,female,0,9.962357580661774e-05,AG,2.0,2.0
808,17,809,7,low holistic,left,upright,U0107.bmp,female,8,female,1,0.37343571335077286,AG,-4.0,4.0
809,17,810,10,high holistic,left,inverted,U0159.bmp,male,6,female,0,0.0001567695289850235,AG,-3.0,3.0
810,17,811,3,low holistic,left,inverted,U0020.bmp,female,8,male,0,0.00010071322321891785,AG,-4.0,4.0
811,17,812,1,low holistic,left,upright,U0006.bmp,female,12,female,1,0.7248390726745129,AG,-6.0,6.0
812,17,813,6,low holistic,fovea,inverted,U0106.bmp,male,0,female,0,9.972415864467621e-05,AG,0.0,0.0
813,17,814,9,high holistic,left,upright,U0155.bmp,female,2,male,0,0.00010845810174942017,AG,-1.0,1.0
814,17,815,12,low holistic,right,upright,U0178.bmp,female,4,female,1,0.00013529881834983826,AG,2.0,2.0
815,17,816,19,low holistic,left,inverted,U0361.bmp,female,10,male,0,0.00010047666728496552,AG,-5.0,5.0
816,17,817,10,high holistic,left,upright,U0159.bmp,male,12,male,1,1.3329074308276176,AG,-6.0,6.0
817,17,818,13,high holistic,fovea,inverted,U0181.bmp,female,0,male,0,0.3495811838656664,AG,0.0,0.0
818,17,819,5,high holistic,left,inverted,U0076.bmp,female,12,female,1,0.5817985031753778,AG,-6.0,6.0
819,17,820,16,high holistic,right,upright,U0335.bmp,female,2,female,1,0.1573587879538536,AG,1.0,1.0
820,17,821,18,high holistic,fovea,inverted,U0359.bmp,male,0,male,1,0.00010139681398868561,AG,0.0,0.0
821,17,822,2,high holistic,fovea,inverted,U0014.bmp,male,0,female,0,0.0001728162169456482,AG,0.0,0.0
822,17,823,13,low holistic,fovea,upright,U0181.bmp,male,0,female,0,0.00011127069592475891,AG,0.0,0.0
823,17,824,6,high holistic,right,inverted,U0106.bmp,female,12,female,1,0.00015143677592277527,AG,6.0,6.0
824,17,825,6,low holistic,left,inverted,U0106.bmp,male,10,female,0,0.00015144050121307373,AG,-5.0,5.0
825,17,826,20,high holistic,right,inverted,U0362.bmp,female,2,female,1,0.057320114225149155,AG,1.0,1.0
826,17,827,11,low holistic,fovea,upright,U0164.bmp,female,0,male,0,0.00010044686496257782,AG,0.0,0.0
827,17,828,4,high holistic,right,upright,U0061.bmp,female,12,male,0,0.00016435422003269196,AG,6.0,6.0
828,17,829,6,low holistic,right,inverted,U0106.bmp,male,6,male,1,0.07814325392246246,AG,3.0,3.0
829,17,830,19,low holistic,left,inverted,U0361.bmp,female,10,female,1,0.0001475270837545395,AG,-5.0,5.0
830,17,831,15,low holistic,left,inverted,U0312.bmp,male,8,female,0,0.00021305307745933533,AG,-4.0,4.0
831,17,832,10,high holistic,left,upright,U0159.bmp,male,2,male,1,2.042228588834405,AG,-1.0,1.0
832,17,833,7,high holistic,fovea,upright,U0107.bmp,female,0,female,1,9.957142174243927e-05,AG,0.0,0.0
833,17,834,17,low holistic,right,upright,U0346.bmp,female,12,female,1,9.943358600139618e-05,AG,6.0,6.0
834,17,835,14,high holistic,right,inverted,U0228.bmp,male,6,female,0,0.00010080449283123016,AG,3.0,3.0
835,17,836,13,high holistic,left,upright,U0181.bmp,female,6,female,1,0.6764479745179415,AG,-3.0,3.0
836,17,837,8,low holistic,left,upright,U0137.bmp,male,10,female,0,0.6416604556143284,AG,-5.0,5.0
837,17,838,15,high holistic,left,upright,U0312.bmp,male,12,female,0,1.3842253014445305,AG,-6.0,6.0
838,17,839,19,high holistic,left,inverted,U0361.bmp,female,4,female,1,0.2637723907828331,AG,-2.0,2.0
839,17,840,8,high holistic,fovea,inverted,U0137.bmp,female,0,female,1,6.948606615886092,AG,0.0,0.0
840,17,841,5,low holistic,left,inverted,U0076.bmp,male,4,male,1,9.951740503311157e-05,AG,-2.0,2.0
841,17,842,13,high holistic,right,inverted,U0181.bmp,female,10,female,1,0.3481286596506834,AG,5.0,5.0
842,17,843,2,low holistic,right,inverted,U0014.bmp,male,12,female,0,0.7185915131121874,AG,6.0,6.0
843,17,844,2,high holistic,left,upright,U0014.bmp,male,4,female,0,0.5691606532782316,AG,-2.0,2.0
844,17,845,11,low holistic,left,inverted,U0164.bmp,female,6,female,1,0.36089979857206345,AG,-3.0,3.0
845,17,846,19,low holistic,right,inverted,U0361.bmp,female,6,female,1,0.5548587087541819,AG,3.0,3.0
846,17,847,18,low holistic,left,inverted,U0359.bmp,male,4,female,0,0.3714395798742771,AG,-2.0,2.0
847,17,848,4,high holistic,left,upright,U0061.bmp,female,8,male,0,0.2025257833302021,AG,-4.0,4.0
848,17,849,5,high holistic,right,upright,U0076.bmp,female,4,male,0,0.3793630190193653,AG,2.0,2.0
849,17,850,19,high holistic,left,inverted,U0361.bmp,female,8,male,0,0.003560313954949379,AG,-4.0,4.0
850,17,851,2,low holistic,right,upright,U0014.bmp,male,2,male,1,0.3627446722239256,AG,1.0,1.0
851,17,852,20,high holistic,right,upright,U0362.bmp,female,8,female,1,0.00010736286640167236,AG,4.0,4.0
852,17,853,10,low holistic,left,inverted,U0159.bmp,female,10,male,0,0.0004555005580186844,AG,-5.0,5.0
853,17,854,2,low holistic,right,upright,U0014.bmp,male,10,female,0,0.7854149397462606,AG,5.0,5.0
854,17,855,16,high holistic,right,upright,U0335.bmp,female,12,male,0,0.00010060518980026245,AG,6.0,6.0
855,17,856,11,high holistic,right,upright,U0164.bmp,female,2,male,0,0.30624696984887123,AG,1.0,1.0
856,17,857,3,low holistic,left,upright,U0020.bmp,female,2,female,1,0.2670678198337555,AG,-1.0,1.0
857,17,858,5,high holistic,right,upright,U0076.bmp,female,8,male,0,0.0001150667667388916,AG,4.0,4.0
858,17,859,9,high holistic,left,upright,U0155.bmp,female,4,female,1,1.217709532007575,AG,-2.0,2.0
859,17,860,12,high holistic,fovea,upright,U0178.bmp,male,0,male,1,0.17545249871909618,AG,0.0,0.0
860,17,861,16,high holistic,left,inverted,U0335.bmp,female,4,female,1,0.3036049995571375,AG,-2.0,2.0
861,17,862,9,high holistic,right,inverted,U0155.bmp,female,2,female,1,0.25774751603603363,AG,1.0,1.0
862,17,863,1,low holistic,left,inverted,U0006.bmp,female,2,female,1,0.00034476257860660553,AG,-1.0,1.0
863,17,864,2,high holistic,left,inverted,U0014.bmp,male,4,male,1,0.4463070537894964,AG,-2.0,2.0
864,17,865,16,high holistic,left,inverted,U0335.bmp,female,10,female,1,0.13350489921867847,AG,-5.0,5.0
865,17,866,12,low holistic,right,inverted,U0178.bmp,female,12,female,1,0.7755573466420174,AG,6.0,6.0
866,17,867,15,low holistic,right,inverted,U0312.bmp,male,12,female,0,0.06378987804055214,AG,6.0,6.0
867,17,868,20,low holistic,right,upright,U0362.bmp,male,2,male,1,0.48337746411561966,AG,1.0,1.0
868,17,869,4,high holistic,right,inverted,U0061.bmp,female,6,male,0,0.20719009079039097,AG,3.0,3.0
869,17,870,4,low holistic,left,upright,U0061.bmp,female,12,male,0,0.7824846990406513,AG,-6.0,6.0
870,17,871,14,low holistic,right,inverted,U0228.bmp,male,10,male,1,1.038229662925005,AG,5.0,5.0
871,17,872,5,high holistic,left,upright,U0076.bmp,female,12,male,0,0.29131048545241356,AG,-6.0,6.0
872,17,873,18,low holistic,right,inverted,U0359.bmp,male,12,male,1,0.00020384415984153748,AG,6.0,6.0
873,17,874,10,low holistic,left,upright,U0159.bmp,female,4,male,0,0.00010619871318340302,AG,-2.0,2.0
874,17,875,10,low holistic,left,inverted,U0159.bmp,female,12,female,1,0.021147875115275383,AG,-6.0,6.0
875,17,876,20,low holistic,left,upright,U0362.bmp,male,6,female,0,9.937584400177002e-05,AG,-3.0,3.0
876,17,877,3,low holistic,right,inverted,U0020.bmp,female,8,male,0,0.027677152305841446,AG,4.0,4.0
877,17,878,4,high holistic,right,inverted,U0061.bmp,female,10,female,1,0.13896331004798412,AG,5.0,5.0
878,17,879,5,high holistic,left,inverted,U0076.bmp,female,6,female,1,0.0001122932881116867,AG,-3.0,3.0
879,17,880,6,low holistic,right,inverted,U0106.bmp,male,12,male,1,0.4602786488831043,AG,6.0,6.0
880,17,881,15,low holistic,left,inverted,U0312.bmp,male,10,female,0,0.046679165214300156,AG,-5.0,5.0
881,17,882,16,low holistic,left,upright,U0335.bmp,female,8,female,1,0.1895207930356264,AG,-4.0,4.0
882,17,883,15,low holistic,fovea,inverted,U0312.bmp,male,0,female,0,1.2058949284255505,AG,0.0,0.0
883,17,884,11,high holistic,fovea,upright,U0164.bmp,female,0,female,1,0.09311683662235737,AG,0.0,0.0
884,17,885,12,low holistic,left,upright,U0178.bmp,female,12,male,0,0.8769805058836937,AG,-6.0,6.0
885,17,886,3,low holistic,right,upright,U0020.bmp,female,8,male,0,0.5856940057128668,AG,4.0,4.0
886,17,887,19,high holistic,fovea,inverted,U0361.bmp,female,0,male,0,1.0819332711398602,AG,0.0,0.0
887,17,888,3,high holistic,right,upright,U0020.bmp,male,12,male,1,0.6292775571346283,AG,6.0,6.0
888,17,889,16,high holistic,right,upright,U0335.bmp,female,12,female,1,0.24294131621718407,AG,6.0,6.0
889,17,890,16,low holistic,right,inverted,U0335.bmp,female,10,male,0,0.6010953988879919,AG,5.0,5.0
890,17,891,12,low holistic,right,inverted,U0178.bmp,female,8,female,1,9.939447045326233e-05,AG,4.0,4.0
891,17,892,11,low holistic,fovea,inverted,U0164.bmp,female,0,male,0,0.01618594489991665,AG,0.0,0.0
892,17,893,10,low holistic,left,upright,U0159.bmp,female,10,female,1,0.47892503440380096,AG,-5.0,5.0
893,17,894,9,high holistic,right,inverted,U0155.bmp,female,8,male,0,0.5877203103154898,AG,4.0,4.0
894,17,895,7,low holistic,left,inverted,U0107.bmp,female,2,female,1,0.00010772049427032471,AG,-1.0,1.0
895,17,896,1,low holistic,right,upright,U0006.bmp,female,2,male,0,0.13697926327586174,AG,1.0,1.0
896,17,897,17,high holistic,right,inverted,U0346.bmp,male,6,female,0,0.1623718924820423,AG,3.0,3.0
897,17,898,1,high holistic,right,upright,U0006.bmp,female,2,female,1,0.6925029344856739,AG,1.0,1.0
898,17,899,11,high holistic,left,inverted,U0164.bmp,female,12,male,0,0.2392446044832468,AG,-6.0,6.0
899,17,900,9,high holistic,fovea,upright,U0155.bmp,female,0,male,0,0.7743257451802492,AG,0.0,0.0
900,17,901,10,low holistic,right,upright,U0159.bmp,female,6,male,0,0.00010883249342441559,AG,3.0,3.0
901,17,902,6,high holistic,right,inverted,U0106.bmp,female,2,female,1,0.044665612280368805,AG,1.0,1.0
902,17,903,2,high holistic,right,inverted,U0014.bmp,male,10,male,1,1.0346662756055593,AG,5.0,5.0
903,17,904,1,high holistic,right,upright,U0006.bmp,female,6,female,1,0.2241902593523264,AG,3.0,3.0
904,17,905,2,low holistic,fovea,upright,U0014.bmp,male,0,female,0,0.05475926958024502,AG,0.0,0.0
905,17,906,6,low holistic,right,inverted,U0106.bmp,male,10,male,1,0.00010712072253227234,AG,5.0,5.0
906,17,907,19,low holistic,fovea,upright,U0361.bmp,female,0,female,1,0.23653022572398186,AG,0.0,0.0
907,17,908,18,high holistic,right,upright,U0359.bmp,male,12,female,0,0.00010161846876144409,AG,6.0,6.0
908,17,909,6,low holistic,right,inverted,U0106.bmp,male,4,male,1,1.9608996193856,AG,2.0,2.0
909,17,910,6,high holistic,left,inverted,U0106.bmp,female,2,female,1,0.00010512396693229675,AG,-1.0,1.0
910,17,911,9,low holistic,left,upright,U0155.bmp,male,12,female,0,0.000100770965218544,AG,-6.0,6.0
911,17,912,1,high holistic,left,upright,U0006.bmp,female,12,female,1,0.0926416702568531,AG,-6.0,6.0
912,17,913,6,high holistic,left,upright,U0106.bmp,female,4,male,0,0.00016400031745433807,AG,-2.0,2.0
913,17,914,11,high holistic,left,upright,U0164.bmp,female,10,female,1,0.00010836869478225708,AG,-5.0,5.0
914,17,915,19,low holistic,left,upright,U0361.bmp,female,6,male,0,0.28624586947262287,AG,-3.0,3.0
915,17,916,10,high holistic,left,upright,U0159.bmp,male,8,male,1,0.00011441670358181,AG,-4.0,4.0
916,17,917,19,high holistic,left,upright,U0361.bmp,female,4,male,0,0.5445343665778637,AG,-2.0,2.0
917,17,918,16,high holistic,left,inverted,U0335.bmp,female,4,male,0,0.35592146776616573,AG,-2.0,2.0
918,17,919,9,low holistic,left,inverted,U0155.bmp,male,6,male,1,0.38079483062028885,AG,-3.0,3.0
919,17,920,18,high holistic,right,inverted,U0359.bmp,male,6,female,0,0.4685490522533655,AG,3.0,3.0
920,17,921,2,high holistic,left,inverted,U0014.bmp,male,2,male,1,1.5652758330106735,AG,-1.0,1.0
921,17,922,10,high holistic,right,upright,U0159.bmp,male,10,female,0,0.00010067224502563477,AG,5.0,5.0
922,17,923,9,low holistic,right,inverted,U0155.bmp,male,10,male,1,6.753406196832657,AG,5.0,5.0
923,17,924,5,low holistic,right,inverted,U0076.bmp,male,10,female,0,0.09761301428079605,AG,5.0,5.0
924,17,925,9,high holistic,right,upright,U0155.bmp,female,8,female,1,2.828029068186879,AG,4.0,4.0
925,17,926,10,low holistic,left,inverted,U0159.bmp,female,12,male,0,0.00010008364915847778,AG,-6.0,6.0
926,17,927,16,high holistic,right,inverted,U0335.bmp,female,2,female,1,0.00010709650814533234,AG,1.0,1.0
927,17,928,10,low holistic,fovea,upright,U0159.bmp,female,0,female,1,1.994263645261526,AG,0.0,0.0
928,17,929,10,low holistic,left,inverted,U0159.bmp,female,4,female,1,0.00014716386795043945,AG,-2.0,2.0
929,17,930,8,low holistic,right,inverted,U0137.bmp,male,8,female,0,0.1997277718037367,AG,4.0,4.0
930,17,931,11,high holistic,left,inverted,U0164.bmp,female,6,female,1,0.014930427074432373,AG,-3.0,3.0
931,17,932,19,high holistic,left,inverted,U0361.bmp,female,2,female,1,0.3732488080859184,AG,-1.0,1.0
932,17,933,18,low holistic,right,upright,U0359.bmp,male,12,male,1,2.8070048447698355,AG,6.0,6.0
933,17,934,2,high holistic,right,upright,U0014.bmp,male,6,male,1,2.637819241732359,AG,3.0,3.0
934,17,935,18,low holistic,left,upright,U0359.bmp,male,4,female,0,9.948760271072388e-05,AG,-2.0,2.0
935,17,936,1,high holistic,right,inverted,U0006.bmp,female,12,female,1,4.328877370804548,AG,6.0,6.0
936,17,937,18,low holistic,right,inverted,U0359.bmp,male,12,female,0,0.04266000725328922,AG,6.0,6.0
937,17,938,10,high holistic,right,inverted,U0159.bmp,male,2,female,0,0.00010826997458934784,AG,1.0,1.0
938,17,939,5,low holistic,left,inverted,U0076.bmp,male,8,male,1,0.4330735467374325,AG,-4.0,4.0
939,17,940,3,low holistic,left,upright,U0020.bmp,female,2,female,1,0.10253581032156944,AG,-1.0,1.0
940,17,941,6,high holistic,right,upright,U0106.bmp,female,12,female,1,2.6668104752898216,AG,6.0,6.0
941,17,942,10,low holistic,left,inverted,U0159.bmp,female,2,male,0,0.35867575369775295,AG,-1.0,1.0
942,17,943,12,high holistic,left,inverted,U0178.bmp,male,4,female,0,0.00010072439908981323,AG,-2.0,2.0
943,17,944,11,high holistic,fovea,upright,U0164.bmp,female,0,male,0,0.07993008196353912,AG,0.0,0.0
944,17,945,2,high holistic,right,inverted,U0014.bmp,male,4,male,1,0.3393311034888029,AG,2.0,2.0
945,17,946,19,high holistic,right,upright,U0361.bmp,female,4,male,0,0.00010554678738117218,AG,2.0,2.0
946,17,947,19,high holistic,left,upright,U0361.bmp,female,8,female,1,0.29123955219984055,AG,-4.0,4.0
947,17,948,1,low holistic,right,upright,U0006.bmp,female,2,male,0,0.10311025194823742,AG,1.0,1.0
948,17,949,6,high holistic,fovea,inverted,U0106.bmp,female,0,male,0,0.2747396398335695,AG,0.0,0.0
949,17,950,19,high holistic,left,inverted,U0361.bmp,female,10,male,0,0.15241825208067894,AG,-5.0,5.0
950,17,951,17,high holistic,right,upright,U0346.bmp,male,12,female,0,1.3754132706671953,AG,6.0,6.0
951,17,952,6,high holistic,right,inverted,U0106.bmp,female,8,female,1,9.908527135848999e-05,AG,4.0,4.0
952,17,953,5,low holistic,left,upright,U0076.bmp,male,4,male,1,0.07840368710458279,AG,-2.0,2.0
953,17,954,13,low holistic,right,upright,U0181.bmp,male,6,male,1,0.0001970939338207245,AG,3.0,3.0
954,17,955,9,low holistic,left,inverted,U0155.bmp,male,4,female,0,0.0001073293387889862,AG,-2.0,2.0
955,17,956,18,high holistic,right,upright,U0359.bmp,male,12,female,0,0.5857983659952879,AG,6.0,6.0
956,17,957,11,high holistic,fovea,inverted,U0164.bmp,female,0,male,0,0.00010096468031406403,AG,0.0,0.0
957,17,958,2,high holistic,right,upright,U0014.bmp,male,12,male,1,0.10585518553853035,AG,6.0,6.0
958,17,959,16,high holistic,right,inverted,U0335.bmp,female,2,male,0,1.3643771540373564,AG,1.0,1.0
959,17,960,7,low holistic,left,upright,U0107.bmp,female,4,male,0,0.5973603501915932,AG,-2.0,2.0
960,17,961,14,high holistic,left,inverted,U0228.bmp,male,4,male,1,1.373494042083621,AG,-2.0,2.0
961,17,962,2,high holistic,left,inverted,U0014.bmp,male,6,female,0,2.700433610007167,AG,-3.0,3.0
962,17,963,5,high holistic,fovea,inverted,U0076.bmp,female,0,female,1,0.10504057630896568,AG,0.0,0.0
963,17,964,9,high holistic,right,inverted,U0155.bmp,female,2,female,1,5.0265853703022,AG,1.0,1.0
964,17,965,9,low holistic,right,upright,U0155.bmp,male,8,male,1,0.35307591035962105,AG,4.0,4.0
965,17,966,19,high holistic,left,upright,U0361.bmp,female,6,female,1,0.0002676434814929962,AG,-3.0,3.0
966,17,967,12,high holistic,left,upright,U0178.bmp,male,10,male,1,3.593340341001749,AG,-5.0,5.0
967,17,968,18,high holistic,right,inverted,U0359.bmp,male,2,male,1,2.1058969236910343,AG,1.0,1.0
968,17,969,17,high holistic,right,inverted,U0346.bmp,male,10,male,1,0.00010705925524234772,AG,5.0,5.0
969,17,970,2,low holistic,right,inverted,U0014.bmp,male,12,female,0,2.2998021990060806,AG,6.0,6.0
970,17,971,12,high holistic,right,upright,U0178.bmp,male,8,female,0,3.2241681963205338,AG,4.0,4.0
971,17,972,13,high holistic,right,inverted,U0181.bmp,female,6,male,0,0.04438204877078533,AG,3.0,3.0
972,17,973,9,high holistic,right,inverted,U0155.bmp,female,10,female,1,0.00030486099421977997,AG,5.0,5.0
973,17,974,3,high holistic,right,inverted,U0020.bmp,male,4,female,0,1.9136220905929804,AG,2.0,2.0
974,17,975,16,high holistic,right,inverted,U0335.bmp,female,8,female,1,0.764379957690835,AG,4.0,4.0
975,17,976,17,high holistic,right,inverted,U0346.bmp,male,8,male,1,0.12596707977354527,AG,4.0,4.0
976,17,977,4,high holistic,left,upright,U0061.bmp,female,10,male,0,0.15923816710710526,AG,-5.0,5.0
977,17,978,11,low holistic,left,inverted,U0164.bmp,female,4,male,0,9.44713356718421,AG,-2.0,2.0
978,17,979,7,high holistic,left,inverted,U0107.bmp,female,2,male,0,0.00010065548121929169,AG,-1.0,1.0
979,17,980,12,high holistic,left,inverted,U0178.bmp,male,2,female,0,0.00010120123624801636,AG,-1.0,1.0
980,17,981,12,high holistic,right,inverted,U0178.bmp,male,8,male,1,1.2272137887775898,AG,4.0,4.0
981,17,982,5,low holistic,left,upright,U0076.bmp,male,2,female,0,0.00010054931044578552,AG,-1.0,1.0
982,17,983,19,low holistic,left,upright,U0361.bmp,female,4,male,0,0.14350594580173492,AG,-2.0,2.0
983,17,984,17,low holistic,left,inverted,U0346.bmp,female,12,male,0,0.04207650385797024,AG,-6.0,6.0
984,17,985,7,high holistic,right,inverted,U0107.bmp,female,4,male,0,0.21506530046463013,AG,2.0,2.0
985,17,986,16,low holistic,left,upright,U0335.bmp,female,12,male,0,0.0066795144230127335,AG,-6.0,6.0
986,17,987,15,high holistic,right,upright,U0312.bmp,male,12,male,1,0.8300202917307615,AG,6.0,6.0
987,17,988,15,low holistic,fovea,upright,U0312.bmp,male,0,male,1,0.8032066784799099,AG,0.0,0.0
988,17,989,8,high holistic,right,inverted,U0137.bmp,female,6,female,1,0.00011029653251171112,AG,3.0,3.0
989,17,990,19,low holistic,right,upright,U0361.bmp,female,10,male,0,0.1467304714024067,AG,5.0,5.0
990,17,991,15,high holistic,right,upright,U0312.bmp,male,6,male,1,0.41096439212560654,AG,3.0,3.0
991,17,992,2,high holistic,left,upright,U0014.bmp,male,2,male,1,3.3704509306699038,AG,-1.0,1.0
992,17,993,5,low holistic,right,upright,U0076.bmp,male,2,female,0,0.00010875798761844635,AG,1.0,1.0
993,17,994,3,high holistic,left,upright,U0020.bmp,male,6,female,0,0.22590411826968193,AG,-3.0,3.0
994,17,995,6,low holistic,right,inverted,U0106.bmp,male,8,female,0,1.9037249237298965,AG,4.0,4.0
995,17,996,4,high holistic,right,upright,U0061.bmp,female,4,female,1,1.2044957466423512,AG,2.0,2.0
996,17,997,18,high holistic,right,inverted,U0359.bmp,male,8,female,0,0.7056040521711111,AG,4.0,4.0
997,17,998,1,low holistic,left,upright,U0006.bmp,female,12,female,1,0.00010071136057376862,AG,-6.0,6.0
998,17,999,9,high holistic,left,upright,U0155.bmp,female,12,male,0,2.508581764996052,AG,-6.0,6.0
999,17,1000,4,high holistic,right,inverted,U0061.bmp,female,6,female,1,0.032864125445485115,AG,3.0,3.0
1000,17,1001,3,low holistic,left,inverted,U0020.bmp,female,10,male,0,4.213427636772394,AG,-5.0,5.0
